participantID;age;gender;handedness;block_i;trial_i;stim;signal;SSD;response;rt;correct;focus;Fullscreen;time_elapsed;browser_name;browser_version;os_name;os_version;tablet;mobile;screen_resolution;window_resolution
H009;22;Vrouwelijk;Rechts;0;1;left;yes;200;leftarrow;532;false;focus;yes;184247;Chrome;111.0;Windows;10;undefined;undefined;1504 x 1003;1504 x 1003
H009;22;Vrouwelijk;Rechts;0;2;right;no;150;rightarrow;486;true;focus;yes;186277;Chrome;111.0;Windows;10;undefined;undefined;1504 x 1003;1504 x 1003
H009;22;Vrouwelijk;Rechts;0;3;left;no;150;leftarrow;416;true;focus;yes;188225;Chrome;111.0;Windows;10;undefined;undefined;1504 x 1003;1504 x 1003
H009;22;Vrouwelijk;Rechts;0;4;right;no;150;rightarrow;397;true;focus;yes;190146;Chrome;111.0;Windows;10;undefined;undefined;1504 x 1003;1504 x 1003
H009;22;Vrouwelijk;Rechts;0;5;right;no;150;rightarrow;592;true;focus;yes;192268;Chrome;111.0;Windows;10;undefined;undefined;1504 x 1003;1504 x 1003
H009;22;Vrouwelijk;Rechts;0;6;right;yes;150;leftarrow;405;false;focus;yes;194215;Chrome;111.0;Windows;10;undefined;undefined;1504 x 1003;1504 x 1003
H009;22;Vrouwelijk;Rechts;0;7;left;no;100;leftarrow;437;true;focus;yes;196182;Chrome;111.0;Windows;10;undefined;undefined;1504 x 1003;1504 x 1003
H009;22;Vrouwelijk;Rechts;0;8;left;no;100;leftarrow;424;true;focus;yes;198138;Chrome;111.0;Windows;10;undefined;undefined;1504 x 1003;1504 x 1003
H009;22;Vrouwelijk;Rechts;1;1;left;yes;100;leftarrow;908;false;focus;yes;219508;Chrome;111.0;Windows;10;undefined;undefined;1504 x 1003;1504 x 1003
H009;22;Vrouwelijk;Rechts;1;2;right;no;50;rightarrow;394;true;focus;yes;220669;Chrome;111.0;Windows;10;undefined;undefined;1504 x 1003;1504 x 1003
H009;22;Vrouwelijk;Rechts;1;3;right;yes;50;undefined;null;true;focus;yes;222705;Chrome;111.0;Windows;10;undefined;undefined;1504 x 1003;1504 x 1003
H009;22;Vrouwelijk;Rechts;1;4;right;no;100;leftarrow;271;false;focus;yes;223744;Chrome;111.0;Windows;10;undefined;undefined;1504 x 1003;1504 x 1003
H009;22;Vrouwelijk;Rechts;1;5;left;no;100;leftarrow;419;true;focus;yes;224927;Chrome;111.0;Windows;10;undefined;undefined;1504 x 1003;1504 x 1003
H009;22;Vrouwelijk;Rechts;1;6;left;no;100;leftarrow;447;true;focus;yes;226144;Chrome;111.0;Windows;10;undefined;undefined;1504 x 1003;1504 x 1003
H009;22;Vrouwelijk;Rechts;1;7;left;no;100;leftarrow;334;true;focus;yes;227249;Chrome;111.0;Windows;10;undefined;undefined;1504 x 1003;1504 x 1003
H009;22;Vrouwelijk;Rechts;1;8;right;no;100;leftarrow;388;false;focus;yes;228404;Chrome;111.0;Windows;10;undefined;undefined;1504 x 1003;1504 x 1003
H009;22;Vrouwelijk;Rechts;1;9;right;yes;100;undefined;null;true;focus;yes;230428;Chrome;111.0;Windows;10;undefined;undefined;1504 x 1003;1504 x 1003
H009;22;Vrouwelijk;Rechts;1;10;right;no;150;rightarrow;495;true;focus;yes;231694;Chrome;111.0;Windows;10;undefined;undefined;1504 x 1003;1504 x 1003
H009;22;Vrouwelijk;Rechts;1;11;left;no;150;leftarrow;350;true;focus;yes;232825;Chrome;111.0;Windows;10;undefined;undefined;1504 x 1003;1504 x 1003
H009;22;Vrouwelijk;Rechts;1;12;left;yes;150;leftarrow;392;false;focus;yes;233982;Chrome;111.0;Windows;10;undefined;undefined;1504 x 1003;1504 x 1003
H009;22;Vrouwelijk;Rechts;1;13;left;no;100;leftarrow;513;true;focus;yes;235261;Chrome;111.0;Windows;10;undefined;undefined;1504 x 1003;1504 x 1003
H009;22;Vrouwelijk;Rechts;1;14;right;no;100;rightarrow;380;true;focus;yes;236409;Chrome;111.0;Windows;10;undefined;undefined;1504 x 1003;1504 x 1003
H009;22;Vrouwelijk;Rechts;1;15;left;no;100;leftarrow;315;true;focus;yes;237492;Chrome;111.0;Windows;10;undefined;undefined;1504 x 1003;1504 x 1003
H009;22;Vrouwelijk;Rechts;1;16;right;no;100;rightarrow;357;true;focus;yes;238610;Chrome;111.0;Windows;10;undefined;undefined;1504 x 1003;1504 x 1003
H009;22;Vrouwelijk;Rechts;1;17;left;no;100;leftarrow;309;true;focus;yes;239687;Chrome;111.0;Windows;10;undefined;undefined;1504 x 1003;1504 x 1003
H009;22;Vrouwelijk;Rechts;1;18;right;yes;100;rightarrow;394;false;focus;yes;240846;Chrome;111.0;Windows;10;undefined;undefined;1504 x 1003;1504 x 1003
H009;22;Vrouwelijk;Rechts;1;19;left;yes;50;undefined;null;true;focus;yes;242886;Chrome;111.0;Windows;10;undefined;undefined;1504 x 1003;1504 x 1003
H009;22;Vrouwelijk;Rechts;1;20;right;no;100;rightarrow;376;true;focus;yes;244031;Chrome;111.0;Windows;10;undefined;undefined;1504 x 1003;1504 x 1003
H009;22;Vrouwelijk;Rechts;1;21;right;no;100;rightarrow;542;true;focus;yes;245351;Chrome;111.0;Windows;10;undefined;undefined;1504 x 1003;1504 x 1003
H009;22;Vrouwelijk;Rechts;1;22;left;no;100;leftarrow;355;true;focus;yes;246475;Chrome;111.0;Windows;10;undefined;undefined;1504 x 1003;1504 x 1003
H009;22;Vrouwelijk;Rechts;1;23;right;no;100;rightarrow;400;true;focus;yes;247641;Chrome;111.0;Windows;10;undefined;undefined;1504 x 1003;1504 x 1003
H009;22;Vrouwelijk;Rechts;1;24;left;no;100;leftarrow;336;true;focus;yes;248740;Chrome;111.0;Windows;10;undefined;undefined;1504 x 1003;1504 x 1003
H009;22;Vrouwelijk;Rechts;1;25;right;no;100;rightarrow;362;true;focus;yes;249870;Chrome;111.0;Windows;10;undefined;undefined;1504 x 1003;1504 x 1003
H009;22;Vrouwelijk;Rechts;1;26;right;no;100;leftarrow;298;false;focus;yes;250947;Chrome;111.0;Windows;10;undefined;undefined;1504 x 1003;1504 x 1003
H009;22;Vrouwelijk;Rechts;1;27;left;no;100;leftarrow;369;true;focus;yes;252091;Chrome;111.0;Windows;10;undefined;undefined;1504 x 1003;1504 x 1003
H009;22;Vrouwelijk;Rechts;1;28;left;no;100;leftarrow;345;true;focus;yes;253209;Chrome;111.0;Windows;10;undefined;undefined;1504 x 1003;1504 x 1003
H009;22;Vrouwelijk;Rechts;1;29;left;yes;100;rightarrow;322;false;focus;yes;254291;Chrome;111.0;Windows;10;undefined;undefined;1504 x 1003;1504 x 1003
H009;22;Vrouwelijk;Rechts;1;30;right;no;50;rightarrow;445;true;focus;yes;255492;Chrome;111.0;Windows;10;undefined;undefined;1504 x 1003;1504 x 1003
H009;22;Vrouwelijk;Rechts;1;31;left;no;50;leftarrow;336;true;focus;yes;256598;Chrome;111.0;Windows;10;undefined;undefined;1504 x 1003;1504 x 1003
H009;22;Vrouwelijk;Rechts;1;32;right;yes;50;undefined;null;true;focus;yes;258626;Chrome;111.0;Windows;10;undefined;undefined;1504 x 1003;1504 x 1003
H009;22;Vrouwelijk;Rechts;1;33;left;yes;100;leftarrow;404;false;focus;yes;259795;Chrome;111.0;Windows;10;undefined;undefined;1504 x 1003;1504 x 1003
H009;22;Vrouwelijk;Rechts;1;34;left;no;50;rightarrow;317;false;focus;yes;260874;Chrome;111.0;Windows;10;undefined;undefined;1504 x 1003;1504 x 1003
H009;22;Vrouwelijk;Rechts;1;35;left;no;50;leftarrow;346;true;focus;yes;261991;Chrome;111.0;Windows;10;undefined;undefined;1504 x 1003;1504 x 1003
H009;22;Vrouwelijk;Rechts;1;36;left;no;50;leftarrow;372;true;focus;yes;263130;Chrome;111.0;Windows;10;undefined;undefined;1504 x 1003;1504 x 1003
H009;22;Vrouwelijk;Rechts;1;37;right;no;50;rightarrow;467;true;focus;yes;264358;Chrome;111.0;Windows;10;undefined;undefined;1504 x 1003;1504 x 1003
H009;22;Vrouwelijk;Rechts;1;38;right;no;50;leftarrow;313;false;focus;yes;265442;Chrome;111.0;Windows;10;undefined;undefined;1504 x 1003;1504 x 1003
H009;22;Vrouwelijk;Rechts;1;39;right;yes;50;undefined;null;true;focus;yes;267477;Chrome;111.0;Windows;10;undefined;undefined;1504 x 1003;1504 x 1003
H009;22;Vrouwelijk;Rechts;1;40;right;no;100;rightarrow;445;true;focus;yes;268700;Chrome;111.0;Windows;10;undefined;undefined;1504 x 1003;1504 x 1003
H009;22;Vrouwelijk;Rechts;1;41;right;no;100;leftarrow;372;false;focus;yes;269846;Chrome;111.0;Windows;10;undefined;undefined;1504 x 1003;1504 x 1003
H009;22;Vrouwelijk;Rechts;1;42;left;no;100;leftarrow;349;true;focus;yes;270961;Chrome;111.0;Windows;10;undefined;undefined;1504 x 1003;1504 x 1003
H009;22;Vrouwelijk;Rechts;1;43;right;no;100;rightarrow;459;true;focus;yes;272197;Chrome;111.0;Windows;10;undefined;undefined;1504 x 1003;1504 x 1003
H009;22;Vrouwelijk;Rechts;1;44;right;yes;100;rightarrow;371;false;focus;yes;273344;Chrome;111.0;Windows;10;undefined;undefined;1504 x 1003;1504 x 1003
H009;22;Vrouwelijk;Rechts;1;45;right;no;50;rightarrow;509;true;focus;yes;274626;Chrome;111.0;Windows;10;undefined;undefined;1504 x 1003;1504 x 1003
H009;22;Vrouwelijk;Rechts;1;46;left;yes;50;leftarrow;471;false;focus;yes;275863;Chrome;111.0;Windows;10;undefined;undefined;1504 x 1003;1504 x 1003
H009;22;Vrouwelijk;Rechts;1;47;left;no;50;leftarrow;438;true;focus;yes;277077;Chrome;111.0;Windows;10;undefined;undefined;1504 x 1003;1504 x 1003
H009;22;Vrouwelijk;Rechts;1;48;left;no;50;leftarrow;415;true;focus;yes;278261;Chrome;111.0;Windows;10;undefined;undefined;1504 x 1003;1504 x 1003
H009;22;Vrouwelijk;Rechts;1;49;right;no;50;rightarrow;395;true;focus;yes;279450;Chrome;111.0;Windows;10;undefined;undefined;1504 x 1003;1504 x 1003
H009;22;Vrouwelijk;Rechts;1;50;left;yes;50;undefined;null;true;focus;yes;281489;Chrome;111.0;Windows;10;undefined;undefined;1504 x 1003;1504 x 1003
H009;22;Vrouwelijk;Rechts;1;51;left;no;100;leftarrow;385;true;focus;yes;282646;Chrome;111.0;Windows;10;undefined;undefined;1504 x 1003;1504 x 1003
H009;22;Vrouwelijk;Rechts;1;52;right;no;100;rightarrow;432;true;focus;yes;283845;Chrome;111.0;Windows;10;undefined;undefined;1504 x 1003;1504 x 1003
H009;22;Vrouwelijk;Rechts;1;53;right;yes;100;undefined;null;true;focus;yes;285874;Chrome;111.0;Windows;10;undefined;undefined;1504 x 1003;1504 x 1003
H009;22;Vrouwelijk;Rechts;1;54;left;no;150;leftarrow;338;true;focus;yes;286982;Chrome;111.0;Windows;10;undefined;undefined;1504 x 1003;1504 x 1003
H009;22;Vrouwelijk;Rechts;1;55;right;no;150;rightarrow;487;true;focus;yes;288245;Chrome;111.0;Windows;10;undefined;undefined;1504 x 1003;1504 x 1003
H009;22;Vrouwelijk;Rechts;1;56;left;no;150;leftarrow;373;true;focus;yes;289387;Chrome;111.0;Windows;10;undefined;undefined;1504 x 1003;1504 x 1003
H009;22;Vrouwelijk;Rechts;1;57;right;no;150;rightarrow;435;true;focus;yes;290593;Chrome;111.0;Windows;10;undefined;undefined;1504 x 1003;1504 x 1003
H009;22;Vrouwelijk;Rechts;1;58;left;no;150;leftarrow;371;true;focus;yes;291730;Chrome;111.0;Windows;10;undefined;undefined;1504 x 1003;1504 x 1003
H009;22;Vrouwelijk;Rechts;1;59;left;no;150;leftarrow;385;true;focus;yes;292875;Chrome;111.0;Windows;10;undefined;undefined;1504 x 1003;1504 x 1003
H009;22;Vrouwelijk;Rechts;1;60;left;no;150;leftarrow;362;true;focus;yes;294009;Chrome;111.0;Windows;10;undefined;undefined;1504 x 1003;1504 x 1003
H009;22;Vrouwelijk;Rechts;1;61;right;no;150;rightarrow;379;true;focus;yes;295162;Chrome;111.0;Windows;10;undefined;undefined;1504 x 1003;1504 x 1003
H009;22;Vrouwelijk;Rechts;1;62;right;no;150;leftarrow;324;false;focus;yes;296259;Chrome;111.0;Windows;10;undefined;undefined;1504 x 1003;1504 x 1003
H009;22;Vrouwelijk;Rechts;1;63;right;yes;150;undefined;null;true;focus;yes;298287;Chrome;111.0;Windows;10;undefined;undefined;1504 x 1003;1504 x 1003
H009;22;Vrouwelijk;Rechts;1;64;left;yes;200;leftarrow;337;false;focus;yes;299392;Chrome;111.0;Windows;10;undefined;undefined;1504 x 1003;1504 x 1003
H009;22;Vrouwelijk;Rechts;1;65;left;no;150;leftarrow;492;true;focus;yes;300660;Chrome;111.0;Windows;10;undefined;undefined;1504 x 1003;1504 x 1003
H009;22;Vrouwelijk;Rechts;1;66;right;no;150;rightarrow;373;true;focus;yes;301797;Chrome;111.0;Windows;10;undefined;undefined;1504 x 1003;1504 x 1003
H009;22;Vrouwelijk;Rechts;1;67;left;yes;150;leftarrow;372;false;focus;yes;302950;Chrome;111.0;Windows;10;undefined;undefined;1504 x 1003;1504 x 1003
H009;22;Vrouwelijk;Rechts;1;68;right;no;100;rightarrow;394;true;focus;yes;304121;Chrome;111.0;Windows;10;undefined;undefined;1504 x 1003;1504 x 1003
H009;22;Vrouwelijk;Rechts;1;69;right;yes;100;undefined;null;true;focus;yes;306153;Chrome;111.0;Windows;10;undefined;undefined;1504 x 1003;1504 x 1003
H009;22;Vrouwelijk;Rechts;1;70;left;no;150;leftarrow;357;true;focus;yes;307291;Chrome;111.0;Windows;10;undefined;undefined;1504 x 1003;1504 x 1003
H009;22;Vrouwelijk;Rechts;1;71;right;no;150;leftarrow;366;false;focus;yes;308427;Chrome;111.0;Windows;10;undefined;undefined;1504 x 1003;1504 x 1003
H009;22;Vrouwelijk;Rechts;1;72;left;no;150;leftarrow;484;true;focus;yes;309683;Chrome;111.0;Windows;10;undefined;undefined;1504 x 1003;1504 x 1003
H009;22;Vrouwelijk;Rechts;1;73;left;no;150;leftarrow;365;true;focus;yes;310823;Chrome;111.0;Windows;10;undefined;undefined;1504 x 1003;1504 x 1003
H009;22;Vrouwelijk;Rechts;1;74;right;yes;150;rightarrow;370;false;focus;yes;311974;Chrome;111.0;Windows;10;undefined;undefined;1504 x 1003;1504 x 1003
H009;22;Vrouwelijk;Rechts;1;75;left;no;100;leftarrow;371;true;focus;yes;313128;Chrome;111.0;Windows;10;undefined;undefined;1504 x 1003;1504 x 1003
H009;22;Vrouwelijk;Rechts;1;76;left;no;100;leftarrow;409;true;focus;yes;314312;Chrome;111.0;Windows;10;undefined;undefined;1504 x 1003;1504 x 1003
H009;22;Vrouwelijk;Rechts;1;77;left;yes;100;undefined;null;true;focus;yes;316332;Chrome;111.0;Windows;10;undefined;undefined;1504 x 1003;1504 x 1003
H009;22;Vrouwelijk;Rechts;1;78;right;no;150;rightarrow;488;true;focus;yes;317589;Chrome;111.0;Windows;10;undefined;undefined;1504 x 1003;1504 x 1003
H009;22;Vrouwelijk;Rechts;1;79;right;no;150;rightarrow;446;true;focus;yes;318803;Chrome;111.0;Windows;10;undefined;undefined;1504 x 1003;1504 x 1003
H009;22;Vrouwelijk;Rechts;1;80;right;no;150;rightarrow;380;true;focus;yes;319957;Chrome;111.0;Windows;10;undefined;undefined;1504 x 1003;1504 x 1003
H009;22;Vrouwelijk;Rechts;1;81;left;no;150;leftarrow;367;true;focus;yes;321099;Chrome;111.0;Windows;10;undefined;undefined;1504 x 1003;1504 x 1003
H009;22;Vrouwelijk;Rechts;1;82;left;no;150;leftarrow;474;true;focus;yes;322334;Chrome;111.0;Windows;10;undefined;undefined;1504 x 1003;1504 x 1003
H009;22;Vrouwelijk;Rechts;1;83;left;yes;150;undefined;null;true;focus;yes;324358;Chrome;111.0;Windows;10;undefined;undefined;1504 x 1003;1504 x 1003
H009;22;Vrouwelijk;Rechts;1;84;right;no;200;rightarrow;334;true;focus;yes;325460;Chrome;111.0;Windows;10;undefined;undefined;1504 x 1003;1504 x 1003
H009;22;Vrouwelijk;Rechts;1;85;right;no;200;rightarrow;468;true;focus;yes;326711;Chrome;111.0;Windows;10;undefined;undefined;1504 x 1003;1504 x 1003
H009;22;Vrouwelijk;Rechts;1;86;right;yes;200;rightarrow;387;false;focus;yes;327876;Chrome;111.0;Windows;10;undefined;undefined;1504 x 1003;1504 x 1003
H009;22;Vrouwelijk;Rechts;1;87;right;no;150;leftarrow;526;false;focus;yes;329175;Chrome;111.0;Windows;10;undefined;undefined;1504 x 1003;1504 x 1003
H009;22;Vrouwelijk;Rechts;1;88;left;no;150;leftarrow;353;true;focus;yes;330291;Chrome;111.0;Windows;10;undefined;undefined;1504 x 1003;1504 x 1003
H009;22;Vrouwelijk;Rechts;1;89;right;yes;150;rightarrow;393;false;focus;yes;331447;Chrome;111.0;Windows;10;undefined;undefined;1504 x 1003;1504 x 1003
H009;22;Vrouwelijk;Rechts;1;90;left;no;100;leftarrow;336;true;focus;yes;332562;Chrome;111.0;Windows;10;undefined;undefined;1504 x 1003;1504 x 1003
H009;22;Vrouwelijk;Rechts;1;91;right;no;100;rightarrow;349;true;focus;yes;333675;Chrome;111.0;Windows;10;undefined;undefined;1504 x 1003;1504 x 1003
H009;22;Vrouwelijk;Rechts;1;92;left;yes;100;rightarrow;353;false;focus;yes;334797;Chrome;111.0;Windows;10;undefined;undefined;1504 x 1003;1504 x 1003
H009;22;Vrouwelijk;Rechts;1;93;left;no;50;leftarrow;366;true;focus;yes;335932;Chrome;111.0;Windows;10;undefined;undefined;1504 x 1003;1504 x 1003
H009;22;Vrouwelijk;Rechts;1;94;left;no;50;leftarrow;392;true;focus;yes;337097;Chrome;111.0;Windows;10;undefined;undefined;1504 x 1003;1504 x 1003
H009;22;Vrouwelijk;Rechts;1;95;right;no;50;rightarrow;426;true;focus;yes;338284;Chrome;111.0;Windows;10;undefined;undefined;1504 x 1003;1504 x 1003
H009;22;Vrouwelijk;Rechts;1;96;right;no;50;leftarrow;332;false;focus;yes;339389;Chrome;111.0;Windows;10;undefined;undefined;1504 x 1003;1504 x 1003
H009;22;Vrouwelijk;Rechts;1;97;left;no;50;leftarrow;366;true;focus;yes;340524;Chrome;111.0;Windows;10;undefined;undefined;1504 x 1003;1504 x 1003
H009;22;Vrouwelijk;Rechts;1;98;right;no;50;leftarrow;372;false;focus;yes;341659;Chrome;111.0;Windows;10;undefined;undefined;1504 x 1003;1504 x 1003
H009;22;Vrouwelijk;Rechts;1;99;right;no;50;rightarrow;454;true;focus;yes;343143;Chrome;111.0;Windows;10;undefined;undefined;1504 x 1003;1504 x 1003
H009;22;Vrouwelijk;Rechts;1;100;left;no;50;leftarrow;418;true;focus;yes;344323;Chrome;111.0;Windows;10;undefined;undefined;1504 x 1003;1504 x 1003
H009;22;Vrouwelijk;Rechts;1;101;left;yes;50;undefined;null;true;focus;yes;346352;Chrome;111.0;Windows;10;undefined;undefined;1504 x 1003;1504 x 1003
H009;22;Vrouwelijk;Rechts;1;102;left;no;100;leftarrow;372;true;focus;yes;347493;Chrome;111.0;Windows;10;undefined;undefined;1504 x 1003;1504 x 1003
H009;22;Vrouwelijk;Rechts;1;103;right;yes;100;rightarrow;512;false;focus;yes;348770;Chrome;111.0;Windows;10;undefined;undefined;1504 x 1003;1504 x 1003
H009;22;Vrouwelijk;Rechts;1;104;right;no;50;rightarrow;483;true;focus;yes;350019;Chrome;111.0;Windows;10;undefined;undefined;1504 x 1003;1504 x 1003
H009;22;Vrouwelijk;Rechts;1;105;left;no;50;leftarrow;315;true;focus;yes;351104;Chrome;111.0;Windows;10;undefined;undefined;1504 x 1003;1504 x 1003
H009;22;Vrouwelijk;Rechts;1;106;right;no;50;rightarrow;467;true;focus;yes;352340;Chrome;111.0;Windows;10;undefined;undefined;1504 x 1003;1504 x 1003
H009;22;Vrouwelijk;Rechts;1;107;left;yes;50;undefined;null;true;focus;yes;354365;Chrome;111.0;Windows;10;undefined;undefined;1504 x 1003;1504 x 1003
H009;22;Vrouwelijk;Rechts;1;108;left;no;100;leftarrow;351;true;focus;yes;355494;Chrome;111.0;Windows;10;undefined;undefined;1504 x 1003;1504 x 1003
H009;22;Vrouwelijk;Rechts;1;109;right;no;100;rightarrow;396;true;focus;yes;356675;Chrome;111.0;Windows;10;undefined;undefined;1504 x 1003;1504 x 1003
H009;22;Vrouwelijk;Rechts;1;110;left;no;100;leftarrow;357;true;focus;yes;357795;Chrome;111.0;Windows;10;undefined;undefined;1504 x 1003;1504 x 1003
H009;22;Vrouwelijk;Rechts;1;111;right;yes;100;undefined;null;true;focus;yes;359826;Chrome;111.0;Windows;10;undefined;undefined;1504 x 1003;1504 x 1003
H009;22;Vrouwelijk;Rechts;1;112;right;no;150;leftarrow;340;false;focus;yes;360939;Chrome;111.0;Windows;10;undefined;undefined;1504 x 1003;1504 x 1003
H009;22;Vrouwelijk;Rechts;1;113;right;yes;150;undefined;null;true;focus;yes;362966;Chrome;111.0;Windows;10;undefined;undefined;1504 x 1003;1504 x 1003
H009;22;Vrouwelijk;Rechts;1;114;left;yes;200;leftarrow;320;false;focus;yes;364056;Chrome;111.0;Windows;10;undefined;undefined;1504 x 1003;1504 x 1003
H009;22;Vrouwelijk;Rechts;1;115;right;no;150;rightarrow;378;true;focus;yes;365210;Chrome;111.0;Windows;10;undefined;undefined;1504 x 1003;1504 x 1003
H009;22;Vrouwelijk;Rechts;1;116;right;no;150;rightarrow;481;true;focus;yes;366469;Chrome;111.0;Windows;10;undefined;undefined;1504 x 1003;1504 x 1003
H009;22;Vrouwelijk;Rechts;1;117;right;no;150;rightarrow;374;true;focus;yes;367610;Chrome;111.0;Windows;10;undefined;undefined;1504 x 1003;1504 x 1003
H009;22;Vrouwelijk;Rechts;1;118;left;no;150;leftarrow;315;true;focus;yes;368691;Chrome;111.0;Windows;10;undefined;undefined;1504 x 1003;1504 x 1003
H009;22;Vrouwelijk;Rechts;1;119;left;no;150;rightarrow;360;false;focus;yes;369821;Chrome;111.0;Windows;10;undefined;undefined;1504 x 1003;1504 x 1003
H009;22;Vrouwelijk;Rechts;1;120;left;no;150;leftarrow;373;true;focus;yes;370954;Chrome;111.0;Windows;10;undefined;undefined;1504 x 1003;1504 x 1003
H009;22;Vrouwelijk;Rechts;1;121;right;no;150;leftarrow;423;false;focus;yes;372158;Chrome;111.0;Windows;10;undefined;undefined;1504 x 1003;1504 x 1003
H009;22;Vrouwelijk;Rechts;1;122;left;no;150;leftarrow;405;true;focus;yes;373334;Chrome;111.0;Windows;10;undefined;undefined;1504 x 1003;1504 x 1003
H009;22;Vrouwelijk;Rechts;1;123;right;no;150;rightarrow;420;true;focus;yes;374524;Chrome;111.0;Windows;10;undefined;undefined;1504 x 1003;1504 x 1003
H009;22;Vrouwelijk;Rechts;1;124;right;yes;150;undefined;null;true;focus;yes;376561;Chrome;111.0;Windows;10;undefined;undefined;1504 x 1003;1504 x 1003
H009;22;Vrouwelijk;Rechts;1;125;left;no;200;leftarrow;430;true;focus;yes;377757;Chrome;111.0;Windows;10;undefined;undefined;1504 x 1003;1504 x 1003
H009;22;Vrouwelijk;Rechts;1;126;left;yes;200;leftarrow;400;false;focus;yes;378921;Chrome;111.0;Windows;10;undefined;undefined;1504 x 1003;1504 x 1003
H009;22;Vrouwelijk;Rechts;1;127;left;no;150;leftarrow;413;true;focus;yes;380094;Chrome;111.0;Windows;10;undefined;undefined;1504 x 1003;1504 x 1003
H009;22;Vrouwelijk;Rechts;1;128;right;no;150;rightarrow;480;true;focus;yes;381341;Chrome;111.0;Windows;10;undefined;undefined;1504 x 1003;1504 x 1003
H009;22;Vrouwelijk;Rechts;2;1;left;no;150;leftarrow;399;true;focus;yes;402475;Chrome;111.0;Windows;10;undefined;undefined;1504 x 1003;1504 x 1003
H009;22;Vrouwelijk;Rechts;2;2;left;no;150;leftarrow;380;true;focus;yes;403625;Chrome;111.0;Windows;10;undefined;undefined;1504 x 1003;1504 x 1003
H009;22;Vrouwelijk;Rechts;2;3;right;no;150;rightarrow;395;true;focus;yes;404803;Chrome;111.0;Windows;10;undefined;undefined;1504 x 1003;1504 x 1003
H009;22;Vrouwelijk;Rechts;2;4;left;no;150;leftarrow;371;true;focus;yes;405937;Chrome;111.0;Windows;10;undefined;undefined;1504 x 1003;1504 x 1003
H009;22;Vrouwelijk;Rechts;2;5;right;yes;150;rightarrow;379;false;focus;yes;407098;Chrome;111.0;Windows;10;undefined;undefined;1504 x 1003;1504 x 1003
H009;22;Vrouwelijk;Rechts;2;6;left;yes;100;leftarrow;332;false;focus;yes;408197;Chrome;111.0;Windows;10;undefined;undefined;1504 x 1003;1504 x 1003
H009;22;Vrouwelijk;Rechts;2;7;right;no;50;rightarrow;316;true;focus;yes;409272;Chrome;111.0;Windows;10;undefined;undefined;1504 x 1003;1504 x 1003
H009;22;Vrouwelijk;Rechts;2;8;right;no;50;leftarrow;343;false;focus;yes;410387;Chrome;111.0;Windows;10;undefined;undefined;1504 x 1003;1504 x 1003
H009;22;Vrouwelijk;Rechts;2;9;left;yes;50;leftarrow;474;false;focus;yes;411634;Chrome;111.0;Windows;10;undefined;undefined;1504 x 1003;1504 x 1003
H009;22;Vrouwelijk;Rechts;2;10;right;no;50;rightarrow;449;true;focus;yes;412850;Chrome;111.0;Windows;10;undefined;undefined;1504 x 1003;1504 x 1003
H009;22;Vrouwelijk;Rechts;2;11;left;no;50;leftarrow;483;true;focus;yes;414105;Chrome;111.0;Windows;10;undefined;undefined;1504 x 1003;1504 x 1003
H009;22;Vrouwelijk;Rechts;2;12;right;no;50;rightarrow;401;true;focus;yes;415278;Chrome;111.0;Windows;10;undefined;undefined;1504 x 1003;1504 x 1003
H009;22;Vrouwelijk;Rechts;2;13;right;no;50;rightarrow;477;true;focus;yes;416524;Chrome;111.0;Windows;10;undefined;undefined;1504 x 1003;1504 x 1003
H009;22;Vrouwelijk;Rechts;2;14;left;no;50;leftarrow;507;true;focus;yes;417808;Chrome;111.0;Windows;10;undefined;undefined;1504 x 1003;1504 x 1003
H009;22;Vrouwelijk;Rechts;2;15;right;yes;50;undefined;null;true;focus;yes;419832;Chrome;111.0;Windows;10;undefined;undefined;1504 x 1003;1504 x 1003
H009;22;Vrouwelijk;Rechts;2;16;left;no;100;leftarrow;323;true;focus;yes;420931;Chrome;111.0;Windows;10;undefined;undefined;1504 x 1003;1504 x 1003
H009;22;Vrouwelijk;Rechts;2;17;right;no;100;rightarrow;401;true;focus;yes;422106;Chrome;111.0;Windows;10;undefined;undefined;1504 x 1003;1504 x 1003
H009;22;Vrouwelijk;Rechts;2;18;right;no;100;rightarrow;479;true;focus;yes;423353;Chrome;111.0;Windows;10;undefined;undefined;1504 x 1003;1504 x 1003
H009;22;Vrouwelijk;Rechts;2;19;left;no;100;leftarrow;382;true;focus;yes;424494;Chrome;111.0;Windows;10;undefined;undefined;1504 x 1003;1504 x 1003
H009;22;Vrouwelijk;Rechts;2;20;left;yes;100;undefined;null;true;focus;yes;426536;Chrome;111.0;Windows;10;undefined;undefined;1504 x 1003;1504 x 1003
H009;22;Vrouwelijk;Rechts;2;21;left;no;150;leftarrow;380;true;focus;yes;427691;Chrome;111.0;Windows;10;undefined;undefined;1504 x 1003;1504 x 1003
H009;22;Vrouwelijk;Rechts;2;22;right;no;150;rightarrow;374;true;focus;yes;428830;Chrome;111.0;Windows;10;undefined;undefined;1504 x 1003;1504 x 1003
H009;22;Vrouwelijk;Rechts;2;23;right;yes;150;rightarrow;466;false;focus;yes;430063;Chrome;111.0;Windows;10;undefined;undefined;1504 x 1003;1504 x 1003
H009;22;Vrouwelijk;Rechts;2;24;left;no;100;leftarrow;375;true;focus;yes;431218;Chrome;111.0;Windows;10;undefined;undefined;1504 x 1003;1504 x 1003
H009;22;Vrouwelijk;Rechts;2;25;right;no;100;rightarrow;457;true;focus;yes;432447;Chrome;111.0;Windows;10;undefined;undefined;1504 x 1003;1504 x 1003
H009;22;Vrouwelijk;Rechts;2;26;left;no;100;leftarrow;372;true;focus;yes;433590;Chrome;111.0;Windows;10;undefined;undefined;1504 x 1003;1504 x 1003
H009;22;Vrouwelijk;Rechts;2;27;left;no;100;leftarrow;449;true;focus;yes;434806;Chrome;111.0;Windows;10;undefined;undefined;1504 x 1003;1504 x 1003
H009;22;Vrouwelijk;Rechts;2;28;left;yes;100;undefined;null;true;focus;yes;436837;Chrome;111.0;Windows;10;undefined;undefined;1504 x 1003;1504 x 1003
H009;22;Vrouwelijk;Rechts;2;29;left;no;150;leftarrow;354;true;focus;yes;437967;Chrome;111.0;Windows;10;undefined;undefined;1504 x 1003;1504 x 1003
H009;22;Vrouwelijk;Rechts;2;30;right;yes;150;rightarrow;438;false;focus;yes;439179;Chrome;111.0;Windows;10;undefined;undefined;1504 x 1003;1504 x 1003
H009;22;Vrouwelijk;Rechts;2;31;right;no;100;rightarrow;525;true;focus;yes;440476;Chrome;111.0;Windows;10;undefined;undefined;1504 x 1003;1504 x 1003
H009;22;Vrouwelijk;Rechts;2;32;right;no;100;rightarrow;489;true;focus;yes;441730;Chrome;111.0;Windows;10;undefined;undefined;1504 x 1003;1504 x 1003
H009;22;Vrouwelijk;Rechts;2;33;left;no;100;leftarrow;402;true;focus;yes;442910;Chrome;111.0;Windows;10;undefined;undefined;1504 x 1003;1504 x 1003
H009;22;Vrouwelijk;Rechts;2;34;right;no;100;rightarrow;474;true;focus;yes;444148;Chrome;111.0;Windows;10;undefined;undefined;1504 x 1003;1504 x 1003
H009;22;Vrouwelijk;Rechts;2;35;left;no;100;leftarrow;405;true;focus;yes;445314;Chrome;111.0;Windows;10;undefined;undefined;1504 x 1003;1504 x 1003
H009;22;Vrouwelijk;Rechts;2;36;right;no;100;rightarrow;402;true;focus;yes;446492;Chrome;111.0;Windows;10;undefined;undefined;1504 x 1003;1504 x 1003
H009;22;Vrouwelijk;Rechts;2;37;left;yes;100;leftarrow;306;false;focus;yes;447581;Chrome;111.0;Windows;10;undefined;undefined;1504 x 1003;1504 x 1003
H009;22;Vrouwelijk;Rechts;2;38;right;yes;50;undefined;null;true;focus;yes;449620;Chrome;111.0;Windows;10;undefined;undefined;1504 x 1003;1504 x 1003
H009;22;Vrouwelijk;Rechts;2;39;right;no;100;leftarrow;338;false;focus;yes;450732;Chrome;111.0;Windows;10;undefined;undefined;1504 x 1003;1504 x 1003
H009;22;Vrouwelijk;Rechts;2;40;left;no;100;leftarrow;477;true;focus;yes;451984;Chrome;111.0;Windows;10;undefined;undefined;1504 x 1003;1504 x 1003
H009;22;Vrouwelijk;Rechts;2;41;right;no;100;rightarrow;392;true;focus;yes;453146;Chrome;111.0;Windows;10;undefined;undefined;1504 x 1003;1504 x 1003
H009;22;Vrouwelijk;Rechts;2;42;right;no;100;rightarrow;486;true;focus;yes;454394;Chrome;111.0;Windows;10;undefined;undefined;1504 x 1003;1504 x 1003
H009;22;Vrouwelijk;Rechts;2;43;left;no;100;leftarrow;591;true;focus;yes;455765;Chrome;111.0;Windows;10;undefined;undefined;1504 x 1003;1504 x 1003
H009;22;Vrouwelijk;Rechts;2;44;right;no;100;rightarrow;475;true;focus;yes;457006;Chrome;111.0;Windows;10;undefined;undefined;1504 x 1003;1504 x 1003
H009;22;Vrouwelijk;Rechts;2;45;left;no;100;leftarrow;321;true;focus;yes;458098;Chrome;111.0;Windows;10;undefined;undefined;1504 x 1003;1504 x 1003
H009;22;Vrouwelijk;Rechts;2;46;left;no;100;rightarrow;333;false;focus;yes;459212;Chrome;111.0;Windows;10;undefined;undefined;1504 x 1003;1504 x 1003
H009;22;Vrouwelijk;Rechts;2;47;left;yes;100;leftarrow;338;false;focus;yes;460316;Chrome;111.0;Windows;10;undefined;undefined;1504 x 1003;1504 x 1003
H009;22;Vrouwelijk;Rechts;2;48;right;yes;50;undefined;null;true;focus;yes;462341;Chrome;111.0;Windows;10;undefined;undefined;1504 x 1003;1504 x 1003
H009;22;Vrouwelijk;Rechts;2;49;left;no;100;leftarrow;367;true;focus;yes;463474;Chrome;111.0;Windows;10;undefined;undefined;1504 x 1003;1504 x 1003
H009;22;Vrouwelijk;Rechts;2;50;right;yes;100;undefined;null;true;focus;yes;465501;Chrome;111.0;Windows;10;undefined;undefined;1504 x 1003;1504 x 1003
H009;22;Vrouwelijk;Rechts;2;51;left;yes;150;leftarrow;357;false;focus;yes;466640;Chrome;111.0;Windows;10;undefined;undefined;1504 x 1003;1504 x 1003
H009;22;Vrouwelijk;Rechts;2;52;left;no;100;leftarrow;475;true;focus;yes;467881;Chrome;111.0;Windows;10;undefined;undefined;1504 x 1003;1504 x 1003
H009;22;Vrouwelijk;Rechts;2;53;right;no;100;rightarrow;523;true;focus;yes;469181;Chrome;111.0;Windows;10;undefined;undefined;1504 x 1003;1504 x 1003
H009;22;Vrouwelijk;Rechts;2;54;right;no;100;rightarrow;509;true;focus;yes;470452;Chrome;111.0;Windows;10;undefined;undefined;1504 x 1003;1504 x 1003
H009;22;Vrouwelijk;Rechts;2;55;right;no;100;leftarrow;424;false;focus;yes;471645;Chrome;111.0;Windows;10;undefined;undefined;1504 x 1003;1504 x 1003
H009;22;Vrouwelijk;Rechts;2;56;left;no;100;leftarrow;431;true;focus;yes;472851;Chrome;111.0;Windows;10;undefined;undefined;1504 x 1003;1504 x 1003
H009;22;Vrouwelijk;Rechts;2;57;left;no;100;leftarrow;369;true;focus;yes;473992;Chrome;111.0;Windows;10;undefined;undefined;1504 x 1003;1504 x 1003
H009;22;Vrouwelijk;Rechts;2;58;left;yes;100;undefined;null;true;focus;yes;476043;Chrome;111.0;Windows;10;undefined;undefined;1504 x 1003;1504 x 1003
H009;22;Vrouwelijk;Rechts;2;59;right;no;150;rightarrow;368;true;focus;yes;477179;Chrome;111.0;Windows;10;undefined;undefined;1504 x 1003;1504 x 1003
H009;22;Vrouwelijk;Rechts;2;60;left;no;150;leftarrow;395;true;focus;yes;478349;Chrome;111.0;Windows;10;undefined;undefined;1504 x 1003;1504 x 1003
H009;22;Vrouwelijk;Rechts;2;61;right;no;150;rightarrow;393;true;focus;yes;479505;Chrome;111.0;Windows;10;undefined;undefined;1504 x 1003;1504 x 1003
H009;22;Vrouwelijk;Rechts;2;62;left;no;150;leftarrow;353;true;focus;yes;480622;Chrome;111.0;Windows;10;undefined;undefined;1504 x 1003;1504 x 1003
H009;22;Vrouwelijk;Rechts;2;63;right;no;150;rightarrow;379;true;focus;yes;481779;Chrome;111.0;Windows;10;undefined;undefined;1504 x 1003;1504 x 1003
H009;22;Vrouwelijk;Rechts;2;64;right;yes;150;undefined;null;true;focus;yes;483818;Chrome;111.0;Windows;10;undefined;undefined;1504 x 1003;1504 x 1003
H009;22;Vrouwelijk;Rechts;2;65;left;yes;200;leftarrow;278;false;focus;yes;484876;Chrome;111.0;Windows;10;undefined;undefined;1504 x 1003;1504 x 1003
H009;22;Vrouwelijk;Rechts;2;66;left;no;150;leftarrow;571;true;focus;yes;486223;Chrome;111.0;Windows;10;undefined;undefined;1504 x 1003;1504 x 1003
H009;22;Vrouwelijk;Rechts;2;67;left;no;150;leftarrow;466;true;focus;yes;487456;Chrome;111.0;Windows;10;undefined;undefined;1504 x 1003;1504 x 1003
H009;22;Vrouwelijk;Rechts;2;68;right;yes;150;rightarrow;422;false;focus;yes;488655;Chrome;111.0;Windows;10;undefined;undefined;1504 x 1003;1504 x 1003
H009;22;Vrouwelijk;Rechts;2;69;left;no;100;leftarrow;285;true;focus;yes;489710;Chrome;111.0;Windows;10;undefined;undefined;1504 x 1003;1504 x 1003
H009;22;Vrouwelijk;Rechts;2;70;right;no;100;rightarrow;449;true;focus;yes;490923;Chrome;111.0;Windows;10;undefined;undefined;1504 x 1003;1504 x 1003
H009;22;Vrouwelijk;Rechts;2;71;right;no;100;leftarrow;300;false;focus;yes;491990;Chrome;111.0;Windows;10;undefined;undefined;1504 x 1003;1504 x 1003
H009;22;Vrouwelijk;Rechts;2;72;right;no;100;rightarrow;551;true;focus;yes;493308;Chrome;111.0;Windows;10;undefined;undefined;1504 x 1003;1504 x 1003
H009;22;Vrouwelijk;Rechts;2;73;left;no;100;leftarrow;354;true;focus;yes;494434;Chrome;111.0;Windows;10;undefined;undefined;1504 x 1003;1504 x 1003
H009;22;Vrouwelijk;Rechts;2;74;left;yes;100;leftarrow;446;false;focus;yes;495646;Chrome;111.0;Windows;10;undefined;undefined;1504 x 1003;1504 x 1003
H009;22;Vrouwelijk;Rechts;2;75;left;no;50;leftarrow;515;true;focus;yes;496944;Chrome;111.0;Windows;10;undefined;undefined;1504 x 1003;1504 x 1003
H009;22;Vrouwelijk;Rechts;2;76;right;yes;50;undefined;null;true;focus;yes;498982;Chrome;111.0;Windows;10;undefined;undefined;1504 x 1003;1504 x 1003
H009;22;Vrouwelijk;Rechts;2;77;right;no;100;rightarrow;443;true;focus;yes;500198;Chrome;111.0;Windows;10;undefined;undefined;1504 x 1003;1504 x 1003
H009;22;Vrouwelijk;Rechts;2;78;left;no;100;leftarrow;411;true;focus;yes;501378;Chrome;111.0;Windows;10;undefined;undefined;1504 x 1003;1504 x 1003
H009;22;Vrouwelijk;Rechts;2;79;right;no;100;rightarrow;469;true;focus;yes;502610;Chrome;111.0;Windows;10;undefined;undefined;1504 x 1003;1504 x 1003
H009;22;Vrouwelijk;Rechts;2;80;right;no;100;rightarrow;429;true;focus;yes;503820;Chrome;111.0;Windows;10;undefined;undefined;1504 x 1003;1504 x 1003
H009;22;Vrouwelijk;Rechts;2;81;right;no;100;rightarrow;432;true;focus;yes;505034;Chrome;111.0;Windows;10;undefined;undefined;1504 x 1003;1504 x 1003
H009;22;Vrouwelijk;Rechts;2;82;right;no;100;rightarrow;418;true;focus;yes;506217;Chrome;111.0;Windows;10;undefined;undefined;1504 x 1003;1504 x 1003
H009;22;Vrouwelijk;Rechts;2;83;left;no;100;leftarrow;414;true;focus;yes;507404;Chrome;111.0;Windows;10;undefined;undefined;1504 x 1003;1504 x 1003
H009;22;Vrouwelijk;Rechts;2;84;left;no;100;leftarrow;450;true;focus;yes;508621;Chrome;111.0;Windows;10;undefined;undefined;1504 x 1003;1504 x 1003
H009;22;Vrouwelijk;Rechts;2;85;left;no;100;leftarrow;468;true;focus;yes;509865;Chrome;111.0;Windows;10;undefined;undefined;1504 x 1003;1504 x 1003
H009;22;Vrouwelijk;Rechts;2;86;left;yes;100;undefined;null;true;focus;yes;511894;Chrome;111.0;Windows;10;undefined;undefined;1504 x 1003;1504 x 1003
H009;22;Vrouwelijk;Rechts;2;87;right;yes;150;rightarrow;367;false;focus;yes;513033;Chrome;111.0;Windows;10;undefined;undefined;1504 x 1003;1504 x 1003
H009;22;Vrouwelijk;Rechts;2;88;right;no;100;leftarrow;299;false;focus;yes;514091;Chrome;111.0;Windows;10;undefined;undefined;1504 x 1003;1504 x 1003
H009;22;Vrouwelijk;Rechts;2;89;left;no;100;leftarrow;415;true;focus;yes;515271;Chrome;111.0;Windows;10;undefined;undefined;1504 x 1003;1504 x 1003
H009;22;Vrouwelijk;Rechts;2;90;right;no;100;rightarrow;476;true;focus;yes;516519;Chrome;111.0;Windows;10;undefined;undefined;1504 x 1003;1504 x 1003
H009;22;Vrouwelijk;Rechts;2;91;left;yes;100;leftarrow;397;false;focus;yes;517688;Chrome;111.0;Windows;10;undefined;undefined;1504 x 1003;1504 x 1003
H009;22;Vrouwelijk;Rechts;2;92;right;no;50;rightarrow;335;true;focus;yes;518809;Chrome;111.0;Windows;10;undefined;undefined;1504 x 1003;1504 x 1003
H009;22;Vrouwelijk;Rechts;2;93;left;no;50;leftarrow;403;true;focus;yes;519993;Chrome;111.0;Windows;10;undefined;undefined;1504 x 1003;1504 x 1003
H009;22;Vrouwelijk;Rechts;2;94;right;yes;50;undefined;null;true;focus;yes;522014;Chrome;111.0;Windows;10;undefined;undefined;1504 x 1003;1504 x 1003
H009;22;Vrouwelijk;Rechts;2;95;right;no;100;rightarrow;384;true;focus;yes;523184;Chrome;111.0;Windows;10;undefined;undefined;1504 x 1003;1504 x 1003
H009;22;Vrouwelijk;Rechts;2;96;left;no;100;leftarrow;475;true;focus;yes;524431;Chrome;111.0;Windows;10;undefined;undefined;1504 x 1003;1504 x 1003
H009;22;Vrouwelijk;Rechts;2;97;right;no;100;rightarrow;490;true;focus;yes;525696;Chrome;111.0;Windows;10;undefined;undefined;1504 x 1003;1504 x 1003
H009;22;Vrouwelijk;Rechts;2;98;right;yes;100;undefined;null;true;focus;yes;527725;Chrome;111.0;Windows;10;undefined;undefined;1504 x 1003;1504 x 1003
H009;22;Vrouwelijk;Rechts;2;99;right;no;150;rightarrow;559;true;focus;yes;529063;Chrome;111.0;Windows;10;undefined;undefined;1504 x 1003;1504 x 1003
H009;22;Vrouwelijk;Rechts;2;100;left;yes;150;leftarrow;384;false;focus;yes;530224;Chrome;111.0;Windows;10;undefined;undefined;1504 x 1003;1504 x 1003
H009;22;Vrouwelijk;Rechts;2;101;left;no;100;leftarrow;698;true;focus;yes;531703;Chrome;111.0;Windows;10;undefined;undefined;1504 x 1003;1504 x 1003
H009;22;Vrouwelijk;Rechts;2;102;left;no;100;leftarrow;456;true;focus;yes;532930;Chrome;111.0;Windows;10;undefined;undefined;1504 x 1003;1504 x 1003
H009;22;Vrouwelijk;Rechts;2;103;right;no;100;rightarrow;462;true;focus;yes;534150;Chrome;111.0;Windows;10;undefined;undefined;1504 x 1003;1504 x 1003
H009;22;Vrouwelijk;Rechts;2;104;left;no;100;leftarrow;356;true;focus;yes;535274;Chrome;111.0;Windows;10;undefined;undefined;1504 x 1003;1504 x 1003
H009;22;Vrouwelijk;Rechts;2;105;right;no;100;rightarrow;415;true;focus;yes;536456;Chrome;111.0;Windows;10;undefined;undefined;1504 x 1003;1504 x 1003
H009;22;Vrouwelijk;Rechts;2;106;left;no;100;leftarrow;457;true;focus;yes;537686;Chrome;111.0;Windows;10;undefined;undefined;1504 x 1003;1504 x 1003
H009;22;Vrouwelijk;Rechts;2;107;left;no;100;leftarrow;554;true;focus;yes;539008;Chrome;111.0;Windows;10;undefined;undefined;1504 x 1003;1504 x 1003
H009;22;Vrouwelijk;Rechts;2;108;left;no;100;leftarrow;440;true;focus;yes;540216;Chrome;111.0;Windows;10;undefined;undefined;1504 x 1003;1504 x 1003
H009;22;Vrouwelijk;Rechts;2;109;right;no;100;rightarrow;504;true;focus;yes;541492;Chrome;111.0;Windows;10;undefined;undefined;1504 x 1003;1504 x 1003
H009;22;Vrouwelijk;Rechts;2;110;left;yes;100;leftarrow;400;false;focus;yes;542654;Chrome;111.0;Windows;10;undefined;undefined;1504 x 1003;1504 x 1003
H009;22;Vrouwelijk;Rechts;2;111;right;no;50;rightarrow;421;true;focus;yes;543852;Chrome;111.0;Windows;10;undefined;undefined;1504 x 1003;1504 x 1003
H009;22;Vrouwelijk;Rechts;2;112;right;yes;50;undefined;null;true;focus;yes;545884;Chrome;111.0;Windows;10;undefined;undefined;1504 x 1003;1504 x 1003
H009;22;Vrouwelijk;Rechts;2;113;left;no;100;leftarrow;375;true;focus;yes;547034;Chrome;111.0;Windows;10;undefined;undefined;1504 x 1003;1504 x 1003
H009;22;Vrouwelijk;Rechts;2;114;right;no;100;rightarrow;358;true;focus;yes;548167;Chrome;111.0;Windows;10;undefined;undefined;1504 x 1003;1504 x 1003
H009;22;Vrouwelijk;Rechts;2;115;right;yes;100;leftarrow;356;false;focus;yes;549296;Chrome;111.0;Windows;10;undefined;undefined;1504 x 1003;1504 x 1003
H009;22;Vrouwelijk;Rechts;2;116;right;no;50;rightarrow;705;true;focus;yes;550774;Chrome;111.0;Windows;10;undefined;undefined;1504 x 1003;1504 x 1003
H009;22;Vrouwelijk;Rechts;2;117;right;no;50;leftarrow;391;false;focus;yes;551933;Chrome;111.0;Windows;10;undefined;undefined;1504 x 1003;1504 x 1003
H009;22;Vrouwelijk;Rechts;2;118;left;no;50;leftarrow;467;true;focus;yes;553174;Chrome;111.0;Windows;10;undefined;undefined;1504 x 1003;1504 x 1003
H009;22;Vrouwelijk;Rechts;2;119;left;no;50;leftarrow;392;true;focus;yes;554340;Chrome;111.0;Windows;10;undefined;undefined;1504 x 1003;1504 x 1003
H009;22;Vrouwelijk;Rechts;2;120;left;yes;50;undefined;null;true;focus;yes;556367;Chrome;111.0;Windows;10;undefined;undefined;1504 x 1003;1504 x 1003
H009;22;Vrouwelijk;Rechts;2;121;right;no;100;rightarrow;404;true;focus;yes;557540;Chrome;111.0;Windows;10;undefined;undefined;1504 x 1003;1504 x 1003
H009;22;Vrouwelijk;Rechts;2;122;right;no;100;rightarrow;423;true;focus;yes;558730;Chrome;111.0;Windows;10;undefined;undefined;1504 x 1003;1504 x 1003
H009;22;Vrouwelijk;Rechts;2;123;right;no;100;rightarrow;519;true;focus;yes;560027;Chrome;111.0;Windows;10;undefined;undefined;1504 x 1003;1504 x 1003
H009;22;Vrouwelijk;Rechts;2;124;left;yes;100;undefined;null;true;focus;yes;562068;Chrome;111.0;Windows;10;undefined;undefined;1504 x 1003;1504 x 1003
H009;22;Vrouwelijk;Rechts;2;125;left;no;150;leftarrow;473;true;focus;yes;563311;Chrome;111.0;Windows;10;undefined;undefined;1504 x 1003;1504 x 1003
H009;22;Vrouwelijk;Rechts;2;126;left;no;150;leftarrow;425;true;focus;yes;564511;Chrome;111.0;Windows;10;undefined;undefined;1504 x 1003;1504 x 1003
H009;22;Vrouwelijk;Rechts;2;127;left;no;150;leftarrow;383;true;focus;yes;565660;Chrome;111.0;Windows;10;undefined;undefined;1504 x 1003;1504 x 1003
H009;22;Vrouwelijk;Rechts;2;128;right;yes;150;rightarrow;535;false;focus;yes;566975;Chrome;111.0;Windows;10;undefined;undefined;1504 x 1003;1504 x 1003
H009;22;Vrouwelijk;Rechts;3;1;right;no;100;rightarrow;452;true;focus;yes;592745;Chrome;111.0;Windows;10;undefined;undefined;1504 x 1003;1504 x 1003
H009;22;Vrouwelijk;Rechts;3;2;left;no;100;leftarrow;397;true;focus;yes;593916;Chrome;111.0;Windows;10;undefined;undefined;1504 x 1003;1504 x 1003
H009;22;Vrouwelijk;Rechts;3;3;right;no;100;rightarrow;414;true;focus;yes;595107;Chrome;111.0;Windows;10;undefined;undefined;1504 x 1003;1504 x 1003
H009;22;Vrouwelijk;Rechts;3;4;right;yes;100;undefined;null;true;focus;yes;597145;Chrome;111.0;Windows;10;undefined;undefined;1504 x 1003;1504 x 1003
H009;22;Vrouwelijk;Rechts;3;5;left;yes;150;leftarrow;364;false;focus;yes;598285;Chrome;111.0;Windows;10;undefined;undefined;1504 x 1003;1504 x 1003
H009;22;Vrouwelijk;Rechts;3;6;left;no;100;leftarrow;518;true;focus;yes;599577;Chrome;111.0;Windows;10;undefined;undefined;1504 x 1003;1504 x 1003
H009;22;Vrouwelijk;Rechts;3;7;right;no;100;rightarrow;434;true;focus;yes;600788;Chrome;111.0;Windows;10;undefined;undefined;1504 x 1003;1504 x 1003
H009;22;Vrouwelijk;Rechts;3;8;left;no;100;leftarrow;402;true;focus;yes;601955;Chrome;111.0;Windows;10;undefined;undefined;1504 x 1003;1504 x 1003
H009;22;Vrouwelijk;Rechts;3;9;right;yes;100;rightarrow;387;false;focus;yes;603130;Chrome;111.0;Windows;10;undefined;undefined;1504 x 1003;1504 x 1003
H009;22;Vrouwelijk;Rechts;3;10;left;yes;50;undefined;null;true;focus;yes;605167;Chrome;111.0;Windows;10;undefined;undefined;1504 x 1003;1504 x 1003
H009;22;Vrouwelijk;Rechts;3;11;left;no;100;leftarrow;457;true;focus;yes;606390;Chrome;111.0;Windows;10;undefined;undefined;1504 x 1003;1504 x 1003
H009;22;Vrouwelijk;Rechts;3;12;right;no;100;rightarrow;399;true;focus;yes;607557;Chrome;111.0;Windows;10;undefined;undefined;1504 x 1003;1504 x 1003
H009;22;Vrouwelijk;Rechts;3;13;left;no;100;leftarrow;378;true;focus;yes;608713;Chrome;111.0;Windows;10;undefined;undefined;1504 x 1003;1504 x 1003
H009;22;Vrouwelijk;Rechts;3;14;left;no;100;leftarrow;432;true;focus;yes;609914;Chrome;111.0;Windows;10;undefined;undefined;1504 x 1003;1504 x 1003
H009;22;Vrouwelijk;Rechts;3;15;right;no;100;leftarrow;389;false;focus;yes;611080;Chrome;111.0;Windows;10;undefined;undefined;1504 x 1003;1504 x 1003
H009;22;Vrouwelijk;Rechts;3;16;right;no;100;rightarrow;430;true;focus;yes;612272;Chrome;111.0;Windows;10;undefined;undefined;1504 x 1003;1504 x 1003
H009;22;Vrouwelijk;Rechts;3;17;left;yes;100;leftarrow;401;false;focus;yes;613446;Chrome;111.0;Windows;10;undefined;undefined;1504 x 1003;1504 x 1003
H009;22;Vrouwelijk;Rechts;3;18;right;no;50;rightarrow;347;true;focus;yes;614575;Chrome;111.0;Windows;10;undefined;undefined;1504 x 1003;1504 x 1003
H009;22;Vrouwelijk;Rechts;3;19;left;no;50;leftarrow;505;true;focus;yes;615857;Chrome;111.0;Windows;10;undefined;undefined;1504 x 1003;1504 x 1003
H009;22;Vrouwelijk;Rechts;3;20;left;no;50;leftarrow;384;true;focus;yes;617006;Chrome;111.0;Windows;10;undefined;undefined;1504 x 1003;1504 x 1003
H009;22;Vrouwelijk;Rechts;3;21;right;no;50;rightarrow;515;true;focus;yes;618296;Chrome;111.0;Windows;10;undefined;undefined;1504 x 1003;1504 x 1003
H009;22;Vrouwelijk;Rechts;3;22;right;yes;50;undefined;null;true;focus;yes;620327;Chrome;111.0;Windows;10;undefined;undefined;1504 x 1003;1504 x 1003
H009;22;Vrouwelijk;Rechts;3;23;right;no;100;leftarrow;345;false;focus;yes;621455;Chrome;111.0;Windows;10;undefined;undefined;1504 x 1003;1504 x 1003
H009;22;Vrouwelijk;Rechts;3;24;left;no;100;leftarrow;400;true;focus;yes;622640;Chrome;111.0;Windows;10;undefined;undefined;1504 x 1003;1504 x 1003
H009;22;Vrouwelijk;Rechts;3;25;left;no;100;leftarrow;464;true;focus;yes;623888;Chrome;111.0;Windows;10;undefined;undefined;1504 x 1003;1504 x 1003
H009;22;Vrouwelijk;Rechts;3;26;left;no;100;leftarrow;424;true;focus;yes;625080;Chrome;111.0;Windows;10;undefined;undefined;1504 x 1003;1504 x 1003
H009;22;Vrouwelijk;Rechts;3;27;left;no;100;leftarrow;386;true;focus;yes;626245;Chrome;111.0;Windows;10;undefined;undefined;1504 x 1003;1504 x 1003
H009;22;Vrouwelijk;Rechts;3;28;right;no;100;rightarrow;506;true;focus;yes;627529;Chrome;111.0;Windows;10;undefined;undefined;1504 x 1003;1504 x 1003
H009;22;Vrouwelijk;Rechts;3;29;right;no;100;rightarrow;432;true;focus;yes;628723;Chrome;111.0;Windows;10;undefined;undefined;1504 x 1003;1504 x 1003
H009;22;Vrouwelijk;Rechts;3;30;right;yes;100;undefined;null;true;focus;yes;630772;Chrome;111.0;Windows;10;undefined;undefined;1504 x 1003;1504 x 1003
H009;22;Vrouwelijk;Rechts;3;31;left;yes;150;leftarrow;395;false;focus;yes;631937;Chrome;111.0;Windows;10;undefined;undefined;1504 x 1003;1504 x 1003
H009;22;Vrouwelijk;Rechts;3;32;right;no;100;rightarrow;412;true;focus;yes;633121;Chrome;111.0;Windows;10;undefined;undefined;1504 x 1003;1504 x 1003
H009;22;Vrouwelijk;Rechts;3;33;left;yes;100;leftarrow;384;false;focus;yes;634291;Chrome;111.0;Windows;10;undefined;undefined;1504 x 1003;1504 x 1003
H009;22;Vrouwelijk;Rechts;3;34;left;no;50;leftarrow;585;true;focus;yes;635646;Chrome;111.0;Windows;10;undefined;undefined;1504 x 1003;1504 x 1003
H009;22;Vrouwelijk;Rechts;3;35;left;no;50;leftarrow;447;true;focus;yes;636873;Chrome;111.0;Windows;10;undefined;undefined;1504 x 1003;1504 x 1003
H009;22;Vrouwelijk;Rechts;3;36;right;yes;50;undefined;null;true;focus;yes;638903;Chrome;111.0;Windows;10;undefined;undefined;1504 x 1003;1504 x 1003
H009;22;Vrouwelijk;Rechts;3;37;left;no;100;leftarrow;381;true;focus;yes;640053;Chrome;111.0;Windows;10;undefined;undefined;1504 x 1003;1504 x 1003
H009;22;Vrouwelijk;Rechts;3;38;right;no;100;rightarrow;518;true;focus;yes;641337;Chrome;111.0;Windows;10;undefined;undefined;1504 x 1003;1504 x 1003
H009;22;Vrouwelijk;Rechts;3;39;right;no;100;rightarrow;501;true;focus;yes;642625;Chrome;111.0;Windows;10;undefined;undefined;1504 x 1003;1504 x 1003
H009;22;Vrouwelijk;Rechts;3;40;right;no;100;rightarrow;485;true;focus;yes;643891;Chrome;111.0;Windows;10;undefined;undefined;1504 x 1003;1504 x 1003
H009;22;Vrouwelijk;Rechts;3;41;right;yes;100;undefined;null;true;focus;yes;645942;Chrome;111.0;Windows;10;undefined;undefined;1504 x 1003;1504 x 1003
H009;22;Vrouwelijk;Rechts;3;42;right;no;150;leftarrow;301;false;focus;yes;647026;Chrome;111.0;Windows;10;undefined;undefined;1504 x 1003;1504 x 1003
H009;22;Vrouwelijk;Rechts;3;43;left;no;150;leftarrow;470;true;focus;yes;648265;Chrome;111.0;Windows;10;undefined;undefined;1504 x 1003;1504 x 1003
H009;22;Vrouwelijk;Rechts;3;44;right;no;150;rightarrow;413;true;focus;yes;649457;Chrome;111.0;Windows;10;undefined;undefined;1504 x 1003;1504 x 1003
H009;22;Vrouwelijk;Rechts;3;45;right;no;150;rightarrow;509;true;focus;yes;650738;Chrome;111.0;Windows;10;undefined;undefined;1504 x 1003;1504 x 1003
H009;22;Vrouwelijk;Rechts;3;46;left;yes;150;undefined;null;true;focus;yes;652773;Chrome;111.0;Windows;10;undefined;undefined;1504 x 1003;1504 x 1003
H009;22;Vrouwelijk;Rechts;3;47;left;no;200;leftarrow;472;true;focus;yes;654030;Chrome;111.0;Windows;10;undefined;undefined;1504 x 1003;1504 x 1003
H009;22;Vrouwelijk;Rechts;3;48;left;no;200;leftarrow;445;true;focus;yes;655251;Chrome;111.0;Windows;10;undefined;undefined;1504 x 1003;1504 x 1003
H009;22;Vrouwelijk;Rechts;3;49;right;no;200;rightarrow;505;true;focus;yes;656528;Chrome;111.0;Windows;10;undefined;undefined;1504 x 1003;1504 x 1003
H009;22;Vrouwelijk;Rechts;3;50;right;yes;200;rightarrow;484;false;focus;yes;657782;Chrome;111.0;Windows;10;undefined;undefined;1504 x 1003;1504 x 1003
H009;22;Vrouwelijk;Rechts;3;51;left;no;150;leftarrow;373;true;focus;yes;658929;Chrome;111.0;Windows;10;undefined;undefined;1504 x 1003;1504 x 1003
H009;22;Vrouwelijk;Rechts;3;52;right;no;150;rightarrow;501;true;focus;yes;660208;Chrome;111.0;Windows;10;undefined;undefined;1504 x 1003;1504 x 1003
H009;22;Vrouwelijk;Rechts;3;53;left;no;150;leftarrow;502;true;focus;yes;661485;Chrome;111.0;Windows;10;undefined;undefined;1504 x 1003;1504 x 1003
H009;22;Vrouwelijk;Rechts;3;54;left;yes;150;leftarrow;415;false;focus;yes;662673;Chrome;111.0;Windows;10;undefined;undefined;1504 x 1003;1504 x 1003
H009;22;Vrouwelijk;Rechts;3;55;right;no;100;rightarrow;391;true;focus;yes;663834;Chrome;111.0;Windows;10;undefined;undefined;1504 x 1003;1504 x 1003
H009;22;Vrouwelijk;Rechts;3;56;left;no;100;leftarrow;438;true;focus;yes;665042;Chrome;111.0;Windows;10;undefined;undefined;1504 x 1003;1504 x 1003
H009;22;Vrouwelijk;Rechts;3;57;left;no;100;leftarrow;433;true;focus;yes;666246;Chrome;111.0;Windows;10;undefined;undefined;1504 x 1003;1504 x 1003
H009;22;Vrouwelijk;Rechts;3;58;right;no;100;rightarrow;513;true;focus;yes;667522;Chrome;111.0;Windows;10;undefined;undefined;1504 x 1003;1504 x 1003
H009;22;Vrouwelijk;Rechts;3;59;left;yes;100;undefined;null;true;focus;yes;669544;Chrome;111.0;Windows;10;undefined;undefined;1504 x 1003;1504 x 1003
H009;22;Vrouwelijk;Rechts;3;60;left;no;150;leftarrow;482;true;focus;yes;670806;Chrome;111.0;Windows;10;undefined;undefined;1504 x 1003;1504 x 1003
H009;22;Vrouwelijk;Rechts;3;61;right;no;150;rightarrow;432;true;focus;yes;672021;Chrome;111.0;Windows;10;undefined;undefined;1504 x 1003;1504 x 1003
H009;22;Vrouwelijk;Rechts;3;62;right;no;150;leftarrow;319;false;focus;yes;673103;Chrome;111.0;Windows;10;undefined;undefined;1504 x 1003;1504 x 1003
H009;22;Vrouwelijk;Rechts;3;63;right;yes;150;undefined;null;true;focus;yes;675137;Chrome;111.0;Windows;10;undefined;undefined;1504 x 1003;1504 x 1003
H009;22;Vrouwelijk;Rechts;3;64;left;no;200;leftarrow;396;true;focus;yes;676299;Chrome;111.0;Windows;10;undefined;undefined;1504 x 1003;1504 x 1003
H009;22;Vrouwelijk;Rechts;3;65;right;no;200;rightarrow;437;true;focus;yes;677510;Chrome;111.0;Windows;10;undefined;undefined;1504 x 1003;1504 x 1003
H009;22;Vrouwelijk;Rechts;3;66;left;no;200;leftarrow;352;true;focus;yes;678627;Chrome;111.0;Windows;10;undefined;undefined;1504 x 1003;1504 x 1003
H009;22;Vrouwelijk;Rechts;3;67;right;no;200;rightarrow;314;true;focus;yes;679721;Chrome;111.0;Windows;10;undefined;undefined;1504 x 1003;1504 x 1003
H009;22;Vrouwelijk;Rechts;3;68;left;no;200;leftarrow;342;true;focus;yes;680829;Chrome;111.0;Windows;10;undefined;undefined;1504 x 1003;1504 x 1003
H009;22;Vrouwelijk;Rechts;3;69;left;no;200;leftarrow;562;true;focus;yes;682171;Chrome;111.0;Windows;10;undefined;undefined;1504 x 1003;1504 x 1003
H009;22;Vrouwelijk;Rechts;3;70;left;yes;200;leftarrow;377;false;focus;yes;683333;Chrome;111.0;Windows;10;undefined;undefined;1504 x 1003;1504 x 1003
H009;22;Vrouwelijk;Rechts;3;71;right;no;150;rightarrow;354;true;focus;yes;684455;Chrome;111.0;Windows;10;undefined;undefined;1504 x 1003;1504 x 1003
H009;22;Vrouwelijk;Rechts;3;72;right;yes;150;leftarrow;323;false;focus;yes;685545;Chrome;111.0;Windows;10;undefined;undefined;1504 x 1003;1504 x 1003
H009;22;Vrouwelijk;Rechts;3;73;right;no;100;rightarrow;311;true;focus;yes;686631;Chrome;111.0;Windows;10;undefined;undefined;1504 x 1003;1504 x 1003
H009;22;Vrouwelijk;Rechts;3;74;right;no;100;rightarrow;447;true;focus;yes;687851;Chrome;111.0;Windows;10;undefined;undefined;1504 x 1003;1504 x 1003
H009;22;Vrouwelijk;Rechts;3;75;right;yes;100;undefined;null;true;focus;yes;689882;Chrome;111.0;Windows;10;undefined;undefined;1504 x 1003;1504 x 1003
H009;22;Vrouwelijk;Rechts;3;76;left;no;150;leftarrow;291;true;focus;yes;690948;Chrome;111.0;Windows;10;undefined;undefined;1504 x 1003;1504 x 1003
H009;22;Vrouwelijk;Rechts;3;77;left;no;150;leftarrow;368;true;focus;yes;692090;Chrome;111.0;Windows;10;undefined;undefined;1504 x 1003;1504 x 1003
H009;22;Vrouwelijk;Rechts;3;78;left;no;150;leftarrow;364;true;focus;yes;693225;Chrome;111.0;Windows;10;undefined;undefined;1504 x 1003;1504 x 1003
H009;22;Vrouwelijk;Rechts;3;79;left;yes;150;leftarrow;361;false;focus;yes;694349;Chrome;111.0;Windows;10;undefined;undefined;1504 x 1003;1504 x 1003
H009;22;Vrouwelijk;Rechts;3;80;right;no;100;rightarrow;310;true;focus;yes;695434;Chrome;111.0;Windows;10;undefined;undefined;1504 x 1003;1504 x 1003
H009;22;Vrouwelijk;Rechts;3;81;right;no;100;leftarrow;349;false;focus;yes;696555;Chrome;111.0;Windows;10;undefined;undefined;1504 x 1003;1504 x 1003
H009;22;Vrouwelijk;Rechts;3;82;right;no;100;leftarrow;417;false;focus;yes;697740;Chrome;111.0;Windows;10;undefined;undefined;1504 x 1003;1504 x 1003
H009;22;Vrouwelijk;Rechts;3;83;left;no;100;leftarrow;509;true;focus;yes;699012;Chrome;111.0;Windows;10;undefined;undefined;1504 x 1003;1504 x 1003
H009;22;Vrouwelijk;Rechts;3;84;right;no;100;rightarrow;485;true;focus;yes;700272;Chrome;111.0;Windows;10;undefined;undefined;1504 x 1003;1504 x 1003
H009;22;Vrouwelijk;Rechts;3;85;left;yes;100;undefined;null;true;focus;yes;702306;Chrome;111.0;Windows;10;undefined;undefined;1504 x 1003;1504 x 1003
H009;22;Vrouwelijk;Rechts;3;86;right;yes;150;rightarrow;387;false;focus;yes;703478;Chrome;111.0;Windows;10;undefined;undefined;1504 x 1003;1504 x 1003
H009;22;Vrouwelijk;Rechts;3;87;left;no;100;leftarrow;437;true;focus;yes;704677;Chrome;111.0;Windows;10;undefined;undefined;1504 x 1003;1504 x 1003
H009;22;Vrouwelijk;Rechts;3;88;left;no;100;rightarrow;369;false;focus;yes;705813;Chrome;111.0;Windows;10;undefined;undefined;1504 x 1003;1504 x 1003
H009;22;Vrouwelijk;Rechts;3;89;left;yes;100;undefined;null;true;focus;yes;707843;Chrome;111.0;Windows;10;undefined;undefined;1504 x 1003;1504 x 1003
H009;22;Vrouwelijk;Rechts;3;90;left;no;150;leftarrow;419;true;focus;yes;709037;Chrome;111.0;Windows;10;undefined;undefined;1504 x 1003;1504 x 1003
H009;22;Vrouwelijk;Rechts;3;91;right;no;150;leftarrow;404;false;focus;yes;710211;Chrome;111.0;Windows;10;undefined;undefined;1504 x 1003;1504 x 1003
H009;22;Vrouwelijk;Rechts;3;92;right;no;150;rightarrow;434;true;focus;yes;711413;Chrome;111.0;Windows;10;undefined;undefined;1504 x 1003;1504 x 1003
H009;22;Vrouwelijk;Rechts;3;93;right;no;150;rightarrow;450;true;focus;yes;712623;Chrome;111.0;Windows;10;undefined;undefined;1504 x 1003;1504 x 1003
H009;22;Vrouwelijk;Rechts;3;94;left;no;150;leftarrow;455;true;focus;yes;713842;Chrome;111.0;Windows;10;undefined;undefined;1504 x 1003;1504 x 1003
H009;22;Vrouwelijk;Rechts;3;95;right;yes;150;undefined;null;true;focus;yes;715876;Chrome;111.0;Windows;10;undefined;undefined;1504 x 1003;1504 x 1003
H009;22;Vrouwelijk;Rechts;3;96;left;no;200;leftarrow;471;true;focus;yes;717126;Chrome;111.0;Windows;10;undefined;undefined;1504 x 1003;1504 x 1003
H009;22;Vrouwelijk;Rechts;3;97;right;no;200;rightarrow;373;true;focus;yes;718284;Chrome;111.0;Windows;10;undefined;undefined;1504 x 1003;1504 x 1003
H009;22;Vrouwelijk;Rechts;3;98;left;no;200;leftarrow;357;true;focus;yes;719417;Chrome;111.0;Windows;10;undefined;undefined;1504 x 1003;1504 x 1003
H009;22;Vrouwelijk;Rechts;3;99;left;no;200;leftarrow;388;true;focus;yes;720576;Chrome;111.0;Windows;10;undefined;undefined;1504 x 1003;1504 x 1003
H009;22;Vrouwelijk;Rechts;3;100;right;no;200;leftarrow;366;false;focus;yes;721725;Chrome;111.0;Windows;10;undefined;undefined;1504 x 1003;1504 x 1003
H009;22;Vrouwelijk;Rechts;3;101;right;yes;200;rightarrow;416;false;focus;yes;722913;Chrome;111.0;Windows;10;undefined;undefined;1504 x 1003;1504 x 1003
H009;22;Vrouwelijk;Rechts;3;102;left;no;150;leftarrow;369;true;focus;yes;724056;Chrome;111.0;Windows;10;undefined;undefined;1504 x 1003;1504 x 1003
H009;22;Vrouwelijk;Rechts;3;103;left;yes;150;rightarrow;351;false;focus;yes;725189;Chrome;111.0;Windows;10;undefined;undefined;1504 x 1003;1504 x 1003
H009;22;Vrouwelijk;Rechts;3;104;right;no;100;rightarrow;485;true;focus;yes;726442;Chrome;111.0;Windows;10;undefined;undefined;1504 x 1003;1504 x 1003
H009;22;Vrouwelijk;Rechts;3;105;left;no;100;leftarrow;313;true;focus;yes;727530;Chrome;111.0;Windows;10;undefined;undefined;1504 x 1003;1504 x 1003
H009;22;Vrouwelijk;Rechts;3;106;right;yes;100;rightarrow;332;false;focus;yes;728649;Chrome;111.0;Windows;10;undefined;undefined;1504 x 1003;1504 x 1003
H009;22;Vrouwelijk;Rechts;3;107;right;no;50;leftarrow;287;false;focus;yes;729707;Chrome;111.0;Windows;10;undefined;undefined;1504 x 1003;1504 x 1003
H009;22;Vrouwelijk;Rechts;3;108;left;no;50;leftarrow;438;true;focus;yes;730927;Chrome;111.0;Windows;10;undefined;undefined;1504 x 1003;1504 x 1003
H009;22;Vrouwelijk;Rechts;3;109;left;no;50;leftarrow;334;true;focus;yes;732027;Chrome;111.0;Windows;10;undefined;undefined;1504 x 1003;1504 x 1003
H009;22;Vrouwelijk;Rechts;3;110;right;no;50;rightarrow;392;true;focus;yes;733198;Chrome;111.0;Windows;10;undefined;undefined;1504 x 1003;1504 x 1003
H009;22;Vrouwelijk;Rechts;3;111;left;yes;50;undefined;null;true;focus;yes;735233;Chrome;111.0;Windows;10;undefined;undefined;1504 x 1003;1504 x 1003
H009;22;Vrouwelijk;Rechts;3;112;right;no;100;leftarrow;459;false;focus;yes;736465;Chrome;111.0;Windows;10;undefined;undefined;1504 x 1003;1504 x 1003
H009;22;Vrouwelijk;Rechts;3;113;right;no;100;rightarrow;525;true;focus;yes;737758;Chrome;111.0;Windows;10;undefined;undefined;1504 x 1003;1504 x 1003
H009;22;Vrouwelijk;Rechts;3;114;right;no;100;rightarrow;479;true;focus;yes;739005;Chrome;111.0;Windows;10;undefined;undefined;1504 x 1003;1504 x 1003
H009;22;Vrouwelijk;Rechts;3;115;right;yes;100;undefined;null;true;focus;yes;741043;Chrome;111.0;Windows;10;undefined;undefined;1504 x 1003;1504 x 1003
H009;22;Vrouwelijk;Rechts;3;116;right;no;150;rightarrow;617;true;focus;yes;742424;Chrome;111.0;Windows;10;undefined;undefined;1504 x 1003;1504 x 1003
H009;22;Vrouwelijk;Rechts;3;117;left;no;150;leftarrow;445;true;focus;yes;743655;Chrome;111.0;Windows;10;undefined;undefined;1504 x 1003;1504 x 1003
H009;22;Vrouwelijk;Rechts;3;118;left;no;150;leftarrow;462;true;focus;yes;744902;Chrome;111.0;Windows;10;undefined;undefined;1504 x 1003;1504 x 1003
H009;22;Vrouwelijk;Rechts;3;119;left;yes;150;leftarrow;443;false;focus;yes;746114;Chrome;111.0;Windows;10;undefined;undefined;1504 x 1003;1504 x 1003
H009;22;Vrouwelijk;Rechts;3;120;left;no;100;leftarrow;503;true;focus;yes;747398;Chrome;111.0;Windows;10;undefined;undefined;1504 x 1003;1504 x 1003
H009;22;Vrouwelijk;Rechts;3;121;left;no;100;leftarrow;423;true;focus;yes;748595;Chrome;111.0;Windows;10;undefined;undefined;1504 x 1003;1504 x 1003
H009;22;Vrouwelijk;Rechts;3;122;left;no;100;leftarrow;470;true;focus;yes;749845;Chrome;111.0;Windows;10;undefined;undefined;1504 x 1003;1504 x 1003
H009;22;Vrouwelijk;Rechts;3;123;right;no;100;rightarrow;516;true;focus;yes;751138;Chrome;111.0;Windows;10;undefined;undefined;1504 x 1003;1504 x 1003
H009;22;Vrouwelijk;Rechts;3;124;left;yes;100;undefined;null;true;focus;yes;753169;Chrome;111.0;Windows;10;undefined;undefined;1504 x 1003;1504 x 1003
H009;22;Vrouwelijk;Rechts;3;125;left;no;150;leftarrow;469;true;focus;yes;754416;Chrome;111.0;Windows;10;undefined;undefined;1504 x 1003;1504 x 1003
H009;22;Vrouwelijk;Rechts;3;126;right;yes;150;rightarrow;534;false;focus;yes;755723;Chrome;111.0;Windows;10;undefined;undefined;1504 x 1003;1504 x 1003
H009;22;Vrouwelijk;Rechts;3;127;right;no;100;rightarrow;457;true;focus;yes;756954;Chrome;111.0;Windows;10;undefined;undefined;1504 x 1003;1504 x 1003
H009;22;Vrouwelijk;Rechts;3;128;right;no;100;rightarrow;581;true;focus;yes;758303;Chrome;111.0;Windows;10;undefined;undefined;1504 x 1003;1504 x 1003
H009;22;Vrouwelijk;Rechts;4;1;right;no;100;rightarrow;543;true;focus;yes;777224;Chrome;111.0;Windows;10;undefined;undefined;1504 x 1003;1504 x 1003
H009;22;Vrouwelijk;Rechts;4;2;right;yes;100;undefined;null;true;focus;yes;779263;Chrome;111.0;Windows;10;undefined;undefined;1504 x 1003;1504 x 1003
H009;22;Vrouwelijk;Rechts;4;3;left;no;150;leftarrow;418;true;focus;yes;780457;Chrome;111.0;Windows;10;undefined;undefined;1504 x 1003;1504 x 1003
H009;22;Vrouwelijk;Rechts;4;4;left;no;150;leftarrow;429;true;focus;yes;781672;Chrome;111.0;Windows;10;undefined;undefined;1504 x 1003;1504 x 1003
H009;22;Vrouwelijk;Rechts;4;5;left;no;150;leftarrow;376;true;focus;yes;782813;Chrome;111.0;Windows;10;undefined;undefined;1504 x 1003;1504 x 1003
H009;22;Vrouwelijk;Rechts;4;6;right;no;150;rightarrow;458;true;focus;yes;784045;Chrome;111.0;Windows;10;undefined;undefined;1504 x 1003;1504 x 1003
H009;22;Vrouwelijk;Rechts;4;7;left;yes;150;leftarrow;354;false;focus;yes;785177;Chrome;111.0;Windows;10;undefined;undefined;1504 x 1003;1504 x 1003
H009;22;Vrouwelijk;Rechts;4;8;right;no;100;rightarrow;364;true;focus;yes;786316;Chrome;111.0;Windows;10;undefined;undefined;1504 x 1003;1504 x 1003
H009;22;Vrouwelijk;Rechts;4;9;right;yes;100;leftarrow;425;false;focus;yes;787515;Chrome;111.0;Windows;10;undefined;undefined;1504 x 1003;1504 x 1003
H009;22;Vrouwelijk;Rechts;4;10;left;no;50;leftarrow;430;true;focus;yes;788722;Chrome;111.0;Windows;10;undefined;undefined;1504 x 1003;1504 x 1003
H009;22;Vrouwelijk;Rechts;4;11;left;no;50;leftarrow;497;true;focus;yes;790000;Chrome;111.0;Windows;10;undefined;undefined;1504 x 1003;1504 x 1003
H009;22;Vrouwelijk;Rechts;4;12;right;no;50;rightarrow;462;true;focus;yes;791239;Chrome;111.0;Windows;10;undefined;undefined;1504 x 1003;1504 x 1003
H009;22;Vrouwelijk;Rechts;4;13;left;no;50;leftarrow;432;true;focus;yes;792449;Chrome;111.0;Windows;10;undefined;undefined;1504 x 1003;1504 x 1003
H009;22;Vrouwelijk;Rechts;4;14;right;no;50;rightarrow;379;true;focus;yes;793601;Chrome;111.0;Windows;10;undefined;undefined;1504 x 1003;1504 x 1003
H009;22;Vrouwelijk;Rechts;4;15;right;no;50;leftarrow;386;false;focus;yes;794760;Chrome;111.0;Windows;10;undefined;undefined;1504 x 1003;1504 x 1003
H009;22;Vrouwelijk;Rechts;4;16;left;yes;50;leftarrow;836;false;focus;yes;796374;Chrome;111.0;Windows;10;undefined;undefined;1504 x 1003;1504 x 1003
H009;22;Vrouwelijk;Rechts;4;17;right;yes;50;rightarrow;376;false;focus;yes;797532;Chrome;111.0;Windows;10;undefined;undefined;1504 x 1003;1504 x 1003
H009;22;Vrouwelijk;Rechts;4;18;left;yes;50;undefined;null;true;focus;yes;799571;Chrome;111.0;Windows;10;undefined;undefined;1504 x 1003;1504 x 1003
H009;22;Vrouwelijk;Rechts;4;19;left;no;100;leftarrow;491;true;focus;yes;800840;Chrome;111.0;Windows;10;undefined;undefined;1504 x 1003;1504 x 1003
H009;22;Vrouwelijk;Rechts;4;20;left;no;100;leftarrow;509;true;focus;yes;802119;Chrome;111.0;Windows;10;undefined;undefined;1504 x 1003;1504 x 1003
H009;22;Vrouwelijk;Rechts;4;21;right;no;100;rightarrow;531;true;focus;yes;803421;Chrome;111.0;Windows;10;undefined;undefined;1504 x 1003;1504 x 1003
H009;22;Vrouwelijk;Rechts;4;22;right;no;100;rightarrow;518;true;focus;yes;804703;Chrome;111.0;Windows;10;undefined;undefined;1504 x 1003;1504 x 1003
H009;22;Vrouwelijk;Rechts;4;23;left;no;100;leftarrow;413;true;focus;yes;805889;Chrome;111.0;Windows;10;undefined;undefined;1504 x 1003;1504 x 1003
H009;22;Vrouwelijk;Rechts;4;24;right;no;100;rightarrow;402;true;focus;yes;807070;Chrome;111.0;Windows;10;undefined;undefined;1504 x 1003;1504 x 1003
H009;22;Vrouwelijk;Rechts;4;25;right;no;100;rightarrow;524;true;focus;yes;808369;Chrome;111.0;Windows;10;undefined;undefined;1504 x 1003;1504 x 1003
H009;22;Vrouwelijk;Rechts;4;26;left;no;100;leftarrow;508;true;focus;yes;809644;Chrome;111.0;Windows;10;undefined;undefined;1504 x 1003;1504 x 1003
H009;22;Vrouwelijk;Rechts;4;27;right;no;100;rightarrow;442;true;focus;yes;810866;Chrome;111.0;Windows;10;undefined;undefined;1504 x 1003;1504 x 1003
H009;22;Vrouwelijk;Rechts;4;28;right;yes;100;undefined;null;true;focus;yes;812903;Chrome;111.0;Windows;10;undefined;undefined;1504 x 1003;1504 x 1003
H009;22;Vrouwelijk;Rechts;4;29;right;no;150;rightarrow;485;true;focus;yes;814172;Chrome;111.0;Windows;10;undefined;undefined;1504 x 1003;1504 x 1003
H009;22;Vrouwelijk;Rechts;4;30;left;no;150;leftarrow;432;true;focus;yes;815387;Chrome;111.0;Windows;10;undefined;undefined;1504 x 1003;1504 x 1003
H009;22;Vrouwelijk;Rechts;4;31;left;no;150;leftarrow;546;true;focus;yes;816706;Chrome;111.0;Windows;10;undefined;undefined;1504 x 1003;1504 x 1003
H009;22;Vrouwelijk;Rechts;4;32;left;yes;150;leftarrow;477;false;focus;yes;817958;Chrome;111.0;Windows;10;undefined;undefined;1504 x 1003;1504 x 1003
H009;22;Vrouwelijk;Rechts;4;33;left;yes;100;undefined;null;true;focus;yes;819976;Chrome;111.0;Windows;10;undefined;undefined;1504 x 1003;1504 x 1003
H009;22;Vrouwelijk;Rechts;4;34;right;no;150;rightarrow;582;true;focus;yes;821337;Chrome;111.0;Windows;10;undefined;undefined;1504 x 1003;1504 x 1003
H009;22;Vrouwelijk;Rechts;4;35;right;no;150;leftarrow;398;false;focus;yes;822512;Chrome;111.0;Windows;10;undefined;undefined;1504 x 1003;1504 x 1003
H009;22;Vrouwelijk;Rechts;4;36;left;no;150;leftarrow;436;true;focus;yes;823716;Chrome;111.0;Windows;10;undefined;undefined;1504 x 1003;1504 x 1003
H009;22;Vrouwelijk;Rechts;4;37;right;yes;150;rightarrow;350;false;focus;yes;824854;Chrome;111.0;Windows;10;undefined;undefined;1504 x 1003;1504 x 1003
H009;22;Vrouwelijk;Rechts;4;38;left;no;100;leftarrow;332;true;focus;yes;825955;Chrome;111.0;Windows;10;undefined;undefined;1504 x 1003;1504 x 1003
H009;22;Vrouwelijk;Rechts;4;39;right;no;100;rightarrow;500;true;focus;yes;827241;Chrome;111.0;Windows;10;undefined;undefined;1504 x 1003;1504 x 1003
H009;22;Vrouwelijk;Rechts;4;40;left;no;100;leftarrow;519;true;focus;yes;828538;Chrome;111.0;Windows;10;undefined;undefined;1504 x 1003;1504 x 1003
H009;22;Vrouwelijk;Rechts;4;41;right;yes;100;undefined;null;true;focus;yes;830562;Chrome;111.0;Windows;10;undefined;undefined;1504 x 1003;1504 x 1003
H009;22;Vrouwelijk;Rechts;4;42;left;no;150;leftarrow;395;true;focus;yes;831732;Chrome;111.0;Windows;10;undefined;undefined;1504 x 1003;1504 x 1003
H009;22;Vrouwelijk;Rechts;4;43;right;no;150;rightarrow;471;true;focus;yes;832969;Chrome;111.0;Windows;10;undefined;undefined;1504 x 1003;1504 x 1003
H009;22;Vrouwelijk;Rechts;4;44;left;no;150;leftarrow;439;true;focus;yes;834176;Chrome;111.0;Windows;10;undefined;undefined;1504 x 1003;1504 x 1003
H009;22;Vrouwelijk;Rechts;4;45;left;yes;150;rightarrow;356;false;focus;yes;835304;Chrome;111.0;Windows;10;undefined;undefined;1504 x 1003;1504 x 1003
H009;22;Vrouwelijk;Rechts;4;46;right;no;100;rightarrow;554;true;focus;yes;836643;Chrome;111.0;Windows;10;undefined;undefined;1504 x 1003;1504 x 1003
H009;22;Vrouwelijk;Rechts;4;47;right;no;100;rightarrow;544;true;focus;yes;837961;Chrome;111.0;Windows;10;undefined;undefined;1504 x 1003;1504 x 1003
H009;22;Vrouwelijk;Rechts;4;48;left;no;100;leftarrow;430;true;focus;yes;839155;Chrome;111.0;Windows;10;undefined;undefined;1504 x 1003;1504 x 1003
H009;22;Vrouwelijk;Rechts;4;49;left;no;100;leftarrow;556;true;focus;yes;840478;Chrome;111.0;Windows;10;undefined;undefined;1504 x 1003;1504 x 1003
H009;22;Vrouwelijk;Rechts;4;50;left;no;100;leftarrow;381;true;focus;yes;841638;Chrome;111.0;Windows;10;undefined;undefined;1504 x 1003;1504 x 1003
H009;22;Vrouwelijk;Rechts;4;51;left;no;100;leftarrow;492;true;focus;yes;842899;Chrome;111.0;Windows;10;undefined;undefined;1504 x 1003;1504 x 1003
H009;22;Vrouwelijk;Rechts;4;52;right;no;100;rightarrow;565;true;focus;yes;844235;Chrome;111.0;Windows;10;undefined;undefined;1504 x 1003;1504 x 1003
H009;22;Vrouwelijk;Rechts;4;53;right;no;100;rightarrow;552;true;focus;yes;845551;Chrome;111.0;Windows;10;undefined;undefined;1504 x 1003;1504 x 1003
H009;22;Vrouwelijk;Rechts;4;54;left;yes;100;undefined;null;true;focus;yes;847572;Chrome;111.0;Windows;10;undefined;undefined;1504 x 1003;1504 x 1003
H009;22;Vrouwelijk;Rechts;4;55;right;no;150;rightarrow;484;true;focus;yes;848839;Chrome;111.0;Windows;10;undefined;undefined;1504 x 1003;1504 x 1003
H009;22;Vrouwelijk;Rechts;4;56;right;yes;150;undefined;null;true;focus;yes;850863;Chrome;111.0;Windows;10;undefined;undefined;1504 x 1003;1504 x 1003
H009;22;Vrouwelijk;Rechts;4;57;left;no;200;leftarrow;419;true;focus;yes;852049;Chrome;111.0;Windows;10;undefined;undefined;1504 x 1003;1504 x 1003
H009;22;Vrouwelijk;Rechts;4;58;left;no;200;leftarrow;507;true;focus;yes;853335;Chrome;111.0;Windows;10;undefined;undefined;1504 x 1003;1504 x 1003
H009;22;Vrouwelijk;Rechts;4;59;left;no;200;leftarrow;427;true;focus;yes;854534;Chrome;111.0;Windows;10;undefined;undefined;1504 x 1003;1504 x 1003
H009;22;Vrouwelijk;Rechts;4;60;right;yes;200;rightarrow;557;false;focus;yes;855866;Chrome;111.0;Windows;10;undefined;undefined;1504 x 1003;1504 x 1003
H009;22;Vrouwelijk;Rechts;4;61;right;no;150;rightarrow;530;true;focus;yes;857160;Chrome;111.0;Windows;10;undefined;undefined;1504 x 1003;1504 x 1003
H009;22;Vrouwelijk;Rechts;4;62;left;yes;150;leftarrow;447;false;focus;yes;858385;Chrome;111.0;Windows;10;undefined;undefined;1504 x 1003;1504 x 1003
H009;22;Vrouwelijk;Rechts;4;63;right;no;100;rightarrow;528;true;focus;yes;859695;Chrome;111.0;Windows;10;undefined;undefined;1504 x 1003;1504 x 1003
H009;22;Vrouwelijk;Rechts;4;64;right;no;100;rightarrow;370;true;focus;yes;860839;Chrome;111.0;Windows;10;undefined;undefined;1504 x 1003;1504 x 1003
H009;22;Vrouwelijk;Rechts;4;65;right;yes;100;undefined;null;true;focus;yes;862871;Chrome;111.0;Windows;10;undefined;undefined;1504 x 1003;1504 x 1003
H009;22;Vrouwelijk;Rechts;4;66;left;no;150;leftarrow;430;true;focus;yes;864072;Chrome;111.0;Windows;10;undefined;undefined;1504 x 1003;1504 x 1003
H009;22;Vrouwelijk;Rechts;4;67;left;no;150;leftarrow;526;true;focus;yes;865370;Chrome;111.0;Windows;10;undefined;undefined;1504 x 1003;1504 x 1003
H009;22;Vrouwelijk;Rechts;4;68;left;no;150;leftarrow;439;true;focus;yes;866571;Chrome;111.0;Windows;10;undefined;undefined;1504 x 1003;1504 x 1003
H009;22;Vrouwelijk;Rechts;4;69;right;no;150;rightarrow;417;true;focus;yes;867768;Chrome;111.0;Windows;10;undefined;undefined;1504 x 1003;1504 x 1003
H009;22;Vrouwelijk;Rechts;4;70;right;no;150;rightarrow;553;true;focus;yes;869109;Chrome;111.0;Windows;10;undefined;undefined;1504 x 1003;1504 x 1003
H009;22;Vrouwelijk;Rechts;4;71;right;no;150;leftarrow;401;false;focus;yes;870293;Chrome;111.0;Windows;10;undefined;undefined;1504 x 1003;1504 x 1003
H009;22;Vrouwelijk;Rechts;4;72;left;yes;150;leftarrow;372;false;focus;yes;871430;Chrome;111.0;Windows;10;undefined;undefined;1504 x 1003;1504 x 1003
H009;22;Vrouwelijk;Rechts;4;73;right;no;100;rightarrow;375;true;focus;yes;872581;Chrome;111.0;Windows;10;undefined;undefined;1504 x 1003;1504 x 1003
H009;22;Vrouwelijk;Rechts;4;74;right;no;100;rightarrow;534;true;focus;yes;873886;Chrome;111.0;Windows;10;undefined;undefined;1504 x 1003;1504 x 1003
H009;22;Vrouwelijk;Rechts;4;75;left;no;100;leftarrow;395;true;focus;yes;875054;Chrome;111.0;Windows;10;undefined;undefined;1504 x 1003;1504 x 1003
H009;22;Vrouwelijk;Rechts;4;76;left;no;100;leftarrow;450;true;focus;yes;876273;Chrome;111.0;Windows;10;undefined;undefined;1504 x 1003;1504 x 1003
H009;22;Vrouwelijk;Rechts;4;77;left;no;100;leftarrow;451;true;focus;yes;877491;Chrome;111.0;Windows;10;undefined;undefined;1504 x 1003;1504 x 1003
H009;22;Vrouwelijk;Rechts;4;78;left;yes;100;undefined;null;true;focus;yes;879533;Chrome;111.0;Windows;10;undefined;undefined;1504 x 1003;1504 x 1003
H009;22;Vrouwelijk;Rechts;4;79;right;no;150;rightarrow;442;true;focus;yes;880745;Chrome;111.0;Windows;10;undefined;undefined;1504 x 1003;1504 x 1003
H009;22;Vrouwelijk;Rechts;4;80;right;yes;150;undefined;null;true;focus;yes;882763;Chrome;111.0;Windows;10;undefined;undefined;1504 x 1003;1504 x 1003
H009;22;Vrouwelijk;Rechts;4;81;left;no;200;leftarrow;417;true;focus;yes;883959;Chrome;111.0;Windows;10;undefined;undefined;1504 x 1003;1504 x 1003
H009;22;Vrouwelijk;Rechts;4;82;left;yes;200;leftarrow;418;false;focus;yes;885153;Chrome;111.0;Windows;10;undefined;undefined;1504 x 1003;1504 x 1003
H009;22;Vrouwelijk;Rechts;4;83;right;no;150;rightarrow;411;true;focus;yes;886330;Chrome;111.0;Windows;10;undefined;undefined;1504 x 1003;1504 x 1003
H009;22;Vrouwelijk;Rechts;4;84;left;no;150;leftarrow;452;true;focus;yes;887562;Chrome;111.0;Windows;10;undefined;undefined;1504 x 1003;1504 x 1003
H009;22;Vrouwelijk;Rechts;4;85;left;no;150;leftarrow;431;true;focus;yes;888772;Chrome;111.0;Windows;10;undefined;undefined;1504 x 1003;1504 x 1003
H009;22;Vrouwelijk;Rechts;4;86;right;yes;150;undefined;null;true;focus;yes;890810;Chrome;111.0;Windows;10;undefined;undefined;1504 x 1003;1504 x 1003
H009;22;Vrouwelijk;Rechts;4;87;right;no;200;leftarrow;524;false;focus;yes;892102;Chrome;111.0;Windows;10;undefined;undefined;1504 x 1003;1504 x 1003
H009;22;Vrouwelijk;Rechts;4;88;right;no;200;rightarrow;971;true;focus;yes;893846;Chrome;111.0;Windows;10;undefined;undefined;1504 x 1003;1504 x 1003
H009;22;Vrouwelijk;Rechts;4;89;left;yes;200;leftarrow;429;false;focus;yes;895048;Chrome;111.0;Windows;10;undefined;undefined;1504 x 1003;1504 x 1003
H009;22;Vrouwelijk;Rechts;4;90;right;no;150;rightarrow;565;true;focus;yes;896392;Chrome;111.0;Windows;10;undefined;undefined;1504 x 1003;1504 x 1003
H009;22;Vrouwelijk;Rechts;4;91;left;no;150;leftarrow;432;true;focus;yes;897590;Chrome;111.0;Windows;10;undefined;undefined;1504 x 1003;1504 x 1003
H009;22;Vrouwelijk;Rechts;4;92;left;no;150;leftarrow;420;true;focus;yes;898794;Chrome;111.0;Windows;10;undefined;undefined;1504 x 1003;1504 x 1003
H009;22;Vrouwelijk;Rechts;4;93;right;no;150;rightarrow;653;true;focus;yes;900220;Chrome;111.0;Windows;10;undefined;undefined;1504 x 1003;1504 x 1003
H009;22;Vrouwelijk;Rechts;4;94;right;yes;150;undefined;null;true;focus;yes;902265;Chrome;111.0;Windows;10;undefined;undefined;1504 x 1003;1504 x 1003
H009;22;Vrouwelijk;Rechts;4;95;left;no;200;leftarrow;361;true;focus;yes;903399;Chrome;111.0;Windows;10;undefined;undefined;1504 x 1003;1504 x 1003
H009;22;Vrouwelijk;Rechts;4;96;right;no;200;rightarrow;395;true;focus;yes;904570;Chrome;111.0;Windows;10;undefined;undefined;1504 x 1003;1504 x 1003
H009;22;Vrouwelijk;Rechts;4;97;right;no;200;rightarrow;464;true;focus;yes;905820;Chrome;111.0;Windows;10;undefined;undefined;1504 x 1003;1504 x 1003
H009;22;Vrouwelijk;Rechts;4;98;right;yes;200;rightarrow;384;false;focus;yes;906990;Chrome;111.0;Windows;10;undefined;undefined;1504 x 1003;1504 x 1003
H009;22;Vrouwelijk;Rechts;4;99;right;no;150;leftarrow;198;false;focus;yes;907954;Chrome;111.0;Windows;10;undefined;undefined;1504 x 1003;1504 x 1003
H009;22;Vrouwelijk;Rechts;4;100;right;no;150;rightarrow;314;true;focus;yes;909035;Chrome;111.0;Windows;10;undefined;undefined;1504 x 1003;1504 x 1003
H009;22;Vrouwelijk;Rechts;4;101;left;yes;150;leftarrow;440;false;focus;yes;910262;Chrome;111.0;Windows;10;undefined;undefined;1504 x 1003;1504 x 1003
H009;22;Vrouwelijk;Rechts;4;102;left;no;100;leftarrow;556;true;focus;yes;911594;Chrome;111.0;Windows;10;undefined;undefined;1504 x 1003;1504 x 1003
H009;22;Vrouwelijk;Rechts;4;103;left;no;100;leftarrow;431;true;focus;yes;912797;Chrome;111.0;Windows;10;undefined;undefined;1504 x 1003;1504 x 1003
H009;22;Vrouwelijk;Rechts;4;104;left;no;100;leftarrow;443;true;focus;yes;914018;Chrome;111.0;Windows;10;undefined;undefined;1504 x 1003;1504 x 1003
H009;22;Vrouwelijk;Rechts;4;105;left;no;100;leftarrow;295;true;focus;yes;915106;Chrome;111.0;Windows;10;undefined;undefined;1504 x 1003;1504 x 1003
H009;22;Vrouwelijk;Rechts;4;106;right;no;100;leftarrow;303;false;focus;yes;916190;Chrome;111.0;Windows;10;undefined;undefined;1504 x 1003;1504 x 1003
H009;22;Vrouwelijk;Rechts;4;107;left;no;100;rightarrow;322;false;focus;yes;917304;Chrome;111.0;Windows;10;undefined;undefined;1504 x 1003;1504 x 1003
H009;22;Vrouwelijk;Rechts;4;108;right;yes;100;leftarrow;255;false;focus;yes;918330;Chrome;111.0;Windows;10;undefined;undefined;1504 x 1003;1504 x 1003
H009;22;Vrouwelijk;Rechts;4;109;right;no;50;rightarrow;612;true;focus;yes;919710;Chrome;111.0;Windows;10;undefined;undefined;1504 x 1003;1504 x 1003
H009;22;Vrouwelijk;Rechts;4;110;left;yes;50;undefined;null;true;focus;yes;921753;Chrome;111.0;Windows;10;undefined;undefined;1504 x 1003;1504 x 1003
H009;22;Vrouwelijk;Rechts;4;111;left;no;100;leftarrow;434;true;focus;yes;922954;Chrome;111.0;Windows;10;undefined;undefined;1504 x 1003;1504 x 1003
H009;22;Vrouwelijk;Rechts;4;112;right;no;100;rightarrow;443;true;focus;yes;924163;Chrome;111.0;Windows;10;undefined;undefined;1504 x 1003;1504 x 1003
H009;22;Vrouwelijk;Rechts;4;113;right;yes;100;undefined;null;true;focus;yes;926190;Chrome;111.0;Windows;10;undefined;undefined;1504 x 1003;1504 x 1003
H009;22;Vrouwelijk;Rechts;4;114;left;no;150;leftarrow;459;true;focus;yes;927419;Chrome;111.0;Windows;10;undefined;undefined;1504 x 1003;1504 x 1003
H009;22;Vrouwelijk;Rechts;4;115;left;yes;150;leftarrow;433;false;focus;yes;928621;Chrome;111.0;Windows;10;undefined;undefined;1504 x 1003;1504 x 1003
H009;22;Vrouwelijk;Rechts;4;116;right;no;100;rightarrow;455;true;focus;yes;929858;Chrome;111.0;Windows;10;undefined;undefined;1504 x 1003;1504 x 1003
H009;22;Vrouwelijk;Rechts;4;117;right;no;100;rightarrow;452;true;focus;yes;931092;Chrome;111.0;Windows;10;undefined;undefined;1504 x 1003;1504 x 1003
H009;22;Vrouwelijk;Rechts;4;118;right;no;100;rightarrow;496;true;focus;yes;932372;Chrome;111.0;Windows;10;undefined;undefined;1504 x 1003;1504 x 1003
H009;22;Vrouwelijk;Rechts;4;119;left;no;100;leftarrow;517;true;focus;yes;933653;Chrome;111.0;Windows;10;undefined;undefined;1504 x 1003;1504 x 1003
H009;22;Vrouwelijk;Rechts;4;120;left;no;100;leftarrow;479;true;focus;yes;934897;Chrome;111.0;Windows;10;undefined;undefined;1504 x 1003;1504 x 1003
H009;22;Vrouwelijk;Rechts;4;121;right;no;100;rightarrow;489;true;focus;yes;936159;Chrome;111.0;Windows;10;undefined;undefined;1504 x 1003;1504 x 1003
H009;22;Vrouwelijk;Rechts;4;122;left;no;100;leftarrow;416;true;focus;yes;937351;Chrome;111.0;Windows;10;undefined;undefined;1504 x 1003;1504 x 1003
H009;22;Vrouwelijk;Rechts;4;123;right;no;100;leftarrow;373;false;focus;yes;938498;Chrome;111.0;Windows;10;undefined;undefined;1504 x 1003;1504 x 1003
H009;22;Vrouwelijk;Rechts;4;124;left;yes;100;leftarrow;354;false;focus;yes;939632;Chrome;111.0;Windows;10;undefined;undefined;1504 x 1003;1504 x 1003
H009;22;Vrouwelijk;Rechts;4;125;left;no;50;leftarrow;830;true;focus;yes;941241;Chrome;111.0;Windows;10;undefined;undefined;1504 x 1003;1504 x 1003
H009;22;Vrouwelijk;Rechts;4;126;right;no;50;rightarrow;369;true;focus;yes;942382;Chrome;111.0;Windows;10;undefined;undefined;1504 x 1003;1504 x 1003
H009;22;Vrouwelijk;Rechts;4;127;left;no;50;leftarrow;434;true;focus;yes;943603;Chrome;111.0;Windows;10;undefined;undefined;1504 x 1003;1504 x 1003
H009;22;Vrouwelijk;Rechts;4;128;right;yes;50;undefined;null;true;focus;yes;945637;Chrome;111.0;Windows;10;undefined;undefined;1504 x 1003;1504 x 1003
H009;22;Vrouwelijk;Rechts;5;1;right;no;100;leftarrow;600;false;focus;yes;985241;Chrome;111.0;Windows;10;undefined;undefined;1504 x 1003;1504 x 1003
H009;22;Vrouwelijk;Rechts;5;2;left;no;100;leftarrow;524;true;focus;yes;986538;Chrome;111.0;Windows;10;undefined;undefined;1504 x 1003;1504 x 1003
H009;22;Vrouwelijk;Rechts;5;3;right;no;100;rightarrow;508;true;focus;yes;987829;Chrome;111.0;Windows;10;undefined;undefined;1504 x 1003;1504 x 1003
H009;22;Vrouwelijk;Rechts;5;4;left;yes;100;undefined;null;true;focus;yes;989853;Chrome;111.0;Windows;10;undefined;undefined;1504 x 1003;1504 x 1003
H009;22;Vrouwelijk;Rechts;5;5;left;no;150;leftarrow;643;true;focus;yes;991269;Chrome;111.0;Windows;10;undefined;undefined;1504 x 1003;1504 x 1003
H009;22;Vrouwelijk;Rechts;5;6;left;no;150;leftarrow;479;true;focus;yes;992520;Chrome;111.0;Windows;10;undefined;undefined;1504 x 1003;1504 x 1003
H009;22;Vrouwelijk;Rechts;5;7;right;yes;150;undefined;null;true;focus;yes;994550;Chrome;111.0;Windows;10;undefined;undefined;1504 x 1003;1504 x 1003
H009;22;Vrouwelijk;Rechts;5;8;right;no;200;rightarrow;605;true;focus;yes;995931;Chrome;111.0;Windows;10;undefined;undefined;1504 x 1003;1504 x 1003
H009;22;Vrouwelijk;Rechts;5;9;left;yes;200;leftarrow;492;false;focus;yes;997195;Chrome;111.0;Windows;10;undefined;undefined;1504 x 1003;1504 x 1003
H009;22;Vrouwelijk;Rechts;5;10;left;no;150;leftarrow;447;true;focus;yes;998415;Chrome;111.0;Windows;10;undefined;undefined;1504 x 1003;1504 x 1003
H009;22;Vrouwelijk;Rechts;5;11;right;no;150;rightarrow;474;true;focus;yes;999656;Chrome;111.0;Windows;10;undefined;undefined;1504 x 1003;1504 x 1003
H009;22;Vrouwelijk;Rechts;5;12;left;no;150;leftarrow;445;true;focus;yes;1000885;Chrome;111.0;Windows;10;undefined;undefined;1504 x 1003;1504 x 1003
H009;22;Vrouwelijk;Rechts;5;13;right;no;150;leftarrow;373;false;focus;yes;1002031;Chrome;111.0;Windows;10;undefined;undefined;1504 x 1003;1504 x 1003
H009;22;Vrouwelijk;Rechts;5;14;left;no;150;leftarrow;409;true;focus;yes;1003207;Chrome;111.0;Windows;10;undefined;undefined;1504 x 1003;1504 x 1003
H009;22;Vrouwelijk;Rechts;5;15;right;no;150;rightarrow;596;true;focus;yes;1004578;Chrome;111.0;Windows;10;undefined;undefined;1504 x 1003;1504 x 1003
H009;22;Vrouwelijk;Rechts;5;16;right;yes;150;rightarrow;420;false;focus;yes;1005783;Chrome;111.0;Windows;10;undefined;undefined;1504 x 1003;1504 x 1003
H009;22;Vrouwelijk;Rechts;5;17;left;no;100;leftarrow;480;true;focus;yes;1007042;Chrome;111.0;Windows;10;undefined;undefined;1504 x 1003;1504 x 1003
H009;22;Vrouwelijk;Rechts;5;18;left;no;100;leftarrow;604;true;focus;yes;1008406;Chrome;111.0;Windows;10;undefined;undefined;1504 x 1003;1504 x 1003
H009;22;Vrouwelijk;Rechts;5;19;right;yes;100;rightarrow;519;false;focus;yes;1009706;Chrome;111.0;Windows;10;undefined;undefined;1504 x 1003;1504 x 1003
H009;22;Vrouwelijk;Rechts;5;20;left;yes;50;undefined;null;true;focus;yes;1011735;Chrome;111.0;Windows;10;undefined;undefined;1504 x 1003;1504 x 1003
H009;22;Vrouwelijk;Rechts;5;21;right;no;100;leftarrow;405;false;focus;yes;1012918;Chrome;111.0;Windows;10;undefined;undefined;1504 x 1003;1504 x 1003
H009;22;Vrouwelijk;Rechts;5;22;right;no;100;rightarrow;392;true;focus;yes;1014083;Chrome;111.0;Windows;10;undefined;undefined;1504 x 1003;1504 x 1003
H009;22;Vrouwelijk;Rechts;5;23;left;no;100;leftarrow;557;true;focus;yes;1015411;Chrome;111.0;Windows;10;undefined;undefined;1504 x 1003;1504 x 1003
H009;22;Vrouwelijk;Rechts;5;24;right;no;100;rightarrow;824;true;focus;yes;1017006;Chrome;111.0;Windows;10;undefined;undefined;1504 x 1003;1504 x 1003
H009;22;Vrouwelijk;Rechts;5;25;left;no;100;leftarrow;576;true;focus;yes;1018360;Chrome;111.0;Windows;10;undefined;undefined;1504 x 1003;1504 x 1003
H009;22;Vrouwelijk;Rechts;5;26;right;no;100;rightarrow;508;true;focus;yes;1019647;Chrome;111.0;Windows;10;undefined;undefined;1504 x 1003;1504 x 1003
H009;22;Vrouwelijk;Rechts;5;27;left;no;100;leftarrow;416;true;focus;yes;1020829;Chrome;111.0;Windows;10;undefined;undefined;1504 x 1003;1504 x 1003
H009;22;Vrouwelijk;Rechts;5;28;right;no;100;rightarrow;477;true;focus;yes;1022085;Chrome;111.0;Windows;10;undefined;undefined;1504 x 1003;1504 x 1003
H009;22;Vrouwelijk;Rechts;5;29;left;no;100;leftarrow;400;true;focus;yes;1023252;Chrome;111.0;Windows;10;undefined;undefined;1504 x 1003;1504 x 1003
H009;22;Vrouwelijk;Rechts;5;30;right;no;100;rightarrow;383;true;focus;yes;1024412;Chrome;111.0;Windows;10;undefined;undefined;1504 x 1003;1504 x 1003
H009;22;Vrouwelijk;Rechts;5;31;right;yes;100;undefined;null;true;focus;yes;1026459;Chrome;111.0;Windows;10;undefined;undefined;1504 x 1003;1504 x 1003
H009;22;Vrouwelijk;Rechts;5;32;left;yes;150;leftarrow;443;false;focus;yes;1027691;Chrome;111.0;Windows;10;undefined;undefined;1504 x 1003;1504 x 1003
H009;22;Vrouwelijk;Rechts;5;33;left;no;100;leftarrow;504;true;focus;yes;1028958;Chrome;111.0;Windows;10;undefined;undefined;1504 x 1003;1504 x 1003
H009;22;Vrouwelijk;Rechts;5;34;right;no;100;rightarrow;432;true;focus;yes;1030168;Chrome;111.0;Windows;10;undefined;undefined;1504 x 1003;1504 x 1003
H009;22;Vrouwelijk;Rechts;5;35;right;no;100;rightarrow;485;true;focus;yes;1031426;Chrome;111.0;Windows;10;undefined;undefined;1504 x 1003;1504 x 1003
H009;22;Vrouwelijk;Rechts;5;36;right;no;100;rightarrow;530;true;focus;yes;1032735;Chrome;111.0;Windows;10;undefined;undefined;1504 x 1003;1504 x 1003
H009;22;Vrouwelijk;Rechts;5;37;left;no;100;leftarrow;447;true;focus;yes;1033955;Chrome;111.0;Windows;10;undefined;undefined;1504 x 1003;1504 x 1003
H009;22;Vrouwelijk;Rechts;5;38;left;no;100;leftarrow;454;true;focus;yes;1035187;Chrome;111.0;Windows;10;undefined;undefined;1504 x 1003;1504 x 1003
H009;22;Vrouwelijk;Rechts;5;39;left;yes;100;undefined;null;true;focus;yes;1037224;Chrome;111.0;Windows;10;undefined;undefined;1504 x 1003;1504 x 1003
H009;22;Vrouwelijk;Rechts;5;40;right;yes;150;undefined;null;true;focus;yes;1039257;Chrome;111.0;Windows;10;undefined;undefined;1504 x 1003;1504 x 1003
H009;22;Vrouwelijk;Rechts;5;41;left;no;200;leftarrow;473;true;focus;yes;1040518;Chrome;111.0;Windows;10;undefined;undefined;1504 x 1003;1504 x 1003
H009;22;Vrouwelijk;Rechts;5;42;left;no;200;leftarrow;424;true;focus;yes;1041708;Chrome;111.0;Windows;10;undefined;undefined;1504 x 1003;1504 x 1003
H009;22;Vrouwelijk;Rechts;5;43;right;no;200;rightarrow;573;true;focus;yes;1043059;Chrome;111.0;Windows;10;undefined;undefined;1504 x 1003;1504 x 1003
H009;22;Vrouwelijk;Rechts;5;44;right;yes;200;undefined;null;true;focus;yes;1045077;Chrome;111.0;Windows;10;undefined;undefined;1504 x 1003;1504 x 1003
H009;22;Vrouwelijk;Rechts;5;45;right;no;250;rightarrow;597;true;focus;yes;1046448;Chrome;111.0;Windows;10;undefined;undefined;1504 x 1003;1504 x 1003
H009;22;Vrouwelijk;Rechts;5;46;right;no;250;rightarrow;494;true;focus;yes;1047718;Chrome;111.0;Windows;10;undefined;undefined;1504 x 1003;1504 x 1003
H009;22;Vrouwelijk;Rechts;5;47;left;no;250;leftarrow;449;true;focus;yes;1048957;Chrome;111.0;Windows;10;undefined;undefined;1504 x 1003;1504 x 1003
H009;22;Vrouwelijk;Rechts;5;48;left;yes;250;leftarrow;447;false;focus;yes;1050167;Chrome;111.0;Windows;10;undefined;undefined;1504 x 1003;1504 x 1003
H009;22;Vrouwelijk;Rechts;5;49;right;yes;200;rightarrow;432;false;focus;yes;1051373;Chrome;111.0;Windows;10;undefined;undefined;1504 x 1003;1504 x 1003
H009;22;Vrouwelijk;Rechts;5;50;left;no;150;leftarrow;380;true;focus;yes;1052523;Chrome;111.0;Windows;10;undefined;undefined;1504 x 1003;1504 x 1003
H009;22;Vrouwelijk;Rechts;5;51;left;yes;150;leftarrow;391;false;focus;yes;1053695;Chrome;111.0;Windows;10;undefined;undefined;1504 x 1003;1504 x 1003
H009;22;Vrouwelijk;Rechts;5;52;right;no;100;rightarrow;485;true;focus;yes;1054952;Chrome;111.0;Windows;10;undefined;undefined;1504 x 1003;1504 x 1003
H009;22;Vrouwelijk;Rechts;5;53;left;no;100;leftarrow;418;true;focus;yes;1056134;Chrome;111.0;Windows;10;undefined;undefined;1504 x 1003;1504 x 1003
H009;22;Vrouwelijk;Rechts;5;54;right;no;100;rightarrow;452;true;focus;yes;1057354;Chrome;111.0;Windows;10;undefined;undefined;1504 x 1003;1504 x 1003
H009;22;Vrouwelijk;Rechts;5;55;left;no;100;leftarrow;392;true;focus;yes;1058512;Chrome;111.0;Windows;10;undefined;undefined;1504 x 1003;1504 x 1003
H009;22;Vrouwelijk;Rechts;5;56;right;no;100;rightarrow;529;true;focus;yes;1059821;Chrome;111.0;Windows;10;undefined;undefined;1504 x 1003;1504 x 1003
H009;22;Vrouwelijk;Rechts;5;57;left;no;100;leftarrow;576;true;focus;yes;1061172;Chrome;111.0;Windows;10;undefined;undefined;1504 x 1003;1504 x 1003
H009;22;Vrouwelijk;Rechts;5;58;right;no;100;rightarrow;444;true;focus;yes;1062400;Chrome;111.0;Windows;10;undefined;undefined;1504 x 1003;1504 x 1003
H009;22;Vrouwelijk;Rechts;5;59;right;yes;100;undefined;null;true;focus;yes;1064420;Chrome;111.0;Windows;10;undefined;undefined;1504 x 1003;1504 x 1003
H009;22;Vrouwelijk;Rechts;5;60;left;yes;150;leftarrow;396;false;focus;yes;1065602;Chrome;111.0;Windows;10;undefined;undefined;1504 x 1003;1504 x 1003
H009;22;Vrouwelijk;Rechts;5;61;left;no;100;rightarrow;385;false;focus;yes;1066752;Chrome;111.0;Windows;10;undefined;undefined;1504 x 1003;1504 x 1003
H009;22;Vrouwelijk;Rechts;5;62;right;no;100;rightarrow;501;true;focus;yes;1068030;Chrome;111.0;Windows;10;undefined;undefined;1504 x 1003;1504 x 1003
H009;22;Vrouwelijk;Rechts;5;63;left;no;100;leftarrow;438;true;focus;yes;1069240;Chrome;111.0;Windows;10;undefined;undefined;1504 x 1003;1504 x 1003
H009;22;Vrouwelijk;Rechts;5;64;right;no;100;rightarrow;407;true;focus;yes;1070415;Chrome;111.0;Windows;10;undefined;undefined;1504 x 1003;1504 x 1003
H009;22;Vrouwelijk;Rechts;5;65;right;no;100;rightarrow;493;true;focus;yes;1071675;Chrome;111.0;Windows;10;undefined;undefined;1504 x 1003;1504 x 1003
H009;22;Vrouwelijk;Rechts;5;66;left;no;100;leftarrow;458;true;focus;yes;1072897;Chrome;111.0;Windows;10;undefined;undefined;1504 x 1003;1504 x 1003
H009;22;Vrouwelijk;Rechts;5;67;left;yes;100;undefined;null;true;focus;yes;1074929;Chrome;111.0;Windows;10;undefined;undefined;1504 x 1003;1504 x 1003
H009;22;Vrouwelijk;Rechts;5;68;right;no;150;rightarrow;448;true;focus;yes;1076151;Chrome;111.0;Windows;10;undefined;undefined;1504 x 1003;1504 x 1003
H009;22;Vrouwelijk;Rechts;5;69;left;no;150;leftarrow;481;true;focus;yes;1077406;Chrome;111.0;Windows;10;undefined;undefined;1504 x 1003;1504 x 1003
H009;22;Vrouwelijk;Rechts;5;70;right;no;150;rightarrow;400;true;focus;yes;1078575;Chrome;111.0;Windows;10;undefined;undefined;1504 x 1003;1504 x 1003
H009;22;Vrouwelijk;Rechts;5;71;left;no;150;leftarrow;401;true;focus;yes;1079744;Chrome;111.0;Windows;10;undefined;undefined;1504 x 1003;1504 x 1003
H009;22;Vrouwelijk;Rechts;5;72;right;yes;150;undefined;null;true;focus;yes;1081787;Chrome;111.0;Windows;10;undefined;undefined;1504 x 1003;1504 x 1003
H009;22;Vrouwelijk;Rechts;5;73;left;yes;200;leftarrow;412;false;focus;yes;1082964;Chrome;111.0;Windows;10;undefined;undefined;1504 x 1003;1504 x 1003
H009;22;Vrouwelijk;Rechts;5;74;left;no;150;rightarrow;216;false;focus;yes;1083955;Chrome;111.0;Windows;10;undefined;undefined;1504 x 1003;1504 x 1003
H009;22;Vrouwelijk;Rechts;5;75;right;no;150;rightarrow;518;true;focus;yes;1085255;Chrome;111.0;Windows;10;undefined;undefined;1504 x 1003;1504 x 1003
H009;22;Vrouwelijk;Rechts;5;76;right;yes;150;undefined;null;true;focus;yes;1087296;Chrome;111.0;Windows;10;undefined;undefined;1504 x 1003;1504 x 1003
H009;22;Vrouwelijk;Rechts;5;77;left;no;200;leftarrow;347;true;focus;yes;1088413;Chrome;111.0;Windows;10;undefined;undefined;1504 x 1003;1504 x 1003
H009;22;Vrouwelijk;Rechts;5;78;right;no;200;rightarrow;406;true;focus;yes;1089596;Chrome;111.0;Windows;10;undefined;undefined;1504 x 1003;1504 x 1003
H009;22;Vrouwelijk;Rechts;5;79;left;no;200;leftarrow;317;true;focus;yes;1090691;Chrome;111.0;Windows;10;undefined;undefined;1504 x 1003;1504 x 1003
H009;22;Vrouwelijk;Rechts;5;80;right;no;200;rightarrow;455;true;focus;yes;1091917;Chrome;111.0;Windows;10;undefined;undefined;1504 x 1003;1504 x 1003
H009;22;Vrouwelijk;Rechts;5;81;left;no;200;leftarrow;316;true;focus;yes;1093003;Chrome;111.0;Windows;10;undefined;undefined;1504 x 1003;1504 x 1003
H009;22;Vrouwelijk;Rechts;5;82;right;yes;200;leftarrow;419;false;focus;yes;1094193;Chrome;111.0;Windows;10;undefined;undefined;1504 x 1003;1504 x 1003
H009;22;Vrouwelijk;Rechts;5;83;left;no;150;leftarrow;495;true;focus;yes;1095461;Chrome;111.0;Windows;10;undefined;undefined;1504 x 1003;1504 x 1003
H009;22;Vrouwelijk;Rechts;5;84;right;no;150;rightarrow;424;true;focus;yes;1096653;Chrome;111.0;Windows;10;undefined;undefined;1504 x 1003;1504 x 1003
H009;22;Vrouwelijk;Rechts;5;85;left;no;150;leftarrow;495;true;focus;yes;1097917;Chrome;111.0;Windows;10;undefined;undefined;1504 x 1003;1504 x 1003
H009;22;Vrouwelijk;Rechts;5;86;right;no;150;rightarrow;423;true;focus;yes;1099123;Chrome;111.0;Windows;10;undefined;undefined;1504 x 1003;1504 x 1003
H009;22;Vrouwelijk;Rechts;5;87;right;no;150;leftarrow;370;false;focus;yes;1100277;Chrome;111.0;Windows;10;undefined;undefined;1504 x 1003;1504 x 1003
H009;22;Vrouwelijk;Rechts;5;88;left;yes;150;leftarrow;499;false;focus;yes;1101553;Chrome;111.0;Windows;10;undefined;undefined;1504 x 1003;1504 x 1003
H009;22;Vrouwelijk;Rechts;5;89;left;yes;100;leftarrow;516;false;focus;yes;1102848;Chrome;111.0;Windows;10;undefined;undefined;1504 x 1003;1504 x 1003
H009;22;Vrouwelijk;Rechts;5;90;left;no;50;leftarrow;518;true;focus;yes;1104149;Chrome;111.0;Windows;10;undefined;undefined;1504 x 1003;1504 x 1003
H009;22;Vrouwelijk;Rechts;5;91;left;no;50;leftarrow;567;true;focus;yes;1105483;Chrome;111.0;Windows;10;undefined;undefined;1504 x 1003;1504 x 1003
H009;22;Vrouwelijk;Rechts;5;92;right;no;50;rightarrow;476;true;focus;yes;1106731;Chrome;111.0;Windows;10;undefined;undefined;1504 x 1003;1504 x 1003
H009;22;Vrouwelijk;Rechts;5;93;right;no;50;leftarrow;331;false;focus;yes;1107834;Chrome;111.0;Windows;10;undefined;undefined;1504 x 1003;1504 x 1003
H009;22;Vrouwelijk;Rechts;5;94;left;no;50;leftarrow;476;true;focus;yes;1109079;Chrome;111.0;Windows;10;undefined;undefined;1504 x 1003;1504 x 1003
H009;22;Vrouwelijk;Rechts;5;95;right;yes;50;rightarrow;520;false;focus;yes;1110375;Chrome;111.0;Windows;10;undefined;undefined;1504 x 1003;1504 x 1003
H009;22;Vrouwelijk;Rechts;5;96;right;no;50;leftarrow;376;false;focus;yes;1111510;Chrome;111.0;Windows;10;undefined;undefined;1504 x 1003;1504 x 1003
H009;22;Vrouwelijk;Rechts;5;97;right;yes;50;undefined;null;true;focus;yes;1113538;Chrome;111.0;Windows;10;undefined;undefined;1504 x 1003;1504 x 1003
H009;22;Vrouwelijk;Rechts;5;98;right;no;100;rightarrow;552;true;focus;yes;1114865;Chrome;111.0;Windows;10;undefined;undefined;1504 x 1003;1504 x 1003
H009;22;Vrouwelijk;Rechts;5;99;left;yes;100;leftarrow;452;false;focus;yes;1116085;Chrome;111.0;Windows;10;undefined;undefined;1504 x 1003;1504 x 1003
H009;22;Vrouwelijk;Rechts;5;100;left;no;50;leftarrow;621;true;focus;yes;1117486;Chrome;111.0;Windows;10;undefined;undefined;1504 x 1003;1504 x 1003
H009;22;Vrouwelijk;Rechts;5;101;left;no;50;leftarrow;569;true;focus;yes;1118836;Chrome;111.0;Windows;10;undefined;undefined;1504 x 1003;1504 x 1003
H009;22;Vrouwelijk;Rechts;5;102;right;no;50;leftarrow;432;false;focus;yes;1120050;Chrome;111.0;Windows;10;undefined;undefined;1504 x 1003;1504 x 1003
H009;22;Vrouwelijk;Rechts;5;103;left;no;50;leftarrow;530;true;focus;yes;1121365;Chrome;111.0;Windows;10;undefined;undefined;1504 x 1003;1504 x 1003
H009;22;Vrouwelijk;Rechts;5;104;right;no;50;rightarrow;460;true;focus;yes;1122601;Chrome;111.0;Windows;10;undefined;undefined;1504 x 1003;1504 x 1003
H009;22;Vrouwelijk;Rechts;5;105;left;no;50;leftarrow;500;true;focus;yes;1123872;Chrome;111.0;Windows;10;undefined;undefined;1504 x 1003;1504 x 1003
H009;22;Vrouwelijk;Rechts;5;106;left;no;50;leftarrow;464;true;focus;yes;1125109;Chrome;111.0;Windows;10;undefined;undefined;1504 x 1003;1504 x 1003
H009;22;Vrouwelijk;Rechts;5;107;left;no;50;leftarrow;386;true;focus;yes;1126270;Chrome;111.0;Windows;10;undefined;undefined;1504 x 1003;1504 x 1003
H009;22;Vrouwelijk;Rechts;5;108;left;yes;50;undefined;null;true;focus;yes;1128303;Chrome;111.0;Windows;10;undefined;undefined;1504 x 1003;1504 x 1003
H009;22;Vrouwelijk;Rechts;5;109;right;no;100;rightarrow;487;true;focus;yes;1129562;Chrome;111.0;Windows;10;undefined;undefined;1504 x 1003;1504 x 1003
H009;22;Vrouwelijk;Rechts;5;110;right;yes;100;undefined;null;true;focus;yes;1131593;Chrome;111.0;Windows;10;undefined;undefined;1504 x 1003;1504 x 1003
H009;22;Vrouwelijk;Rechts;5;111;right;no;150;leftarrow;353;false;focus;yes;1132723;Chrome;111.0;Windows;10;undefined;undefined;1504 x 1003;1504 x 1003
H009;22;Vrouwelijk;Rechts;5;112;right;no;150;rightarrow;454;true;focus;yes;1133955;Chrome;111.0;Windows;10;undefined;undefined;1504 x 1003;1504 x 1003
H009;22;Vrouwelijk;Rechts;5;113;left;no;150;leftarrow;404;true;focus;yes;1135127;Chrome;111.0;Windows;10;undefined;undefined;1504 x 1003;1504 x 1003
H009;22;Vrouwelijk;Rechts;5;114;left;no;150;leftarrow;430;true;focus;yes;1136324;Chrome;111.0;Windows;10;undefined;undefined;1504 x 1003;1504 x 1003
H009;22;Vrouwelijk;Rechts;5;115;right;no;150;rightarrow;630;true;focus;yes;1137720;Chrome;111.0;Windows;10;undefined;undefined;1504 x 1003;1504 x 1003
H009;22;Vrouwelijk;Rechts;5;116;left;yes;150;leftarrow;428;false;focus;yes;1138924;Chrome;111.0;Windows;10;undefined;undefined;1504 x 1003;1504 x 1003
H009;22;Vrouwelijk;Rechts;5;117;right;yes;100;rightarrow;398;false;focus;yes;1140103;Chrome;111.0;Windows;10;undefined;undefined;1504 x 1003;1504 x 1003
H009;22;Vrouwelijk;Rechts;5;118;left;no;50;leftarrow;431;true;focus;yes;1141301;Chrome;111.0;Windows;10;undefined;undefined;1504 x 1003;1504 x 1003
H009;22;Vrouwelijk;Rechts;5;119;right;no;50;rightarrow;541;true;focus;yes;1142629;Chrome;111.0;Windows;10;undefined;undefined;1504 x 1003;1504 x 1003
H009;22;Vrouwelijk;Rechts;5;120;right;no;50;rightarrow;518;true;focus;yes;1143920;Chrome;111.0;Windows;10;undefined;undefined;1504 x 1003;1504 x 1003
H009;22;Vrouwelijk;Rechts;5;121;right;no;50;rightarrow;425;true;focus;yes;1145129;Chrome;111.0;Windows;10;undefined;undefined;1504 x 1003;1504 x 1003
H009;22;Vrouwelijk;Rechts;5;122;right;no;50;rightarrow;450;true;focus;yes;1146351;Chrome;111.0;Windows;10;undefined;undefined;1504 x 1003;1504 x 1003
H009;22;Vrouwelijk;Rechts;5;123;left;yes;50;undefined;null;true;focus;yes;1148389;Chrome;111.0;Windows;10;undefined;undefined;1504 x 1003;1504 x 1003
H009;22;Vrouwelijk;Rechts;5;124;left;no;100;leftarrow;463;true;focus;yes;1149640;Chrome;111.0;Windows;10;undefined;undefined;1504 x 1003;1504 x 1003
H009;22;Vrouwelijk;Rechts;5;125;left;no;100;rightarrow;432;false;focus;yes;1150838;Chrome;111.0;Windows;10;undefined;undefined;1504 x 1003;1504 x 1003
H009;22;Vrouwelijk;Rechts;5;126;right;yes;100;undefined;null;true;focus;yes;1152880;Chrome;111.0;Windows;10;undefined;undefined;1504 x 1003;1504 x 1003
H009;22;Vrouwelijk;Rechts;5;127;left;no;150;leftarrow;405;true;focus;yes;1154058;Chrome;111.0;Windows;10;undefined;undefined;1504 x 1003;1504 x 1003
H009;22;Vrouwelijk;Rechts;5;128;right;no;150;rightarrow;522;true;focus;yes;1155355;Chrome;111.0;Windows;10;undefined;undefined;1504 x 1003;1504 x 1003
H009;22;Vrouwelijk;Rechts;6;1;left;no;150;leftarrow;492;true;focus;yes;1175175;Chrome;111.0;Windows;10;undefined;undefined;1504 x 1003;1504 x 1003
H009;22;Vrouwelijk;Rechts;6;2;left;no;150;leftarrow;483;true;focus;yes;1176435;Chrome;111.0;Windows;10;undefined;undefined;1504 x 1003;1504 x 1003
H009;22;Vrouwelijk;Rechts;6;3;right;no;150;rightarrow;757;true;focus;yes;1177966;Chrome;111.0;Windows;10;undefined;undefined;1504 x 1003;1504 x 1003
H009;22;Vrouwelijk;Rechts;6;4;left;yes;150;leftarrow;290;false;focus;yes;1179023;Chrome;111.0;Windows;10;undefined;undefined;1504 x 1003;1504 x 1003
H009;22;Vrouwelijk;Rechts;6;5;right;yes;100;rightarrow;334;false;focus;yes;1180140;Chrome;111.0;Windows;10;undefined;undefined;1504 x 1003;1504 x 1003
H009;22;Vrouwelijk;Rechts;6;6;left;no;50;leftarrow;335;true;focus;yes;1181250;Chrome;111.0;Windows;10;undefined;undefined;1504 x 1003;1504 x 1003
H009;22;Vrouwelijk;Rechts;6;7;right;no;50;rightarrow;577;true;focus;yes;1182603;Chrome;111.0;Windows;10;undefined;undefined;1504 x 1003;1504 x 1003
H009;22;Vrouwelijk;Rechts;6;8;right;no;50;rightarrow;509;true;focus;yes;1183878;Chrome;111.0;Windows;10;undefined;undefined;1504 x 1003;1504 x 1003
H009;22;Vrouwelijk;Rechts;6;9;right;no;50;rightarrow;540;true;focus;yes;1185200;Chrome;111.0;Windows;10;undefined;undefined;1504 x 1003;1504 x 1003
H009;22;Vrouwelijk;Rechts;6;10;left;no;50;leftarrow;495;true;focus;yes;1186462;Chrome;111.0;Windows;10;undefined;undefined;1504 x 1003;1504 x 1003
H009;22;Vrouwelijk;Rechts;6;11;left;no;50;leftarrow;511;true;focus;yes;1187750;Chrome;111.0;Windows;10;undefined;undefined;1504 x 1003;1504 x 1003
H009;22;Vrouwelijk;Rechts;6;12;right;no;50;rightarrow;487;true;focus;yes;1189006;Chrome;111.0;Windows;10;undefined;undefined;1504 x 1003;1504 x 1003
H009;22;Vrouwelijk;Rechts;6;13;left;no;50;leftarrow;461;true;focus;yes;1190251;Chrome;111.0;Windows;10;undefined;undefined;1504 x 1003;1504 x 1003
H009;22;Vrouwelijk;Rechts;6;14;right;yes;50;rightarrow;359;false;focus;yes;1191401;Chrome;111.0;Windows;10;undefined;undefined;1504 x 1003;1504 x 1003
H009;22;Vrouwelijk;Rechts;6;15;right;no;50;leftarrow;457;false;focus;yes;1192635;Chrome;111.0;Windows;10;undefined;undefined;1504 x 1003;1504 x 1003
H009;22;Vrouwelijk;Rechts;6;16;left;yes;50;undefined;null;true;focus;yes;1194685;Chrome;111.0;Windows;10;undefined;undefined;1504 x 1003;1504 x 1003
H009;22;Vrouwelijk;Rechts;6;17;left;yes;100;undefined;null;true;focus;yes;1196727;Chrome;111.0;Windows;10;undefined;undefined;1504 x 1003;1504 x 1003
H009;22;Vrouwelijk;Rechts;6;18;right;no;150;rightarrow;579;true;focus;yes;1198080;Chrome;111.0;Windows;10;undefined;undefined;1504 x 1003;1504 x 1003
H009;22;Vrouwelijk;Rechts;6;19;left;no;150;leftarrow;506;true;focus;yes;1199356;Chrome;111.0;Windows;10;undefined;undefined;1504 x 1003;1504 x 1003
