participantID;age;gender;handedness;block_i;trial_i;stim;signal;SSD;response;rt;correct;focus;Fullscreen;time_elapsed;browser_name;browser_version;os_name;os_version;tablet;mobile;screen_resolution;window_resolution
H039;26;Vrouwelijk;Rechts;0;1;right;no;200;rightarrow;410;true;focus;yes;75930;Chrome;112.0;Windows;10;undefined;undefined;1920 x 1080;1920 x 1080
H039;26;Vrouwelijk;Rechts;0;2;right;yes;200;leftarrow;266;false;focus;yes;77714;Chrome;112.0;Windows;10;undefined;undefined;1920 x 1080;1920 x 1080
H039;26;Vrouwelijk;Rechts;0;3;left;yes;150;leftarrow;271;false;focus;yes;79514;Chrome;112.0;Windows;10;undefined;undefined;1920 x 1080;1920 x 1080
H039;26;Vrouwelijk;Rechts;0;4;right;no;100;rightarrow;376;true;focus;yes;81410;Chrome;112.0;Windows;10;undefined;undefined;1920 x 1080;1920 x 1080
H039;26;Vrouwelijk;Rechts;0;5;right;no;100;rightarrow;337;true;focus;yes;83274;Chrome;112.0;Windows;10;undefined;undefined;1920 x 1080;1920 x 1080
H039;26;Vrouwelijk;Rechts;0;6;left;no;100;leftarrow;522;true;focus;yes;85314;Chrome;112.0;Windows;10;undefined;undefined;1920 x 1080;1920 x 1080
H039;26;Vrouwelijk;Rechts;0;7;left;no;100;leftarrow;476;true;focus;yes;87314;Chrome;112.0;Windows;10;undefined;undefined;1920 x 1080;1920 x 1080
H039;26;Vrouwelijk;Rechts;0;8;left;no;100;leftarrow;477;true;focus;yes;89314;Chrome;112.0;Windows;10;undefined;undefined;1920 x 1080;1920 x 1080
H039;26;Vrouwelijk;Rechts;1;1;right;yes;100;rightarrow;375;false;focus;yes;109346;Chrome;112.0;Windows;10;undefined;undefined;1920 x 1080;1920 x 1080
H039;26;Vrouwelijk;Rechts;1;2;right;no;50;rightarrow;429;true;focus;yes;110546;Chrome;112.0;Windows;10;undefined;undefined;1920 x 1080;1920 x 1080
H039;26;Vrouwelijk;Rechts;1;3;right;no;50;rightarrow;358;true;focus;yes;111674;Chrome;112.0;Windows;10;undefined;undefined;1920 x 1080;1920 x 1080
H039;26;Vrouwelijk;Rechts;1;4;left;no;50;leftarrow;407;true;focus;yes;112842;Chrome;112.0;Windows;10;undefined;undefined;1920 x 1080;1920 x 1080
H039;26;Vrouwelijk;Rechts;1;5;left;yes;50;undefined;null;true;focus;yes;114855;Chrome;112.0;Windows;10;undefined;undefined;1920 x 1080;1920 x 1080
H039;26;Vrouwelijk;Rechts;1;6;right;no;100;rightarrow;385;true;focus;yes;116003;Chrome;112.0;Windows;10;undefined;undefined;1920 x 1080;1920 x 1080
H039;26;Vrouwelijk;Rechts;1;7;left;no;100;leftarrow;387;true;focus;yes;117155;Chrome;112.0;Windows;10;undefined;undefined;1920 x 1080;1920 x 1080
H039;26;Vrouwelijk;Rechts;1;8;left;no;100;leftarrow;341;true;focus;yes;118259;Chrome;112.0;Windows;10;undefined;undefined;1920 x 1080;1920 x 1080
H039;26;Vrouwelijk;Rechts;1;9;right;no;100;rightarrow;493;true;focus;yes;119515;Chrome;112.0;Windows;10;undefined;undefined;1920 x 1080;1920 x 1080
H039;26;Vrouwelijk;Rechts;1;10;left;no;100;leftarrow;317;true;focus;yes;120603;Chrome;112.0;Windows;10;undefined;undefined;1920 x 1080;1920 x 1080
H039;26;Vrouwelijk;Rechts;1;11;right;no;100;rightarrow;343;true;focus;yes;121715;Chrome;112.0;Windows;10;undefined;undefined;1920 x 1080;1920 x 1080
H039;26;Vrouwelijk;Rechts;1;12;right;no;100;rightarrow;431;true;focus;yes;122907;Chrome;112.0;Windows;10;undefined;undefined;1920 x 1080;1920 x 1080
H039;26;Vrouwelijk;Rechts;1;13;left;no;100;leftarrow;352;true;focus;yes;124027;Chrome;112.0;Windows;10;undefined;undefined;1920 x 1080;1920 x 1080
H039;26;Vrouwelijk;Rechts;1;14;left;yes;100;leftarrow;368;false;focus;yes;125163;Chrome;112.0;Windows;10;undefined;undefined;1920 x 1080;1920 x 1080
H039;26;Vrouwelijk;Rechts;1;15;right;yes;50;undefined;null;true;focus;yes;127196;Chrome;112.0;Windows;10;undefined;undefined;1920 x 1080;1920 x 1080
H039;26;Vrouwelijk;Rechts;1;16;left;no;100;leftarrow;412;true;focus;yes;128371;Chrome;112.0;Windows;10;undefined;undefined;1920 x 1080;1920 x 1080
H039;26;Vrouwelijk;Rechts;1;17;left;no;100;leftarrow;356;true;focus;yes;129499;Chrome;112.0;Windows;10;undefined;undefined;1920 x 1080;1920 x 1080
H039;26;Vrouwelijk;Rechts;1;18;left;no;100;leftarrow;413;true;focus;yes;130675;Chrome;112.0;Windows;10;undefined;undefined;1920 x 1080;1920 x 1080
H039;26;Vrouwelijk;Rechts;1;19;right;no;100;rightarrow;502;true;focus;yes;131947;Chrome;112.0;Windows;10;undefined;undefined;1920 x 1080;1920 x 1080
H039;26;Vrouwelijk;Rechts;1;20;right;no;100;rightarrow;431;true;focus;yes;133139;Chrome;112.0;Windows;10;undefined;undefined;1920 x 1080;1920 x 1080
H039;26;Vrouwelijk;Rechts;1;21;left;no;100;leftarrow;543;true;focus;yes;134451;Chrome;112.0;Windows;10;undefined;undefined;1920 x 1080;1920 x 1080
H039;26;Vrouwelijk;Rechts;1;22;left;yes;100;undefined;null;true;focus;yes;136471;Chrome;112.0;Windows;10;undefined;undefined;1920 x 1080;1920 x 1080
H039;26;Vrouwelijk;Rechts;1;23;right;yes;150;undefined;null;true;focus;yes;138486;Chrome;112.0;Windows;10;undefined;undefined;1920 x 1080;1920 x 1080
H039;26;Vrouwelijk;Rechts;1;24;right;no;200;rightarrow;411;true;focus;yes;139659;Chrome;112.0;Windows;10;undefined;undefined;1920 x 1080;1920 x 1080
H039;26;Vrouwelijk;Rechts;1;25;right;no;200;rightarrow;420;true;focus;yes;140851;Chrome;112.0;Windows;10;undefined;undefined;1920 x 1080;1920 x 1080
H039;26;Vrouwelijk;Rechts;1;26;right;no;200;rightarrow;453;true;focus;yes;142067;Chrome;112.0;Windows;10;undefined;undefined;1920 x 1080;1920 x 1080
H039;26;Vrouwelijk;Rechts;1;27;left;yes;200;undefined;null;true;focus;yes;144081;Chrome;112.0;Windows;10;undefined;undefined;1920 x 1080;1920 x 1080
H039;26;Vrouwelijk;Rechts;1;28;right;yes;250;rightarrow;423;false;focus;yes;145267;Chrome;112.0;Windows;10;undefined;undefined;1920 x 1080;1920 x 1080
H039;26;Vrouwelijk;Rechts;1;29;left;no;200;leftarrow;399;true;focus;yes;146427;Chrome;112.0;Windows;10;undefined;undefined;1920 x 1080;1920 x 1080
H039;26;Vrouwelijk;Rechts;1;30;left;no;200;leftarrow;514;true;focus;yes;147707;Chrome;112.0;Windows;10;undefined;undefined;1920 x 1080;1920 x 1080
H039;26;Vrouwelijk;Rechts;1;31;right;no;200;rightarrow;507;true;focus;yes;148979;Chrome;112.0;Windows;10;undefined;undefined;1920 x 1080;1920 x 1080
H039;26;Vrouwelijk;Rechts;1;32;left;no;200;leftarrow;450;true;focus;yes;150203;Chrome;112.0;Windows;10;undefined;undefined;1920 x 1080;1920 x 1080
H039;26;Vrouwelijk;Rechts;1;33;right;no;200;rightarrow;426;true;focus;yes;151395;Chrome;112.0;Windows;10;undefined;undefined;1920 x 1080;1920 x 1080
H039;26;Vrouwelijk;Rechts;1;34;right;yes;200;undefined;null;true;focus;yes;153412;Chrome;112.0;Windows;10;undefined;undefined;1920 x 1080;1920 x 1080
H039;26;Vrouwelijk;Rechts;1;35;right;no;250;rightarrow;397;true;focus;yes;154571;Chrome;112.0;Windows;10;undefined;undefined;1920 x 1080;1920 x 1080
H039;26;Vrouwelijk;Rechts;1;36;right;no;250;rightarrow;446;true;focus;yes;155787;Chrome;112.0;Windows;10;undefined;undefined;1920 x 1080;1920 x 1080
H039;26;Vrouwelijk;Rechts;1;37;left;yes;250;undefined;null;true;focus;yes;157810;Chrome;112.0;Windows;10;undefined;undefined;1920 x 1080;1920 x 1080
H039;26;Vrouwelijk;Rechts;1;38;left;no;300;leftarrow;487;true;focus;yes;159059;Chrome;112.0;Windows;10;undefined;undefined;1920 x 1080;1920 x 1080
H039;26;Vrouwelijk;Rechts;1;39;left;no;300;leftarrow;401;true;focus;yes;160219;Chrome;112.0;Windows;10;undefined;undefined;1920 x 1080;1920 x 1080
H039;26;Vrouwelijk;Rechts;1;40;left;no;300;leftarrow;417;true;focus;yes;161403;Chrome;112.0;Windows;10;undefined;undefined;1920 x 1080;1920 x 1080
H039;26;Vrouwelijk;Rechts;1;41;left;yes;300;undefined;null;true;focus;yes;163420;Chrome;112.0;Windows;10;undefined;undefined;1920 x 1080;1920 x 1080
H039;26;Vrouwelijk;Rechts;1;42;right;no;350;rightarrow;514;true;focus;yes;164691;Chrome;112.0;Windows;10;undefined;undefined;1920 x 1080;1920 x 1080
H039;26;Vrouwelijk;Rechts;1;43;left;no;350;leftarrow;556;true;focus;yes;166019;Chrome;112.0;Windows;10;undefined;undefined;1920 x 1080;1920 x 1080
H039;26;Vrouwelijk;Rechts;1;44;right;no;350;rightarrow;518;true;focus;yes;167307;Chrome;112.0;Windows;10;undefined;undefined;1920 x 1080;1920 x 1080
H039;26;Vrouwelijk;Rechts;1;45;left;no;350;leftarrow;614;true;focus;yes;168683;Chrome;112.0;Windows;10;undefined;undefined;1920 x 1080;1920 x 1080
H039;26;Vrouwelijk;Rechts;1;46;right;yes;350;rightarrow;520;false;focus;yes;169963;Chrome;112.0;Windows;10;undefined;undefined;1920 x 1080;1920 x 1080
H039;26;Vrouwelijk;Rechts;1;47;right;no;300;rightarrow;583;true;focus;yes;171307;Chrome;112.0;Windows;10;undefined;undefined;1920 x 1080;1920 x 1080
H039;26;Vrouwelijk;Rechts;1;48;left;no;300;leftarrow;560;true;focus;yes;172627;Chrome;112.0;Windows;10;undefined;undefined;1920 x 1080;1920 x 1080
H039;26;Vrouwelijk;Rechts;1;49;right;no;300;rightarrow;528;true;focus;yes;173923;Chrome;112.0;Windows;10;undefined;undefined;1920 x 1080;1920 x 1080
H039;26;Vrouwelijk;Rechts;1;50;right;yes;300;undefined;null;true;focus;yes;175946;Chrome;112.0;Windows;10;undefined;undefined;1920 x 1080;1920 x 1080
H039;26;Vrouwelijk;Rechts;1;51;left;no;350;leftarrow;661;true;focus;yes;177370;Chrome;112.0;Windows;10;undefined;undefined;1920 x 1080;1920 x 1080
H039;26;Vrouwelijk;Rechts;1;52;left;no;350;leftarrow;408;true;focus;yes;178538;Chrome;112.0;Windows;10;undefined;undefined;1920 x 1080;1920 x 1080
H039;26;Vrouwelijk;Rechts;1;53;right;no;350;rightarrow;682;true;focus;yes;179978;Chrome;112.0;Windows;10;undefined;undefined;1920 x 1080;1920 x 1080
H039;26;Vrouwelijk;Rechts;1;54;left;no;350;leftarrow;530;true;focus;yes;181266;Chrome;112.0;Windows;10;undefined;undefined;1920 x 1080;1920 x 1080
H039;26;Vrouwelijk;Rechts;1;55;right;no;350;rightarrow;484;true;focus;yes;182514;Chrome;112.0;Windows;10;undefined;undefined;1920 x 1080;1920 x 1080
H039;26;Vrouwelijk;Rechts;1;56;left;yes;350;leftarrow;515;false;focus;yes;183794;Chrome;112.0;Windows;10;undefined;undefined;1920 x 1080;1920 x 1080
H039;26;Vrouwelijk;Rechts;1;57;left;yes;300;undefined;null;true;focus;yes;185811;Chrome;112.0;Windows;10;undefined;undefined;1920 x 1080;1920 x 1080
H039;26;Vrouwelijk;Rechts;1;58;left;no;350;leftarrow;548;true;focus;yes;187122;Chrome;112.0;Windows;10;undefined;undefined;1920 x 1080;1920 x 1080
H039;26;Vrouwelijk;Rechts;1;59;right;no;350;rightarrow;526;true;focus;yes;188410;Chrome;112.0;Windows;10;undefined;undefined;1920 x 1080;1920 x 1080
H039;26;Vrouwelijk;Rechts;1;60;right;no;350;rightarrow;550;true;focus;yes;189730;Chrome;112.0;Windows;10;undefined;undefined;1920 x 1080;1920 x 1080
H039;26;Vrouwelijk;Rechts;1;61;left;no;350;leftarrow;711;true;focus;yes;191202;Chrome;112.0;Windows;10;undefined;undefined;1920 x 1080;1920 x 1080
H039;26;Vrouwelijk;Rechts;1;62;left;no;350;leftarrow;617;true;focus;yes;192578;Chrome;112.0;Windows;10;undefined;undefined;1920 x 1080;1920 x 1080
H039;26;Vrouwelijk;Rechts;1;63;right;no;350;rightarrow;712;true;focus;yes;194050;Chrome;112.0;Windows;10;undefined;undefined;1920 x 1080;1920 x 1080
H039;26;Vrouwelijk;Rechts;1;64;right;yes;350;undefined;null;true;focus;yes;196060;Chrome;112.0;Windows;10;undefined;undefined;1920 x 1080;1920 x 1080
H039;26;Vrouwelijk;Rechts;1;65;left;yes;400;leftarrow;555;false;focus;yes;197378;Chrome;112.0;Windows;10;undefined;undefined;1920 x 1080;1920 x 1080
H039;26;Vrouwelijk;Rechts;1;66;left;no;350;leftarrow;484;true;focus;yes;198634;Chrome;112.0;Windows;10;undefined;undefined;1920 x 1080;1920 x 1080
H039;26;Vrouwelijk;Rechts;1;67;right;no;350;rightarrow;515;true;focus;yes;199914;Chrome;112.0;Windows;10;undefined;undefined;1920 x 1080;1920 x 1080
H039;26;Vrouwelijk;Rechts;1;68;right;no;350;rightarrow;611;true;focus;yes;201290;Chrome;112.0;Windows;10;undefined;undefined;1920 x 1080;1920 x 1080
H039;26;Vrouwelijk;Rechts;1;69;left;no;350;leftarrow;516;true;focus;yes;202570;Chrome;112.0;Windows;10;undefined;undefined;1920 x 1080;1920 x 1080
H039;26;Vrouwelijk;Rechts;1;70;right;no;350;rightarrow;565;true;focus;yes;203898;Chrome;112.0;Windows;10;undefined;undefined;1920 x 1080;1920 x 1080
H039;26;Vrouwelijk;Rechts;1;71;left;no;350;leftarrow;567;true;focus;yes;205226;Chrome;112.0;Windows;10;undefined;undefined;1920 x 1080;1920 x 1080
H039;26;Vrouwelijk;Rechts;1;72;right;yes;350;rightarrow;519;false;focus;yes;206506;Chrome;112.0;Windows;10;undefined;undefined;1920 x 1080;1920 x 1080
H039;26;Vrouwelijk;Rechts;1;73;left;yes;300;leftarrow;497;false;focus;yes;207762;Chrome;112.0;Windows;10;undefined;undefined;1920 x 1080;1920 x 1080
H039;26;Vrouwelijk;Rechts;1;74;right;no;250;rightarrow;570;true;focus;yes;209098;Chrome;112.0;Windows;10;undefined;undefined;1920 x 1080;1920 x 1080
H039;26;Vrouwelijk;Rechts;1;75;left;no;250;leftarrow;401;true;focus;yes;210258;Chrome;112.0;Windows;10;undefined;undefined;1920 x 1080;1920 x 1080
H039;26;Vrouwelijk;Rechts;1;76;left;no;250;leftarrow;657;true;focus;yes;211682;Chrome;112.0;Windows;10;undefined;undefined;1920 x 1080;1920 x 1080
H039;26;Vrouwelijk;Rechts;1;77;right;no;250;rightarrow;460;true;focus;yes;212906;Chrome;112.0;Windows;10;undefined;undefined;1920 x 1080;1920 x 1080
H039;26;Vrouwelijk;Rechts;1;78;right;no;250;rightarrow;556;true;focus;yes;214234;Chrome;112.0;Windows;10;undefined;undefined;1920 x 1080;1920 x 1080
H039;26;Vrouwelijk;Rechts;1;79;left;no;250;leftarrow;549;true;focus;yes;215554;Chrome;112.0;Windows;10;undefined;undefined;1920 x 1080;1920 x 1080
H039;26;Vrouwelijk;Rechts;1;80;right;yes;250;undefined;null;true;focus;yes;217568;Chrome;112.0;Windows;10;undefined;undefined;1920 x 1080;1920 x 1080
H039;26;Vrouwelijk;Rechts;1;81;right;no;300;rightarrow;494;true;focus;yes;218826;Chrome;112.0;Windows;10;undefined;undefined;1920 x 1080;1920 x 1080
H039;26;Vrouwelijk;Rechts;1;82;right;no;300;rightarrow;552;true;focus;yes;220146;Chrome;112.0;Windows;10;undefined;undefined;1920 x 1080;1920 x 1080
H039;26;Vrouwelijk;Rechts;1;83;left;yes;300;undefined;null;true;focus;yes;222159;Chrome;112.0;Windows;10;undefined;undefined;1920 x 1080;1920 x 1080
H039;26;Vrouwelijk;Rechts;1;84;left;no;350;leftarrow;559;true;focus;yes;223482;Chrome;112.0;Windows;10;undefined;undefined;1920 x 1080;1920 x 1080
H039;26;Vrouwelijk;Rechts;1;85;right;no;350;rightarrow;546;true;focus;yes;224795;Chrome;112.0;Windows;10;undefined;undefined;1920 x 1080;1920 x 1080
H039;26;Vrouwelijk;Rechts;1;86;right;yes;350;undefined;null;true;focus;yes;226811;Chrome;112.0;Windows;10;undefined;undefined;1920 x 1080;1920 x 1080
H039;26;Vrouwelijk;Rechts;1;87;left;no;400;leftarrow;540;true;focus;yes;228114;Chrome;112.0;Windows;10;undefined;undefined;1920 x 1080;1920 x 1080
H039;26;Vrouwelijk;Rechts;1;88;left;no;400;leftarrow;593;true;focus;yes;229474;Chrome;112.0;Windows;10;undefined;undefined;1920 x 1080;1920 x 1080
H039;26;Vrouwelijk;Rechts;1;89;right;yes;400;rightarrow;506;false;focus;yes;230746;Chrome;112.0;Windows;10;undefined;undefined;1920 x 1080;1920 x 1080
H039;26;Vrouwelijk;Rechts;1;90;right;no;350;rightarrow;530;true;focus;yes;232050;Chrome;112.0;Windows;10;undefined;undefined;1920 x 1080;1920 x 1080
H039;26;Vrouwelijk;Rechts;1;91;left;yes;350;undefined;null;true;focus;yes;234067;Chrome;112.0;Windows;10;undefined;undefined;1920 x 1080;1920 x 1080
H039;26;Vrouwelijk;Rechts;1;92;left;no;400;leftarrow;738;true;focus;yes;235563;Chrome;112.0;Windows;10;undefined;undefined;1920 x 1080;1920 x 1080
H039;26;Vrouwelijk;Rechts;1;93;left;no;400;leftarrow;671;true;focus;yes;237002;Chrome;112.0;Windows;10;undefined;undefined;1920 x 1080;1920 x 1080
H039;26;Vrouwelijk;Rechts;1;94;left;no;400;leftarrow;520;true;focus;yes;238291;Chrome;112.0;Windows;10;undefined;undefined;1920 x 1080;1920 x 1080
H039;26;Vrouwelijk;Rechts;1;95;right;no;400;rightarrow;569;true;focus;yes;239619;Chrome;112.0;Windows;10;undefined;undefined;1920 x 1080;1920 x 1080
H039;26;Vrouwelijk;Rechts;1;96;right;no;400;rightarrow;681;true;focus;yes;241059;Chrome;112.0;Windows;10;undefined;undefined;1920 x 1080;1920 x 1080
H039;26;Vrouwelijk;Rechts;1;97;right;no;400;rightarrow;627;true;focus;yes;242459;Chrome;112.0;Windows;10;undefined;undefined;1920 x 1080;1920 x 1080
H039;26;Vrouwelijk;Rechts;1;98;right;yes;400;undefined;null;true;focus;yes;244473;Chrome;112.0;Windows;10;undefined;undefined;1920 x 1080;1920 x 1080
H039;26;Vrouwelijk;Rechts;1;99;left;yes;450;leftarrow;575;false;focus;yes;245811;Chrome;112.0;Windows;10;undefined;undefined;1920 x 1080;1920 x 1080
H039;26;Vrouwelijk;Rechts;1;100;right;no;400;rightarrow;559;true;focus;yes;247139;Chrome;112.0;Windows;10;undefined;undefined;1920 x 1080;1920 x 1080
H039;26;Vrouwelijk;Rechts;1;101;left;no;400;leftarrow;463;true;focus;yes;248371;Chrome;112.0;Windows;10;undefined;undefined;1920 x 1080;1920 x 1080
H039;26;Vrouwelijk;Rechts;1;102;right;no;400;rightarrow;529;true;focus;yes;249666;Chrome;112.0;Windows;10;undefined;undefined;1920 x 1080;1920 x 1080
H039;26;Vrouwelijk;Rechts;1;103;left;no;400;leftarrow;594;true;focus;yes;251027;Chrome;112.0;Windows;10;undefined;undefined;1920 x 1080;1920 x 1080
H039;26;Vrouwelijk;Rechts;1;104;left;no;400;leftarrow;641;true;focus;yes;252435;Chrome;112.0;Windows;10;undefined;undefined;1920 x 1080;1920 x 1080
H039;26;Vrouwelijk;Rechts;1;105;right;no;400;rightarrow;809;true;focus;yes;254011;Chrome;112.0;Windows;10;undefined;undefined;1920 x 1080;1920 x 1080
H039;26;Vrouwelijk;Rechts;1;106;left;no;400;leftarrow;677;true;focus;yes;255459;Chrome;112.0;Windows;10;undefined;undefined;1920 x 1080;1920 x 1080
H039;26;Vrouwelijk;Rechts;1;107;right;yes;400;undefined;null;true;focus;yes;257476;Chrome;112.0;Windows;10;undefined;undefined;1920 x 1080;1920 x 1080
H039;26;Vrouwelijk;Rechts;1;108;right;no;450;rightarrow;660;true;focus;yes;258899;Chrome;112.0;Windows;10;undefined;undefined;1920 x 1080;1920 x 1080
H039;26;Vrouwelijk;Rechts;1;109;left;no;450;leftarrow;532;true;focus;yes;260195;Chrome;112.0;Windows;10;undefined;undefined;1920 x 1080;1920 x 1080
H039;26;Vrouwelijk;Rechts;1;110;right;no;450;rightarrow;598;true;focus;yes;261555;Chrome;112.0;Windows;10;undefined;undefined;1920 x 1080;1920 x 1080
H039;26;Vrouwelijk;Rechts;1;111;left;yes;450;leftarrow;548;false;focus;yes;262866;Chrome;112.0;Windows;10;undefined;undefined;1920 x 1080;1920 x 1080
H039;26;Vrouwelijk;Rechts;1;112;left;no;400;leftarrow;536;true;focus;yes;264163;Chrome;112.0;Windows;10;undefined;undefined;1920 x 1080;1920 x 1080
H039;26;Vrouwelijk;Rechts;1;113;right;no;400;rightarrow;632;true;focus;yes;265555;Chrome;112.0;Windows;10;undefined;undefined;1920 x 1080;1920 x 1080
H039;26;Vrouwelijk;Rechts;1;114;right;yes;400;rightarrow;560;false;focus;yes;266875;Chrome;112.0;Windows;10;undefined;undefined;1920 x 1080;1920 x 1080
H039;26;Vrouwelijk;Rechts;1;115;left;no;350;leftarrow;482;true;focus;yes;268123;Chrome;112.0;Windows;10;undefined;undefined;1920 x 1080;1920 x 1080
H039;26;Vrouwelijk;Rechts;1;116;left;no;350;leftarrow;668;true;focus;yes;269555;Chrome;112.0;Windows;10;undefined;undefined;1920 x 1080;1920 x 1080
H039;26;Vrouwelijk;Rechts;1;117;right;no;350;rightarrow;781;true;focus;yes;271107;Chrome;112.0;Windows;10;undefined;undefined;1920 x 1080;1920 x 1080
H039;26;Vrouwelijk;Rechts;1;118;left;no;350;leftarrow;573;true;focus;yes;272451;Chrome;112.0;Windows;10;undefined;undefined;1920 x 1080;1920 x 1080
H039;26;Vrouwelijk;Rechts;1;119;left;yes;350;undefined;null;true;focus;yes;274474;Chrome;112.0;Windows;10;undefined;undefined;1920 x 1080;1920 x 1080
H039;26;Vrouwelijk;Rechts;1;120;right;no;400;rightarrow;445;true;focus;yes;275683;Chrome;112.0;Windows;10;undefined;undefined;1920 x 1080;1920 x 1080
H039;26;Vrouwelijk;Rechts;1;121;right;no;400;rightarrow;454;true;focus;yes;276907;Chrome;112.0;Windows;10;undefined;undefined;1920 x 1080;1920 x 1080
H039;26;Vrouwelijk;Rechts;1;122;left;no;400;leftarrow;734;true;focus;yes;278403;Chrome;112.0;Windows;10;undefined;undefined;1920 x 1080;1920 x 1080
H039;26;Vrouwelijk;Rechts;1;123;right;no;400;rightarrow;758;true;focus;yes;279931;Chrome;112.0;Windows;10;undefined;undefined;1920 x 1080;1920 x 1080
H039;26;Vrouwelijk;Rechts;1;124;right;no;400;rightarrow;784;true;focus;yes;281475;Chrome;112.0;Windows;10;undefined;undefined;1920 x 1080;1920 x 1080
H039;26;Vrouwelijk;Rechts;1;125;left;no;400;leftarrow;760;true;focus;yes;283003;Chrome;112.0;Windows;10;undefined;undefined;1920 x 1080;1920 x 1080
H039;26;Vrouwelijk;Rechts;1;126;left;yes;400;undefined;null;true;focus;yes;285014;Chrome;112.0;Windows;10;undefined;undefined;1920 x 1080;1920 x 1080
H039;26;Vrouwelijk;Rechts;1;127;left;no;450;leftarrow;618;true;focus;yes;286395;Chrome;112.0;Windows;10;undefined;undefined;1920 x 1080;1920 x 1080
H039;26;Vrouwelijk;Rechts;1;128;right;yes;450;rightarrow;595;false;focus;yes;287763;Chrome;112.0;Windows;10;undefined;undefined;1920 x 1080;1920 x 1080
H039;26;Vrouwelijk;Rechts;2;1;right;yes;400;rightarrow;562;false;focus;yes;309034;Chrome;112.0;Windows;10;undefined;undefined;1920 x 1080;1920 x 1080
H039;26;Vrouwelijk;Rechts;2;2;right;no;350;rightarrow;764;true;focus;yes;310562;Chrome;112.0;Windows;10;undefined;undefined;1920 x 1080;1920 x 1080
H039;26;Vrouwelijk;Rechts;2;3;left;no;350;leftarrow;604;true;focus;yes;311938;Chrome;112.0;Windows;10;undefined;undefined;1920 x 1080;1920 x 1080
H039;26;Vrouwelijk;Rechts;2;4;right;no;350;rightarrow;614;true;focus;yes;313322;Chrome;112.0;Windows;10;undefined;undefined;1920 x 1080;1920 x 1080
H039;26;Vrouwelijk;Rechts;2;5;left;no;350;leftarrow;487;true;focus;yes;314570;Chrome;112.0;Windows;10;undefined;undefined;1920 x 1080;1920 x 1080
H039;26;Vrouwelijk;Rechts;2;6;left;yes;350;leftarrow;454;false;focus;yes;315786;Chrome;112.0;Windows;10;undefined;undefined;1920 x 1080;1920 x 1080
H039;26;Vrouwelijk;Rechts;2;7;right;no;300;rightarrow;535;true;focus;yes;317082;Chrome;112.0;Windows;10;undefined;undefined;1920 x 1080;1920 x 1080
H039;26;Vrouwelijk;Rechts;2;8;left;no;300;leftarrow;496;true;focus;yes;318338;Chrome;112.0;Windows;10;undefined;undefined;1920 x 1080;1920 x 1080
H039;26;Vrouwelijk;Rechts;2;9;right;yes;300;undefined;null;true;focus;yes;320357;Chrome;112.0;Windows;10;undefined;undefined;1920 x 1080;1920 x 1080
H039;26;Vrouwelijk;Rechts;2;10;right;no;350;rightarrow;547;true;focus;yes;321666;Chrome;112.0;Windows;10;undefined;undefined;1920 x 1080;1920 x 1080
H039;26;Vrouwelijk;Rechts;2;11;left;yes;350;undefined;null;true;focus;yes;323687;Chrome;112.0;Windows;10;undefined;undefined;1920 x 1080;1920 x 1080
H039;26;Vrouwelijk;Rechts;2;12;left;no;400;leftarrow;553;true;focus;yes;325002;Chrome;112.0;Windows;10;undefined;undefined;1920 x 1080;1920 x 1080
H039;26;Vrouwelijk;Rechts;2;13;right;no;400;rightarrow;529;true;focus;yes;326290;Chrome;112.0;Windows;10;undefined;undefined;1920 x 1080;1920 x 1080
H039;26;Vrouwelijk;Rechts;2;14;right;no;400;rightarrow;579;true;focus;yes;327634;Chrome;112.0;Windows;10;undefined;undefined;1920 x 1080;1920 x 1080
H039;26;Vrouwelijk;Rechts;2;15;left;no;400;leftarrow;604;true;focus;yes;329003;Chrome;112.0;Windows;10;undefined;undefined;1920 x 1080;1920 x 1080
H039;26;Vrouwelijk;Rechts;2;16;left;no;400;leftarrow;597;true;focus;yes;330370;Chrome;112.0;Windows;10;undefined;undefined;1920 x 1080;1920 x 1080
H039;26;Vrouwelijk;Rechts;2;17;left;no;400;leftarrow;598;true;focus;yes;331730;Chrome;112.0;Windows;10;undefined;undefined;1920 x 1080;1920 x 1080
H039;26;Vrouwelijk;Rechts;2;18;right;no;400;rightarrow;536;true;focus;yes;333026;Chrome;112.0;Windows;10;undefined;undefined;1920 x 1080;1920 x 1080
H039;26;Vrouwelijk;Rechts;2;19;left;no;400;leftarrow;520;true;focus;yes;334306;Chrome;112.0;Windows;10;undefined;undefined;1920 x 1080;1920 x 1080
H039;26;Vrouwelijk;Rechts;2;20;left;no;400;leftarrow;695;true;focus;yes;335762;Chrome;112.0;Windows;10;undefined;undefined;1920 x 1080;1920 x 1080
H039;26;Vrouwelijk;Rechts;2;21;left;yes;400;undefined;null;true;focus;yes;337773;Chrome;112.0;Windows;10;undefined;undefined;1920 x 1080;1920 x 1080
H039;26;Vrouwelijk;Rechts;2;22;right;no;450;rightarrow;555;true;focus;yes;339091;Chrome;112.0;Windows;10;undefined;undefined;1920 x 1080;1920 x 1080
H039;26;Vrouwelijk;Rechts;2;23;right;yes;450;rightarrow;580;false;focus;yes;340442;Chrome;112.0;Windows;10;undefined;undefined;1920 x 1080;1920 x 1080
H039;26;Vrouwelijk;Rechts;2;24;right;no;400;rightarrow;645;true;focus;yes;341850;Chrome;112.0;Windows;10;undefined;undefined;1920 x 1080;1920 x 1080
H039;26;Vrouwelijk;Rechts;2;25;left;no;400;leftarrow;603;true;focus;yes;343218;Chrome;112.0;Windows;10;undefined;undefined;1920 x 1080;1920 x 1080
H039;26;Vrouwelijk;Rechts;2;26;left;no;400;leftarrow;757;true;focus;yes;344746;Chrome;112.0;Windows;10;undefined;undefined;1920 x 1080;1920 x 1080
H039;26;Vrouwelijk;Rechts;2;27;right;no;400;rightarrow;782;true;focus;yes;346290;Chrome;112.0;Windows;10;undefined;undefined;1920 x 1080;1920 x 1080
H039;26;Vrouwelijk;Rechts;2;28;left;no;400;leftarrow;710;true;focus;yes;347770;Chrome;112.0;Windows;10;undefined;undefined;1920 x 1080;1920 x 1080
H039;26;Vrouwelijk;Rechts;2;29;left;yes;400;leftarrow;489;false;focus;yes;349018;Chrome;112.0;Windows;10;undefined;undefined;1920 x 1080;1920 x 1080
H039;26;Vrouwelijk;Rechts;2;30;right;no;350;rightarrow;560;true;focus;yes;350339;Chrome;112.0;Windows;10;undefined;undefined;1920 x 1080;1920 x 1080
H039;26;Vrouwelijk;Rechts;2;31;right;yes;350;rightarrow;569;false;focus;yes;351674;Chrome;112.0;Windows;10;undefined;undefined;1920 x 1080;1920 x 1080
H039;26;Vrouwelijk;Rechts;2;32;right;no;300;rightarrow;642;true;focus;yes;353074;Chrome;112.0;Windows;10;undefined;undefined;1920 x 1080;1920 x 1080
H039;26;Vrouwelijk;Rechts;2;33;left;yes;300;undefined;null;true;focus;yes;355094;Chrome;112.0;Windows;10;undefined;undefined;1920 x 1080;1920 x 1080
H039;26;Vrouwelijk;Rechts;2;34;right;no;350;rightarrow;474;true;focus;yes;356330;Chrome;112.0;Windows;10;undefined;undefined;1920 x 1080;1920 x 1080
H039;26;Vrouwelijk;Rechts;2;35;left;no;350;leftarrow;564;true;focus;yes;357650;Chrome;112.0;Windows;10;undefined;undefined;1920 x 1080;1920 x 1080
H039;26;Vrouwelijk;Rechts;2;36;left;no;350;leftarrow;683;true;focus;yes;359098;Chrome;112.0;Windows;10;undefined;undefined;1920 x 1080;1920 x 1080
H039;26;Vrouwelijk;Rechts;2;37;left;no;350;leftarrow;612;true;focus;yes;360483;Chrome;112.0;Windows;10;undefined;undefined;1920 x 1080;1920 x 1080
H039;26;Vrouwelijk;Rechts;2;38;right;no;350;rightarrow;749;true;focus;yes;361994;Chrome;112.0;Windows;10;undefined;undefined;1920 x 1080;1920 x 1080
H039;26;Vrouwelijk;Rechts;2;39;right;no;350;rightarrow;598;true;focus;yes;363362;Chrome;112.0;Windows;10;undefined;undefined;1920 x 1080;1920 x 1080
H039;26;Vrouwelijk;Rechts;2;40;right;yes;350;undefined;null;true;focus;yes;365374;Chrome;112.0;Windows;10;undefined;undefined;1920 x 1080;1920 x 1080
H039;26;Vrouwelijk;Rechts;2;41;right;no;400;rightarrow;601;true;focus;yes;366738;Chrome;112.0;Windows;10;undefined;undefined;1920 x 1080;1920 x 1080
H039;26;Vrouwelijk;Rechts;2;42;right;no;400;rightarrow;650;true;focus;yes;368146;Chrome;112.0;Windows;10;undefined;undefined;1920 x 1080;1920 x 1080
H039;26;Vrouwelijk;Rechts;2;43;left;yes;400;undefined;null;true;focus;yes;370169;Chrome;112.0;Windows;10;undefined;undefined;1920 x 1080;1920 x 1080
H039;26;Vrouwelijk;Rechts;2;44;left;no;450;leftarrow;643;true;focus;yes;371570;Chrome;112.0;Windows;10;undefined;undefined;1920 x 1080;1920 x 1080
H039;26;Vrouwelijk;Rechts;2;45;left;no;450;leftarrow;710;true;focus;yes;373050;Chrome;112.0;Windows;10;undefined;undefined;1920 x 1080;1920 x 1080
H039;26;Vrouwelijk;Rechts;2;46;right;yes;450;undefined;null;true;focus;yes;375066;Chrome;112.0;Windows;10;undefined;undefined;1920 x 1080;1920 x 1080
H039;26;Vrouwelijk;Rechts;2;47;right;no;500;rightarrow;549;true;focus;yes;376378;Chrome;112.0;Windows;10;undefined;undefined;1920 x 1080;1920 x 1080
H039;26;Vrouwelijk;Rechts;2;48;left;no;500;leftarrow;717;true;focus;yes;377858;Chrome;112.0;Windows;10;undefined;undefined;1920 x 1080;1920 x 1080
H039;26;Vrouwelijk;Rechts;2;49;left;no;500;leftarrow;476;true;focus;yes;379106;Chrome;112.0;Windows;10;undefined;undefined;1920 x 1080;1920 x 1080
H039;26;Vrouwelijk;Rechts;2;50;left;no;500;leftarrow;636;true;focus;yes;380514;Chrome;112.0;Windows;10;undefined;undefined;1920 x 1080;1920 x 1080
H039;26;Vrouwelijk;Rechts;2;51;right;no;500;rightarrow;830;true;focus;yes;382115;Chrome;112.0;Windows;10;undefined;undefined;1920 x 1080;1920 x 1080
H039;26;Vrouwelijk;Rechts;2;52;left;no;500;leftarrow;629;true;focus;yes;383514;Chrome;112.0;Windows;10;undefined;undefined;1920 x 1080;1920 x 1080
H039;26;Vrouwelijk;Rechts;2;53;right;yes;500;rightarrow;672;false;focus;yes;384946;Chrome;112.0;Windows;10;undefined;undefined;1920 x 1080;1920 x 1080
H039;26;Vrouwelijk;Rechts;2;54;left;yes;450;undefined;null;true;focus;yes;386962;Chrome;112.0;Windows;10;undefined;undefined;1920 x 1080;1920 x 1080
H039;26;Vrouwelijk;Rechts;2;55;right;no;500;rightarrow;517;true;focus;yes;388242;Chrome;112.0;Windows;10;undefined;undefined;1920 x 1080;1920 x 1080
H039;26;Vrouwelijk;Rechts;2;56;right;no;500;rightarrow;445;true;focus;yes;389450;Chrome;112.0;Windows;10;undefined;undefined;1920 x 1080;1920 x 1080
H039;26;Vrouwelijk;Rechts;2;57;right;yes;500;rightarrow;509;false;focus;yes;390730;Chrome;112.0;Windows;10;undefined;undefined;1920 x 1080;1920 x 1080
H039;26;Vrouwelijk;Rechts;2;58;left;yes;450;undefined;null;true;focus;yes;392752;Chrome;112.0;Windows;10;undefined;undefined;1920 x 1080;1920 x 1080
H039;26;Vrouwelijk;Rechts;2;59;right;no;500;rightarrow;624;true;focus;yes;394138;Chrome;112.0;Windows;10;undefined;undefined;1920 x 1080;1920 x 1080
H039;26;Vrouwelijk;Rechts;2;60;left;no;500;leftarrow;601;true;focus;yes;395506;Chrome;112.0;Windows;10;undefined;undefined;1920 x 1080;1920 x 1080
H039;26;Vrouwelijk;Rechts;2;61;right;no;500;rightarrow;856;true;focus;yes;397122;Chrome;112.0;Windows;10;undefined;undefined;1920 x 1080;1920 x 1080
H039;26;Vrouwelijk;Rechts;2;62;left;no;500;leftarrow;553;true;focus;yes;398434;Chrome;112.0;Windows;10;undefined;undefined;1920 x 1080;1920 x 1080
H039;26;Vrouwelijk;Rechts;2;63;right;no;500;rightarrow;594;true;focus;yes;399802;Chrome;112.0;Windows;10;undefined;undefined;1920 x 1080;1920 x 1080
H039;26;Vrouwelijk;Rechts;2;64;left;no;500;leftarrow;572;true;focus;yes;401138;Chrome;112.0;Windows;10;undefined;undefined;1920 x 1080;1920 x 1080
H039;26;Vrouwelijk;Rechts;2;65;right;no;500;rightarrow;540;true;focus;yes;402450;Chrome;112.0;Windows;10;undefined;undefined;1920 x 1080;1920 x 1080
H039;26;Vrouwelijk;Rechts;2;66;left;yes;500;leftarrow;518;false;focus;yes;403738;Chrome;112.0;Windows;10;undefined;undefined;1920 x 1080;1920 x 1080
H039;26;Vrouwelijk;Rechts;2;67;left;no;450;leftarrow;710;true;focus;yes;405211;Chrome;112.0;Windows;10;undefined;undefined;1920 x 1080;1920 x 1080
H039;26;Vrouwelijk;Rechts;2;68;right;no;450;rightarrow;569;true;focus;yes;406538;Chrome;112.0;Windows;10;undefined;undefined;1920 x 1080;1920 x 1080
H039;26;Vrouwelijk;Rechts;2;69;right;no;450;rightarrow;617;true;focus;yes;407914;Chrome;112.0;Windows;10;undefined;undefined;1920 x 1080;1920 x 1080
H039;26;Vrouwelijk;Rechts;2;70;right;yes;450;rightarrow;569;false;focus;yes;409242;Chrome;112.0;Windows;10;undefined;undefined;1920 x 1080;1920 x 1080
H039;26;Vrouwelijk;Rechts;2;71;left;no;400;leftarrow;689;true;focus;yes;410690;Chrome;112.0;Windows;10;undefined;undefined;1920 x 1080;1920 x 1080
H039;26;Vrouwelijk;Rechts;2;72;left;no;400;leftarrow;642;true;focus;yes;412098;Chrome;112.0;Windows;10;undefined;undefined;1920 x 1080;1920 x 1080
H039;26;Vrouwelijk;Rechts;2;73;right;yes;400;undefined;null;true;focus;yes;414114;Chrome;112.0;Windows;10;undefined;undefined;1920 x 1080;1920 x 1080
H039;26;Vrouwelijk;Rechts;2;74;left;no;450;leftarrow;598;true;focus;yes;415475;Chrome;112.0;Windows;10;undefined;undefined;1920 x 1080;1920 x 1080
H039;26;Vrouwelijk;Rechts;2;75;left;yes;450;leftarrow;645;false;focus;yes;416883;Chrome;112.0;Windows;10;undefined;undefined;1920 x 1080;1920 x 1080
H039;26;Vrouwelijk;Rechts;2;76;left;no;400;leftarrow;669;true;focus;yes;418315;Chrome;112.0;Windows;10;undefined;undefined;1920 x 1080;1920 x 1080
H039;26;Vrouwelijk;Rechts;2;77;left;no;400;leftarrow;716;true;focus;yes;419803;Chrome;112.0;Windows;10;undefined;undefined;1920 x 1080;1920 x 1080
H039;26;Vrouwelijk;Rechts;2;78;right;no;400;rightarrow;774;true;focus;yes;421347;Chrome;112.0;Windows;10;undefined;undefined;1920 x 1080;1920 x 1080
H039;26;Vrouwelijk;Rechts;2;79;right;no;400;rightarrow;631;true;focus;yes;422739;Chrome;112.0;Windows;10;undefined;undefined;1920 x 1080;1920 x 1080
H039;26;Vrouwelijk;Rechts;2;80;right;no;400;rightarrow;777;true;focus;yes;424275;Chrome;112.0;Windows;10;undefined;undefined;1920 x 1080;1920 x 1080
H039;26;Vrouwelijk;Rechts;2;81;left;no;400;leftarrow;779;true;focus;yes;425811;Chrome;112.0;Windows;10;undefined;undefined;1920 x 1080;1920 x 1080
H039;26;Vrouwelijk;Rechts;2;82;left;no;400;leftarrow;818;true;focus;yes;427403;Chrome;112.0;Windows;10;undefined;undefined;1920 x 1080;1920 x 1080
H039;26;Vrouwelijk;Rechts;2;83;left;no;400;leftarrow;745;true;focus;yes;428915;Chrome;112.0;Windows;10;undefined;undefined;1920 x 1080;1920 x 1080
H039;26;Vrouwelijk;Rechts;2;84;right;no;400;rightarrow;850;true;focus;yes;430539;Chrome;112.0;Windows;10;undefined;undefined;1920 x 1080;1920 x 1080
H039;26;Vrouwelijk;Rechts;2;85;left;yes;400;leftarrow;587;false;focus;yes;431891;Chrome;112.0;Windows;10;undefined;undefined;1920 x 1080;1920 x 1080
H039;26;Vrouwelijk;Rechts;2;86;right;no;350;rightarrow;567;true;focus;yes;433227;Chrome;112.0;Windows;10;undefined;undefined;1920 x 1080;1920 x 1080
H039;26;Vrouwelijk;Rechts;2;87;right;no;350;rightarrow;726;true;focus;yes;434715;Chrome;112.0;Windows;10;undefined;undefined;1920 x 1080;1920 x 1080
H039;26;Vrouwelijk;Rechts;2;88;right;yes;350;undefined;null;true;focus;yes;436731;Chrome;112.0;Windows;10;undefined;undefined;1920 x 1080;1920 x 1080
H039;26;Vrouwelijk;Rechts;2;89;left;no;400;leftarrow;653;true;focus;yes;438147;Chrome;112.0;Windows;10;undefined;undefined;1920 x 1080;1920 x 1080
H039;26;Vrouwelijk;Rechts;2;90;right;yes;400;undefined;null;true;focus;yes;440166;Chrome;112.0;Windows;10;undefined;undefined;1920 x 1080;1920 x 1080
H039;26;Vrouwelijk;Rechts;2;91;right;no;450;rightarrow;545;true;focus;yes;441475;Chrome;112.0;Windows;10;undefined;undefined;1920 x 1080;1920 x 1080
H039;26;Vrouwelijk;Rechts;2;92;right;no;450;rightarrow;840;true;focus;yes;443075;Chrome;112.0;Windows;10;undefined;undefined;1920 x 1080;1920 x 1080
H039;26;Vrouwelijk;Rechts;2;93;left;no;450;leftarrow;850;true;focus;yes;444683;Chrome;112.0;Windows;10;undefined;undefined;1920 x 1080;1920 x 1080
H039;26;Vrouwelijk;Rechts;2;94;left;no;450;leftarrow;850;true;focus;yes;446299;Chrome;112.0;Windows;10;undefined;undefined;1920 x 1080;1920 x 1080
H039;26;Vrouwelijk;Rechts;2;95;left;yes;450;undefined;null;true;focus;yes;448318;Chrome;112.0;Windows;10;undefined;undefined;1920 x 1080;1920 x 1080
H039;26;Vrouwelijk;Rechts;2;96;right;no;500;rightarrow;763;true;focus;yes;449843;Chrome;112.0;Windows;10;undefined;undefined;1920 x 1080;1920 x 1080
H039;26;Vrouwelijk;Rechts;2;97;left;no;500;leftarrow;891;true;focus;yes;451507;Chrome;112.0;Windows;10;undefined;undefined;1920 x 1080;1920 x 1080
H039;26;Vrouwelijk;Rechts;2;98;left;no;500;leftarrow;858;true;focus;yes;453123;Chrome;112.0;Windows;10;undefined;undefined;1920 x 1080;1920 x 1080
H039;26;Vrouwelijk;Rechts;2;99;left;yes;500;undefined;null;true;focus;yes;455148;Chrome;112.0;Windows;10;undefined;undefined;1920 x 1080;1920 x 1080
H039;26;Vrouwelijk;Rechts;2;100;right;no;550;rightarrow;828;true;focus;yes;456739;Chrome;112.0;Windows;10;undefined;undefined;1920 x 1080;1920 x 1080
H039;26;Vrouwelijk;Rechts;2;101;left;no;550;leftarrow;692;true;focus;yes;458203;Chrome;112.0;Windows;10;undefined;undefined;1920 x 1080;1920 x 1080
H039;26;Vrouwelijk;Rechts;2;102;right;no;550;rightarrow;573;true;focus;yes;459539;Chrome;112.0;Windows;10;undefined;undefined;1920 x 1080;1920 x 1080
H039;26;Vrouwelijk;Rechts;2;103;right;yes;550;rightarrow;549;false;focus;yes;460859;Chrome;112.0;Windows;10;undefined;undefined;1920 x 1080;1920 x 1080
H039;26;Vrouwelijk;Rechts;2;104;right;no;500;rightarrow;783;true;focus;yes;462403;Chrome;112.0;Windows;10;undefined;undefined;1920 x 1080;1920 x 1080
H039;26;Vrouwelijk;Rechts;2;105;left;no;500;leftarrow;638;true;focus;yes;463811;Chrome;112.0;Windows;10;undefined;undefined;1920 x 1080;1920 x 1080
H039;26;Vrouwelijk;Rechts;2;106;left;no;500;leftarrow;626;true;focus;yes;465203;Chrome;112.0;Windows;10;undefined;undefined;1920 x 1080;1920 x 1080
H039;26;Vrouwelijk;Rechts;2;107;left;no;500;leftarrow;610;true;focus;yes;466579;Chrome;112.0;Windows;10;undefined;undefined;1920 x 1080;1920 x 1080
H039;26;Vrouwelijk;Rechts;2;108;right;no;500;rightarrow;652;true;focus;yes;467995;Chrome;112.0;Windows;10;undefined;undefined;1920 x 1080;1920 x 1080
H039;26;Vrouwelijk;Rechts;2;109;left;yes;500;leftarrow;661;false;focus;yes;469427;Chrome;112.0;Windows;10;undefined;undefined;1920 x 1080;1920 x 1080
H039;26;Vrouwelijk;Rechts;2;110;right;no;450;rightarrow;599;true;focus;yes;470787;Chrome;112.0;Windows;10;undefined;undefined;1920 x 1080;1920 x 1080
H039;26;Vrouwelijk;Rechts;2;111;right;yes;450;rightarrow;568;false;focus;yes;472115;Chrome;112.0;Windows;10;undefined;undefined;1920 x 1080;1920 x 1080
H039;26;Vrouwelijk;Rechts;2;112;right;no;400;rightarrow;683;true;focus;yes;473555;Chrome;112.0;Windows;10;undefined;undefined;1920 x 1080;1920 x 1080
H039;26;Vrouwelijk;Rechts;2;113;right;no;400;rightarrow;570;true;focus;yes;474883;Chrome;112.0;Windows;10;undefined;undefined;1920 x 1080;1920 x 1080
H039;26;Vrouwelijk;Rechts;2;114;right;yes;400;rightarrow;584;false;focus;yes;476226;Chrome;112.0;Windows;10;undefined;undefined;1920 x 1080;1920 x 1080
H039;26;Vrouwelijk;Rechts;2;115;left;no;350;leftarrow;719;true;focus;yes;477706;Chrome;112.0;Windows;10;undefined;undefined;1920 x 1080;1920 x 1080
H039;26;Vrouwelijk;Rechts;2;116;right;no;350;rightarrow;738;true;focus;yes;479210;Chrome;112.0;Windows;10;undefined;undefined;1920 x 1080;1920 x 1080
H039;26;Vrouwelijk;Rechts;2;117;left;no;350;leftarrow;572;true;focus;yes;480546;Chrome;112.0;Windows;10;undefined;undefined;1920 x 1080;1920 x 1080
H039;26;Vrouwelijk;Rechts;2;118;left;yes;350;undefined;null;true;focus;yes;482566;Chrome;112.0;Windows;10;undefined;undefined;1920 x 1080;1920 x 1080
H039;26;Vrouwelijk;Rechts;2;119;right;no;400;rightarrow;537;true;focus;yes;483866;Chrome;112.0;Windows;10;undefined;undefined;1920 x 1080;1920 x 1080
H039;26;Vrouwelijk;Rechts;2;120;left;no;400;leftarrow;666;true;focus;yes;485306;Chrome;112.0;Windows;10;undefined;undefined;1920 x 1080;1920 x 1080
H039;26;Vrouwelijk;Rechts;2;121;right;no;400;rightarrow;771;true;focus;yes;486850;Chrome;112.0;Windows;10;undefined;undefined;1920 x 1080;1920 x 1080
H039;26;Vrouwelijk;Rechts;2;122;left;no;400;leftarrow;739;true;focus;yes;488354;Chrome;112.0;Windows;10;undefined;undefined;1920 x 1080;1920 x 1080
H039;26;Vrouwelijk;Rechts;2;123;right;no;400;rightarrow;805;true;focus;yes;489922;Chrome;112.0;Windows;10;undefined;undefined;1920 x 1080;1920 x 1080
H039;26;Vrouwelijk;Rechts;2;124;left;no;400;leftarrow;694;true;focus;yes;491378;Chrome;112.0;Windows;10;undefined;undefined;1920 x 1080;1920 x 1080
H039;26;Vrouwelijk;Rechts;2;125;right;no;400;rightarrow;556;true;focus;yes;492706;Chrome;112.0;Windows;10;undefined;undefined;1920 x 1080;1920 x 1080
H039;26;Vrouwelijk;Rechts;2;126;right;yes;400;rightarrow;613;false;focus;yes;494090;Chrome;112.0;Windows;10;undefined;undefined;1920 x 1080;1920 x 1080
H039;26;Vrouwelijk;Rechts;2;127;left;no;350;leftarrow;607;true;focus;yes;495458;Chrome;112.0;Windows;10;undefined;undefined;1920 x 1080;1920 x 1080
H039;26;Vrouwelijk;Rechts;2;128;left;yes;350;undefined;null;true;focus;yes;497479;Chrome;112.0;Windows;10;undefined;undefined;1920 x 1080;1920 x 1080
H039;26;Vrouwelijk;Rechts;3;1;left;no;400;leftarrow;501;true;focus;yes;570018;Chrome;112.0;Windows;10;undefined;undefined;1920 x 1080;1920 x 1080
H039;26;Vrouwelijk;Rechts;3;2;left;no;400;leftarrow;540;true;focus;yes;571322;Chrome;112.0;Windows;10;undefined;undefined;1920 x 1080;1920 x 1080
H039;26;Vrouwelijk;Rechts;3;3;right;no;400;rightarrow;494;true;focus;yes;572587;Chrome;112.0;Windows;10;undefined;undefined;1920 x 1080;1920 x 1080
H039;26;Vrouwelijk;Rechts;3;4;right;no;400;rightarrow;504;true;focus;yes;573858;Chrome;112.0;Windows;10;undefined;undefined;1920 x 1080;1920 x 1080
H039;26;Vrouwelijk;Rechts;3;5;left;no;400;leftarrow;465;true;focus;yes;575083;Chrome;112.0;Windows;10;undefined;undefined;1920 x 1080;1920 x 1080
H039;26;Vrouwelijk;Rechts;3;6;right;no;400;rightarrow;507;true;focus;yes;576355;Chrome;112.0;Windows;10;undefined;undefined;1920 x 1080;1920 x 1080
H039;26;Vrouwelijk;Rechts;3;7;left;yes;400;leftarrow;389;false;focus;yes;577515;Chrome;112.0;Windows;10;undefined;undefined;1920 x 1080;1920 x 1080
H039;26;Vrouwelijk;Rechts;3;8;right;yes;350;rightarrow;374;false;focus;yes;578651;Chrome;112.0;Windows;10;undefined;undefined;1920 x 1080;1920 x 1080
H039;26;Vrouwelijk;Rechts;3;9;left;no;300;leftarrow;494;true;focus;yes;579906;Chrome;112.0;Windows;10;undefined;undefined;1920 x 1080;1920 x 1080
H039;26;Vrouwelijk;Rechts;3;10;left;yes;300;leftarrow;454;false;focus;yes;581130;Chrome;112.0;Windows;10;undefined;undefined;1920 x 1080;1920 x 1080
H039;26;Vrouwelijk;Rechts;3;11;right;no;250;rightarrow;601;true;focus;yes;582491;Chrome;112.0;Windows;10;undefined;undefined;1920 x 1080;1920 x 1080
H039;26;Vrouwelijk;Rechts;3;12;right;yes;250;undefined;null;true;focus;yes;584501;Chrome;112.0;Windows;10;undefined;undefined;1920 x 1080;1920 x 1080
H039;26;Vrouwelijk;Rechts;3;13;right;no;300;rightarrow;475;true;focus;yes;585739;Chrome;112.0;Windows;10;undefined;undefined;1920 x 1080;1920 x 1080
H039;26;Vrouwelijk;Rechts;3;14;right;no;300;rightarrow;483;true;focus;yes;586995;Chrome;112.0;Windows;10;undefined;undefined;1920 x 1080;1920 x 1080
H039;26;Vrouwelijk;Rechts;3;15;left;no;300;leftarrow;580;true;focus;yes;588339;Chrome;112.0;Windows;10;undefined;undefined;1920 x 1080;1920 x 1080
H039;26;Vrouwelijk;Rechts;3;16;left;no;300;leftarrow;554;true;focus;yes;589659;Chrome;112.0;Windows;10;undefined;undefined;1920 x 1080;1920 x 1080
H039;26;Vrouwelijk;Rechts;3;17;left;no;300;leftarrow;530;true;focus;yes;590947;Chrome;112.0;Windows;10;undefined;undefined;1920 x 1080;1920 x 1080
H039;26;Vrouwelijk;Rechts;3;18;right;yes;300;undefined;null;true;focus;yes;592962;Chrome;112.0;Windows;10;undefined;undefined;1920 x 1080;1920 x 1080
H039;26;Vrouwelijk;Rechts;3;19;left;yes;350;leftarrow;493;false;focus;yes;594218;Chrome;112.0;Windows;10;undefined;undefined;1920 x 1080;1920 x 1080
H039;26;Vrouwelijk;Rechts;3;20;right;no;300;rightarrow;596;true;focus;yes;595586;Chrome;112.0;Windows;10;undefined;undefined;1920 x 1080;1920 x 1080
H039;26;Vrouwelijk;Rechts;3;21;right;no;300;rightarrow;605;true;focus;yes;596955;Chrome;112.0;Windows;10;undefined;undefined;1920 x 1080;1920 x 1080
H039;26;Vrouwelijk;Rechts;3;22;right;no;300;rightarrow;509;true;focus;yes;598235;Chrome;112.0;Windows;10;undefined;undefined;1920 x 1080;1920 x 1080
H039;26;Vrouwelijk;Rechts;3;23;left;no;300;leftarrow;542;true;focus;yes;599547;Chrome;112.0;Windows;10;undefined;undefined;1920 x 1080;1920 x 1080
H039;26;Vrouwelijk;Rechts;3;24;left;no;300;leftarrow;553;true;focus;yes;600867;Chrome;112.0;Windows;10;undefined;undefined;1920 x 1080;1920 x 1080
H039;26;Vrouwelijk;Rechts;3;25;right;no;300;rightarrow;545;true;focus;yes;602187;Chrome;112.0;Windows;10;undefined;undefined;1920 x 1080;1920 x 1080
H039;26;Vrouwelijk;Rechts;3;26;left;no;300;leftarrow;611;true;focus;yes;603562;Chrome;112.0;Windows;10;undefined;undefined;1920 x 1080;1920 x 1080
H039;26;Vrouwelijk;Rechts;3;27;left;no;300;leftarrow;612;true;focus;yes;604939;Chrome;112.0;Windows;10;undefined;undefined;1920 x 1080;1920 x 1080
H039;26;Vrouwelijk;Rechts;3;28;right;no;300;rightarrow;588;true;focus;yes;606290;Chrome;112.0;Windows;10;undefined;undefined;1920 x 1080;1920 x 1080
H039;26;Vrouwelijk;Rechts;3;29;left;no;300;leftarrow;635;true;focus;yes;607699;Chrome;112.0;Windows;10;undefined;undefined;1920 x 1080;1920 x 1080
H039;26;Vrouwelijk;Rechts;3;30;left;yes;300;undefined;null;true;focus;yes;609737;Chrome;112.0;Windows;10;undefined;undefined;1920 x 1080;1920 x 1080
H039;26;Vrouwelijk;Rechts;3;31;right;no;350;rightarrow;535;true;focus;yes;611035;Chrome;112.0;Windows;10;undefined;undefined;1920 x 1080;1920 x 1080
H039;26;Vrouwelijk;Rechts;3;32;right;yes;350;undefined;null;true;focus;yes;613047;Chrome;112.0;Windows;10;undefined;undefined;1920 x 1080;1920 x 1080
H039;26;Vrouwelijk;Rechts;3;33;right;yes;400;rightarrow;618;false;focus;yes;614427;Chrome;112.0;Windows;10;undefined;undefined;1920 x 1080;1920 x 1080
H039;26;Vrouwelijk;Rechts;3;34;right;no;350;rightarrow;714;true;focus;yes;615915;Chrome;112.0;Windows;10;undefined;undefined;1920 x 1080;1920 x 1080
H039;26;Vrouwelijk;Rechts;3;35;left;no;350;leftarrow;529;true;focus;yes;617202;Chrome;112.0;Windows;10;undefined;undefined;1920 x 1080;1920 x 1080
H039;26;Vrouwelijk;Rechts;3;36;right;no;350;rightarrow;569;true;focus;yes;618539;Chrome;112.0;Windows;10;undefined;undefined;1920 x 1080;1920 x 1080
H039;26;Vrouwelijk;Rechts;3;37;left;yes;350;undefined;null;true;focus;yes;620563;Chrome;112.0;Windows;10;undefined;undefined;1920 x 1080;1920 x 1080
H039;26;Vrouwelijk;Rechts;3;38;left;no;400;leftarrow;587;true;focus;yes;621915;Chrome;112.0;Windows;10;undefined;undefined;1920 x 1080;1920 x 1080
H039;26;Vrouwelijk;Rechts;3;39;left;no;400;leftarrow;524;true;focus;yes;623211;Chrome;112.0;Windows;10;undefined;undefined;1920 x 1080;1920 x 1080
H039;26;Vrouwelijk;Rechts;3;40;right;no;400;rightarrow;574;true;focus;yes;624555;Chrome;112.0;Windows;10;undefined;undefined;1920 x 1080;1920 x 1080
H039;26;Vrouwelijk;Rechts;3;41;left;yes;400;leftarrow;518;false;focus;yes;625843;Chrome;112.0;Windows;10;undefined;undefined;1920 x 1080;1920 x 1080
H039;26;Vrouwelijk;Rechts;3;42;right;no;350;rightarrow;609;true;focus;yes;627211;Chrome;112.0;Windows;10;undefined;undefined;1920 x 1080;1920 x 1080
H039;26;Vrouwelijk;Rechts;3;43;right;yes;350;undefined;null;true;focus;yes;629230;Chrome;112.0;Windows;10;undefined;undefined;1920 x 1080;1920 x 1080
H039;26;Vrouwelijk;Rechts;3;44;left;no;400;leftarrow;731;true;focus;yes;630723;Chrome;112.0;Windows;10;undefined;undefined;1920 x 1080;1920 x 1080
H039;26;Vrouwelijk;Rechts;3;45;left;no;400;leftarrow;627;true;focus;yes;632123;Chrome;112.0;Windows;10;undefined;undefined;1920 x 1080;1920 x 1080
H039;26;Vrouwelijk;Rechts;3;46;right;no;400;rightarrow;716;true;focus;yes;633603;Chrome;112.0;Windows;10;undefined;undefined;1920 x 1080;1920 x 1080
H039;26;Vrouwelijk;Rechts;3;47;right;no;400;rightarrow;684;true;focus;yes;635059;Chrome;112.0;Windows;10;undefined;undefined;1920 x 1080;1920 x 1080
H039;26;Vrouwelijk;Rechts;3;48;left;no;400;leftarrow;549;true;focus;yes;636379;Chrome;112.0;Windows;10;undefined;undefined;1920 x 1080;1920 x 1080
H039;26;Vrouwelijk;Rechts;3;49;right;no;400;rightarrow;549;true;focus;yes;637691;Chrome;112.0;Windows;10;undefined;undefined;1920 x 1080;1920 x 1080
H039;26;Vrouwelijk;Rechts;3;50;left;yes;400;leftarrow;543;false;focus;yes;638995;Chrome;112.0;Windows;10;undefined;undefined;1920 x 1080;1920 x 1080
H039;26;Vrouwelijk;Rechts;3;51;right;yes;350;undefined;null;true;focus;yes;641018;Chrome;112.0;Windows;10;undefined;undefined;1920 x 1080;1920 x 1080
H039;26;Vrouwelijk;Rechts;3;52;right;no;400;rightarrow;542;true;focus;yes;642323;Chrome;112.0;Windows;10;undefined;undefined;1920 x 1080;1920 x 1080
H039;26;Vrouwelijk;Rechts;3;53;left;no;400;leftarrow;617;true;focus;yes;643707;Chrome;112.0;Windows;10;undefined;undefined;1920 x 1080;1920 x 1080
H039;26;Vrouwelijk;Rechts;3;54;left;no;400;leftarrow;344;true;focus;yes;644811;Chrome;112.0;Windows;10;undefined;undefined;1920 x 1080;1920 x 1080
H039;26;Vrouwelijk;Rechts;3;55;left;no;400;leftarrow;530;true;focus;yes;646099;Chrome;112.0;Windows;10;undefined;undefined;1920 x 1080;1920 x 1080
H039;26;Vrouwelijk;Rechts;3;56;right;no;400;rightarrow;573;true;focus;yes;647435;Chrome;112.0;Windows;10;undefined;undefined;1920 x 1080;1920 x 1080
H039;26;Vrouwelijk;Rechts;3;57;right;yes;400;rightarrow;576;false;focus;yes;648779;Chrome;112.0;Windows;10;undefined;undefined;1920 x 1080;1920 x 1080
H039;26;Vrouwelijk;Rechts;3;58;right;no;350;rightarrow;673;true;focus;yes;650219;Chrome;112.0;Windows;10;undefined;undefined;1920 x 1080;1920 x 1080
H039;26;Vrouwelijk;Rechts;3;59;left;yes;350;leftarrow;561;false;focus;yes;651547;Chrome;112.0;Windows;10;undefined;undefined;1920 x 1080;1920 x 1080
H039;26;Vrouwelijk;Rechts;3;60;left;no;300;leftarrow;578;true;focus;yes;652891;Chrome;112.0;Windows;10;undefined;undefined;1920 x 1080;1920 x 1080
H039;26;Vrouwelijk;Rechts;3;61;right;no;300;rightarrow;571;true;focus;yes;654227;Chrome;112.0;Windows;10;undefined;undefined;1920 x 1080;1920 x 1080
H039;26;Vrouwelijk;Rechts;3;62;left;no;300;leftarrow;683;true;focus;yes;655683;Chrome;112.0;Windows;10;undefined;undefined;1920 x 1080;1920 x 1080
H039;26;Vrouwelijk;Rechts;3;63;left;no;300;leftarrow;587;true;focus;yes;657027;Chrome;112.0;Windows;10;undefined;undefined;1920 x 1080;1920 x 1080
H039;26;Vrouwelijk;Rechts;3;64;right;no;300;rightarrow;762;true;focus;yes;658547;Chrome;112.0;Windows;10;undefined;undefined;1920 x 1080;1920 x 1080
H039;26;Vrouwelijk;Rechts;3;65;right;no;300;rightarrow;762;true;focus;yes;660067;Chrome;112.0;Windows;10;undefined;undefined;1920 x 1080;1920 x 1080
H039;26;Vrouwelijk;Rechts;3;66;right;no;300;rightarrow;643;true;focus;yes;661483;Chrome;112.0;Windows;10;undefined;undefined;1920 x 1080;1920 x 1080
H039;26;Vrouwelijk;Rechts;3;67;left;no;300;leftarrow;740;true;focus;yes;662987;Chrome;112.0;Windows;10;undefined;undefined;1920 x 1080;1920 x 1080
H039;26;Vrouwelijk;Rechts;3;68;left;yes;300;undefined;null;true;focus;yes;665001;Chrome;112.0;Windows;10;undefined;undefined;1920 x 1080;1920 x 1080
H039;26;Vrouwelijk;Rechts;3;69;right;yes;350;undefined;null;true;focus;yes;667014;Chrome;112.0;Windows;10;undefined;undefined;1920 x 1080;1920 x 1080
H039;26;Vrouwelijk;Rechts;3;70;right;no;400;rightarrow;634;true;focus;yes;668411;Chrome;112.0;Windows;10;undefined;undefined;1920 x 1080;1920 x 1080
H039;26;Vrouwelijk;Rechts;3;71;left;no;400;leftarrow;521;true;focus;yes;669691;Chrome;112.0;Windows;10;undefined;undefined;1920 x 1080;1920 x 1080
H039;26;Vrouwelijk;Rechts;3;72;left;no;400;leftarrow;571;true;focus;yes;671035;Chrome;112.0;Windows;10;undefined;undefined;1920 x 1080;1920 x 1080
H039;26;Vrouwelijk;Rechts;3;73;right;no;400;rightarrow;595;true;focus;yes;672387;Chrome;112.0;Windows;10;undefined;undefined;1920 x 1080;1920 x 1080
H039;26;Vrouwelijk;Rechts;3;74;right;no;400;rightarrow;578;true;focus;yes;673731;Chrome;112.0;Windows;10;undefined;undefined;1920 x 1080;1920 x 1080
H039;26;Vrouwelijk;Rechts;3;75;left;yes;400;undefined;null;true;focus;yes;675747;Chrome;112.0;Windows;10;undefined;undefined;1920 x 1080;1920 x 1080
H039;26;Vrouwelijk;Rechts;3;76;right;no;450;rightarrow;550;true;focus;yes;677059;Chrome;112.0;Windows;10;undefined;undefined;1920 x 1080;1920 x 1080
H039;26;Vrouwelijk;Rechts;3;77;left;no;450;leftarrow;542;true;focus;yes;678363;Chrome;112.0;Windows;10;undefined;undefined;1920 x 1080;1920 x 1080
H039;26;Vrouwelijk;Rechts;3;78;left;no;450;leftarrow;578;true;focus;yes;679707;Chrome;112.0;Windows;10;undefined;undefined;1920 x 1080;1920 x 1080
H039;26;Vrouwelijk;Rechts;3;79;left;no;450;leftarrow;731;true;focus;yes;681203;Chrome;112.0;Windows;10;undefined;undefined;1920 x 1080;1920 x 1080
H039;26;Vrouwelijk;Rechts;3;80;right;yes;450;rightarrow;555;false;focus;yes;682531;Chrome;112.0;Windows;10;undefined;undefined;1920 x 1080;1920 x 1080
H039;26;Vrouwelijk;Rechts;3;81;right;no;400;rightarrow;635;true;focus;yes;683923;Chrome;112.0;Windows;10;undefined;undefined;1920 x 1080;1920 x 1080
H039;26;Vrouwelijk;Rechts;3;82;left;no;400;leftarrow;609;true;focus;yes;685307;Chrome;112.0;Windows;10;undefined;undefined;1920 x 1080;1920 x 1080
H039;26;Vrouwelijk;Rechts;3;83;right;yes;400;rightarrow;523;false;focus;yes;686595;Chrome;112.0;Windows;10;undefined;undefined;1920 x 1080;1920 x 1080
H039;26;Vrouwelijk;Rechts;3;84;left;no;350;leftarrow;641;true;focus;yes;687995;Chrome;112.0;Windows;10;undefined;undefined;1920 x 1080;1920 x 1080
H039;26;Vrouwelijk;Rechts;3;85;right;no;350;rightarrow;664;true;focus;yes;689427;Chrome;112.0;Windows;10;undefined;undefined;1920 x 1080;1920 x 1080
H039;26;Vrouwelijk;Rechts;3;86;left;yes;350;undefined;null;true;focus;yes;691450;Chrome;112.0;Windows;10;undefined;undefined;1920 x 1080;1920 x 1080
H039;26;Vrouwelijk;Rechts;3;87;left;no;400;leftarrow;662;true;focus;yes;692875;Chrome;112.0;Windows;10;undefined;undefined;1920 x 1080;1920 x 1080
H039;26;Vrouwelijk;Rechts;3;88;right;no;400;rightarrow;591;true;focus;yes;694227;Chrome;112.0;Windows;10;undefined;undefined;1920 x 1080;1920 x 1080
H039;26;Vrouwelijk;Rechts;3;89;right;no;400;rightarrow;639;true;focus;yes;695635;Chrome;112.0;Windows;10;undefined;undefined;1920 x 1080;1920 x 1080
H039;26;Vrouwelijk;Rechts;3;90;right;no;400;rightarrow;674;true;focus;yes;697075;Chrome;112.0;Windows;10;undefined;undefined;1920 x 1080;1920 x 1080
H039;26;Vrouwelijk;Rechts;3;91;right;yes;400;undefined;null;true;focus;yes;699093;Chrome;112.0;Windows;10;undefined;undefined;1920 x 1080;1920 x 1080
H039;26;Vrouwelijk;Rechts;3;92;left;no;450;leftarrow;594;true;focus;yes;700451;Chrome;112.0;Windows;10;undefined;undefined;1920 x 1080;1920 x 1080
H039;26;Vrouwelijk;Rechts;3;93;right;no;450;rightarrow;555;true;focus;yes;701771;Chrome;112.0;Windows;10;undefined;undefined;1920 x 1080;1920 x 1080
H039;26;Vrouwelijk;Rechts;3;94;left;yes;450;leftarrow;612;false;focus;yes;703155;Chrome;112.0;Windows;10;undefined;undefined;1920 x 1080;1920 x 1080
H039;26;Vrouwelijk;Rechts;3;95;left;no;400;undefined;null;false;focus;yes;705171;Chrome;112.0;Windows;10;undefined;undefined;1920 x 1080;1920 x 1080
H039;26;Vrouwelijk;Rechts;3;96;left;no;400;leftarrow;725;true;focus;yes;706659;Chrome;112.0;Windows;10;undefined;undefined;1920 x 1080;1920 x 1080
H039;26;Vrouwelijk;Rechts;3;97;left;yes;400;leftarrow;612;false;focus;yes;708035;Chrome;112.0;Windows;10;undefined;undefined;1920 x 1080;1920 x 1080
H039;26;Vrouwelijk;Rechts;3;98;left;no;350;leftarrow;566;true;focus;yes;709363;Chrome;112.0;Windows;10;undefined;undefined;1920 x 1080;1920 x 1080
H039;26;Vrouwelijk;Rechts;3;99;right;yes;350;undefined;null;true;focus;yes;711375;Chrome;112.0;Windows;10;undefined;undefined;1920 x 1080;1920 x 1080
H039;26;Vrouwelijk;Rechts;3;100;left;no;400;leftarrow;672;true;focus;yes;712811;Chrome;112.0;Windows;10;undefined;undefined;1920 x 1080;1920 x 1080
H039;26;Vrouwelijk;Rechts;3;101;left;no;400;leftarrow;713;true;focus;yes;714291;Chrome;112.0;Windows;10;undefined;undefined;1920 x 1080;1920 x 1080
H039;26;Vrouwelijk;Rechts;3;102;right;no;400;rightarrow;724;true;focus;yes;715787;Chrome;112.0;Windows;10;undefined;undefined;1920 x 1080;1920 x 1080
H039;26;Vrouwelijk;Rechts;3;103;right;no;400;rightarrow;667;true;focus;yes;717219;Chrome;112.0;Windows;10;undefined;undefined;1920 x 1080;1920 x 1080
H039;26;Vrouwelijk;Rechts;3;104;right;no;400;rightarrow;597;true;focus;yes;718587;Chrome;112.0;Windows;10;undefined;undefined;1920 x 1080;1920 x 1080
H039;26;Vrouwelijk;Rechts;3;105;right;yes;400;rightarrow;558;false;focus;yes;719907;Chrome;112.0;Windows;10;undefined;undefined;1920 x 1080;1920 x 1080
H039;26;Vrouwelijk;Rechts;3;106;right;no;350;rightarrow;743;true;focus;yes;721419;Chrome;112.0;Windows;10;undefined;undefined;1920 x 1080;1920 x 1080
H039;26;Vrouwelijk;Rechts;3;107;left;yes;350;undefined;null;true;focus;yes;723436;Chrome;112.0;Windows;10;undefined;undefined;1920 x 1080;1920 x 1080
H039;26;Vrouwelijk;Rechts;3;108;left;no;400;leftarrow;581;true;focus;yes;724779;Chrome;112.0;Windows;10;undefined;undefined;1920 x 1080;1920 x 1080
H039;26;Vrouwelijk;Rechts;3;109;left;no;400;leftarrow;494;true;focus;yes;726035;Chrome;112.0;Windows;10;undefined;undefined;1920 x 1080;1920 x 1080
H039;26;Vrouwelijk;Rechts;3;110;right;no;400;rightarrow;615;true;focus;yes;727419;Chrome;112.0;Windows;10;undefined;undefined;1920 x 1080;1920 x 1080
H039;26;Vrouwelijk;Rechts;3;111;left;no;400;leftarrow;590;true;focus;yes;728771;Chrome;112.0;Windows;10;undefined;undefined;1920 x 1080;1920 x 1080
H039;26;Vrouwelijk;Rechts;3;112;right;no;400;rightarrow;624;true;focus;yes;730163;Chrome;112.0;Windows;10;undefined;undefined;1920 x 1080;1920 x 1080
H039;26;Vrouwelijk;Rechts;3;113;left;yes;400;leftarrow;545;false;focus;yes;731475;Chrome;112.0;Windows;10;undefined;undefined;1920 x 1080;1920 x 1080
H039;26;Vrouwelijk;Rechts;3;114;left;no;350;leftarrow;617;true;focus;yes;732859;Chrome;112.0;Windows;10;undefined;undefined;1920 x 1080;1920 x 1080
H039;26;Vrouwelijk;Rechts;3;115;left;no;350;leftarrow;564;true;focus;yes;734195;Chrome;112.0;Windows;10;undefined;undefined;1920 x 1080;1920 x 1080
H039;26;Vrouwelijk;Rechts;3;116;right;no;350;rightarrow;708;true;focus;yes;735667;Chrome;112.0;Windows;10;undefined;undefined;1920 x 1080;1920 x 1080
H039;26;Vrouwelijk;Rechts;3;117;left;no;350;leftarrow;564;true;focus;yes;736995;Chrome;112.0;Windows;10;undefined;undefined;1920 x 1080;1920 x 1080
H039;26;Vrouwelijk;Rechts;3;118;right;yes;350;undefined;null;true;focus;yes;739009;Chrome;112.0;Windows;10;undefined;undefined;1920 x 1080;1920 x 1080
H039;26;Vrouwelijk;Rechts;3;119;right;no;400;rightarrow;668;true;focus;yes;740435;Chrome;112.0;Windows;10;undefined;undefined;1920 x 1080;1920 x 1080
H039;26;Vrouwelijk;Rechts;3;120;right;no;400;rightarrow;577;true;focus;yes;741771;Chrome;112.0;Windows;10;undefined;undefined;1920 x 1080;1920 x 1080
H039;26;Vrouwelijk;Rechts;3;121;right;no;400;rightarrow;618;true;focus;yes;743155;Chrome;112.0;Windows;10;undefined;undefined;1920 x 1080;1920 x 1080
H039;26;Vrouwelijk;Rechts;3;122;left;no;400;leftarrow;651;true;focus;yes;744563;Chrome;112.0;Windows;10;undefined;undefined;1920 x 1080;1920 x 1080
H039;26;Vrouwelijk;Rechts;3;123;left;no;400;leftarrow;531;true;focus;yes;745867;Chrome;112.0;Windows;10;undefined;undefined;1920 x 1080;1920 x 1080
H039;26;Vrouwelijk;Rechts;3;124;left;yes;400;undefined;null;true;focus;yes;747883;Chrome;112.0;Windows;10;undefined;undefined;1920 x 1080;1920 x 1080
H039;26;Vrouwelijk;Rechts;3;125;right;no;450;rightarrow;575;true;focus;yes;749219;Chrome;112.0;Windows;10;undefined;undefined;1920 x 1080;1920 x 1080
H039;26;Vrouwelijk;Rechts;3;126;right;yes;450;undefined;null;true;focus;yes;751240;Chrome;112.0;Windows;10;undefined;undefined;1920 x 1080;1920 x 1080
H039;26;Vrouwelijk;Rechts;3;127;right;no;500;rightarrow;600;true;focus;yes;752603;Chrome;112.0;Windows;10;undefined;undefined;1920 x 1080;1920 x 1080
H039;26;Vrouwelijk;Rechts;3;128;left;no;500;leftarrow;392;true;focus;yes;753755;Chrome;112.0;Windows;10;undefined;undefined;1920 x 1080;1920 x 1080
H039;26;Vrouwelijk;Rechts;4;1;right;no;500;rightarrow;450;true;focus;yes;801515;Chrome;112.0;Windows;10;undefined;undefined;1920 x 1080;1920 x 1080
H039;26;Vrouwelijk;Rechts;4;2;right;no;500;rightarrow;516;true;focus;yes;802795;Chrome;112.0;Windows;10;undefined;undefined;1920 x 1080;1920 x 1080
H039;26;Vrouwelijk;Rechts;4;3;left;no;500;leftarrow;525;true;focus;yes;804083;Chrome;112.0;Windows;10;undefined;undefined;1920 x 1080;1920 x 1080
H039;26;Vrouwelijk;Rechts;4;4;right;no;500;rightarrow;549;true;focus;yes;805403;Chrome;112.0;Windows;10;undefined;undefined;1920 x 1080;1920 x 1080
H039;26;Vrouwelijk;Rechts;4;5;left;no;500;leftarrow;534;true;focus;yes;806699;Chrome;112.0;Windows;10;undefined;undefined;1920 x 1080;1920 x 1080
H039;26;Vrouwelijk;Rechts;4;6;left;yes;500;leftarrow;520;false;focus;yes;807979;Chrome;112.0;Windows;10;undefined;undefined;1920 x 1080;1920 x 1080
H039;26;Vrouwelijk;Rechts;4;7;left;no;450;leftarrow;625;true;focus;yes;809363;Chrome;112.0;Windows;10;undefined;undefined;1920 x 1080;1920 x 1080
H039;26;Vrouwelijk;Rechts;4;8;right;yes;450;rightarrow;538;false;focus;yes;810667;Chrome;112.0;Windows;10;undefined;undefined;1920 x 1080;1920 x 1080
H039;26;Vrouwelijk;Rechts;4;9;left;yes;400;leftarrow;522;false;focus;yes;811947;Chrome;112.0;Windows;10;undefined;undefined;1920 x 1080;1920 x 1080
H039;26;Vrouwelijk;Rechts;4;10;left;no;350;leftarrow;580;true;focus;yes;813299;Chrome;112.0;Windows;10;undefined;undefined;1920 x 1080;1920 x 1080
H039;26;Vrouwelijk;Rechts;4;11;right;no;350;rightarrow;508;true;focus;yes;814571;Chrome;112.0;Windows;10;undefined;undefined;1920 x 1080;1920 x 1080
H039;26;Vrouwelijk;Rechts;4;12;left;no;350;leftarrow;494;true;focus;yes;815835;Chrome;112.0;Windows;10;undefined;undefined;1920 x 1080;1920 x 1080
H039;26;Vrouwelijk;Rechts;4;13;left;no;350;leftarrow;526;true;focus;yes;817131;Chrome;112.0;Windows;10;undefined;undefined;1920 x 1080;1920 x 1080
H039;26;Vrouwelijk;Rechts;4;14;right;yes;350;undefined;null;true;focus;yes;819153;Chrome;112.0;Windows;10;undefined;undefined;1920 x 1080;1920 x 1080
H039;26;Vrouwelijk;Rechts;4;15;right;no;400;rightarrow;528;true;focus;yes;820443;Chrome;112.0;Windows;10;undefined;undefined;1920 x 1080;1920 x 1080
H039;26;Vrouwelijk;Rechts;4;16;right;no;400;rightarrow;521;true;focus;yes;821731;Chrome;112.0;Windows;10;undefined;undefined;1920 x 1080;1920 x 1080
H039;26;Vrouwelijk;Rechts;4;17;left;no;400;leftarrow;578;true;focus;yes;823067;Chrome;112.0;Windows;10;undefined;undefined;1920 x 1080;1920 x 1080
H039;26;Vrouwelijk;Rechts;4;18;right;yes;400;rightarrow;530;false;focus;yes;824363;Chrome;112.0;Windows;10;undefined;undefined;1920 x 1080;1920 x 1080
H039;26;Vrouwelijk;Rechts;4;19;left;no;350;leftarrow;644;true;focus;yes;825771;Chrome;112.0;Windows;10;undefined;undefined;1920 x 1080;1920 x 1080
H039;26;Vrouwelijk;Rechts;4;20;right;no;350;rightarrow;589;true;focus;yes;827123;Chrome;112.0;Windows;10;undefined;undefined;1920 x 1080;1920 x 1080
H039;26;Vrouwelijk;Rechts;4;21;right;no;350;rightarrow;589;true;focus;yes;828483;Chrome;112.0;Windows;10;undefined;undefined;1920 x 1080;1920 x 1080
H039;26;Vrouwelijk;Rechts;4;22;right;no;350;rightarrow;598;true;focus;yes;829851;Chrome;112.0;Windows;10;undefined;undefined;1920 x 1080;1920 x 1080
H039;26;Vrouwelijk;Rechts;4;23;left;yes;350;undefined;null;true;focus;yes;831867;Chrome;112.0;Windows;10;undefined;undefined;1920 x 1080;1920 x 1080
H039;26;Vrouwelijk;Rechts;4;24;left;no;400;leftarrow;565;true;focus;yes;833195;Chrome;112.0;Windows;10;undefined;undefined;1920 x 1080;1920 x 1080
H039;26;Vrouwelijk;Rechts;4;25;right;yes;400;rightarrow;599;false;focus;yes;834555;Chrome;112.0;Windows;10;undefined;undefined;1920 x 1080;1920 x 1080
H039;26;Vrouwelijk;Rechts;4;26;left;yes;350;undefined;null;true;focus;yes;836583;Chrome;112.0;Windows;10;undefined;undefined;1920 x 1080;1920 x 1080
H039;26;Vrouwelijk;Rechts;4;27;right;no;400;rightarrow;505;true;focus;yes;837851;Chrome;112.0;Windows;10;undefined;undefined;1920 x 1080;1920 x 1080
H039;26;Vrouwelijk;Rechts;4;28;left;no;400;leftarrow;707;true;focus;yes;839331;Chrome;112.0;Windows;10;undefined;undefined;1920 x 1080;1920 x 1080
H039;26;Vrouwelijk;Rechts;4;29;right;no;400;rightarrow;605;true;focus;yes;840699;Chrome;112.0;Windows;10;undefined;undefined;1920 x 1080;1920 x 1080
H039;26;Vrouwelijk;Rechts;4;30;left;no;400;leftarrow;717;true;focus;yes;842187;Chrome;112.0;Windows;10;undefined;undefined;1920 x 1080;1920 x 1080
H039;26;Vrouwelijk;Rechts;4;31;right;no;400;rightarrow;718;true;focus;yes;843675;Chrome;112.0;Windows;10;undefined;undefined;1920 x 1080;1920 x 1080
H039;26;Vrouwelijk;Rechts;4;32;left;no;400;leftarrow;589;true;focus;yes;845035;Chrome;112.0;Windows;10;undefined;undefined;1920 x 1080;1920 x 1080
H039;26;Vrouwelijk;Rechts;4;33;left;no;400;leftarrow;661;true;focus;yes;846467;Chrome;112.0;Windows;10;undefined;undefined;1920 x 1080;1920 x 1080
H039;26;Vrouwelijk;Rechts;4;34;right;yes;400;undefined;null;true;focus;yes;848497;Chrome;112.0;Windows;10;undefined;undefined;1920 x 1080;1920 x 1080
H039;26;Vrouwelijk;Rechts;4;35;left;no;450;leftarrow;527;true;focus;yes;849787;Chrome;112.0;Windows;10;undefined;undefined;1920 x 1080;1920 x 1080
H039;26;Vrouwelijk;Rechts;4;36;right;no;450;rightarrow;848;true;focus;yes;851403;Chrome;112.0;Windows;10;undefined;undefined;1920 x 1080;1920 x 1080
H039;26;Vrouwelijk;Rechts;4;37;left;no;450;leftarrow;873;true;focus;yes;853043;Chrome;112.0;Windows;10;undefined;undefined;1920 x 1080;1920 x 1080
H039;26;Vrouwelijk;Rechts;4;38;right;no;450;rightarrow;850;true;focus;yes;854651;Chrome;112.0;Windows;10;undefined;undefined;1920 x 1080;1920 x 1080
H039;26;Vrouwelijk;Rechts;4;39;left;yes;450;undefined;null;true;focus;yes;856667;Chrome;112.0;Windows;10;undefined;undefined;1920 x 1080;1920 x 1080
H039;26;Vrouwelijk;Rechts;4;40;right;no;500;rightarrow;725;true;focus;yes;858155;Chrome;112.0;Windows;10;undefined;undefined;1920 x 1080;1920 x 1080
H039;26;Vrouwelijk;Rechts;4;41;left;no;500;leftarrow;614;true;focus;yes;859531;Chrome;112.0;Windows;10;undefined;undefined;1920 x 1080;1920 x 1080
H039;26;Vrouwelijk;Rechts;4;42;right;no;500;rightarrow;655;true;focus;yes;860947;Chrome;112.0;Windows;10;undefined;undefined;1920 x 1080;1920 x 1080
H039;26;Vrouwelijk;Rechts;4;43;right;yes;500;rightarrow;653;false;focus;yes;862371;Chrome;112.0;Windows;10;undefined;undefined;1920 x 1080;1920 x 1080
H039;26;Vrouwelijk;Rechts;4;44;left;no;450;leftarrow;662;true;focus;yes;863803;Chrome;112.0;Windows;10;undefined;undefined;1920 x 1080;1920 x 1080
H039;26;Vrouwelijk;Rechts;4;45;right;no;450;rightarrow;583;true;focus;yes;865147;Chrome;112.0;Windows;10;undefined;undefined;1920 x 1080;1920 x 1080
H039;26;Vrouwelijk;Rechts;4;46;right;no;450;rightarrow;632;true;focus;yes;866539;Chrome;112.0;Windows;10;undefined;undefined;1920 x 1080;1920 x 1080
H039;26;Vrouwelijk;Rechts;4;47;left;yes;450;undefined;null;true;focus;yes;868548;Chrome;112.0;Windows;10;undefined;undefined;1920 x 1080;1920 x 1080
H039;26;Vrouwelijk;Rechts;4;48;left;no;500;leftarrow;667;true;focus;yes;869979;Chrome;112.0;Windows;10;undefined;undefined;1920 x 1080;1920 x 1080
H039;26;Vrouwelijk;Rechts;4;49;left;no;500;leftarrow;948;true;focus;yes;871699;Chrome;112.0;Windows;10;undefined;undefined;1920 x 1080;1920 x 1080
H039;26;Vrouwelijk;Rechts;4;50;left;no;500;leftarrow;557;true;focus;yes;873019;Chrome;112.0;Windows;10;undefined;undefined;1920 x 1080;1920 x 1080
H039;26;Vrouwelijk;Rechts;4;51;left;yes;500;leftarrow;608;false;focus;yes;874395;Chrome;112.0;Windows;10;undefined;undefined;1920 x 1080;1920 x 1080
H039;26;Vrouwelijk;Rechts;4;52;left;no;450;leftarrow;616;true;focus;yes;875779;Chrome;112.0;Windows;10;undefined;undefined;1920 x 1080;1920 x 1080
H039;26;Vrouwelijk;Rechts;4;53;right;yes;450;undefined;null;true;focus;yes;877792;Chrome;112.0;Windows;10;undefined;undefined;1920 x 1080;1920 x 1080
H039;26;Vrouwelijk;Rechts;4;54;right;no;500;rightarrow;496;true;focus;yes;879051;Chrome;112.0;Windows;10;undefined;undefined;1920 x 1080;1920 x 1080
H039;26;Vrouwelijk;Rechts;4;55;right;no;500;rightarrow;682;true;focus;yes;880499;Chrome;112.0;Windows;10;undefined;undefined;1920 x 1080;1920 x 1080
H039;26;Vrouwelijk;Rechts;4;56;right;no;500;rightarrow;788;true;focus;yes;882059;Chrome;112.0;Windows;10;undefined;undefined;1920 x 1080;1920 x 1080
H039;26;Vrouwelijk;Rechts;4;57;right;yes;500;rightarrow;405;false;focus;yes;883227;Chrome;112.0;Windows;10;undefined;undefined;1920 x 1080;1920 x 1080
H039;26;Vrouwelijk;Rechts;4;58;left;no;450;leftarrow;637;true;focus;yes;884627;Chrome;112.0;Windows;10;undefined;undefined;1920 x 1080;1920 x 1080
H039;26;Vrouwelijk;Rechts;4;59;left;yes;450;leftarrow;662;false;focus;yes;886059;Chrome;112.0;Windows;10;undefined;undefined;1920 x 1080;1920 x 1080
H039;26;Vrouwelijk;Rechts;4;60;right;no;400;rightarrow;831;true;focus;yes;887651;Chrome;112.0;Windows;10;undefined;undefined;1920 x 1080;1920 x 1080
H039;26;Vrouwelijk;Rechts;4;61;right;no;400;rightarrow;648;true;focus;yes;889067;Chrome;112.0;Windows;10;undefined;undefined;1920 x 1080;1920 x 1080
H039;26;Vrouwelijk;Rechts;4;62;left;no;400;leftarrow;688;true;focus;yes;890515;Chrome;112.0;Windows;10;undefined;undefined;1920 x 1080;1920 x 1080
H039;26;Vrouwelijk;Rechts;4;63;right;no;400;rightarrow;746;true;focus;yes;892027;Chrome;112.0;Windows;10;undefined;undefined;1920 x 1080;1920 x 1080
H039;26;Vrouwelijk;Rechts;4;64;left;no;400;leftarrow;634;true;focus;yes;893419;Chrome;112.0;Windows;10;undefined;undefined;1920 x 1080;1920 x 1080
H039;26;Vrouwelijk;Rechts;4;65;left;no;400;leftarrow;651;true;focus;yes;894843;Chrome;112.0;Windows;10;undefined;undefined;1920 x 1080;1920 x 1080
H039;26;Vrouwelijk;Rechts;4;66;left;yes;400;leftarrow;620;false;focus;yes;896235;Chrome;112.0;Windows;10;undefined;undefined;1920 x 1080;1920 x 1080
H039;26;Vrouwelijk;Rechts;4;67;left;no;350;leftarrow;710;true;focus;yes;897715;Chrome;112.0;Windows;10;undefined;undefined;1920 x 1080;1920 x 1080
H039;26;Vrouwelijk;Rechts;4;68;right;yes;350;undefined;null;true;focus;yes;899729;Chrome;112.0;Windows;10;undefined;undefined;1920 x 1080;1920 x 1080
H039;26;Vrouwelijk;Rechts;4;69;right;no;400;rightarrow;622;true;focus;yes;901115;Chrome;112.0;Windows;10;undefined;undefined;1920 x 1080;1920 x 1080
H039;26;Vrouwelijk;Rechts;4;70;right;no;400;rightarrow;561;true;focus;yes;902443;Chrome;112.0;Windows;10;undefined;undefined;1920 x 1080;1920 x 1080
H039;26;Vrouwelijk;Rechts;4;71;left;no;400;leftarrow;634;true;focus;yes;903843;Chrome;112.0;Windows;10;undefined;undefined;1920 x 1080;1920 x 1080
H039;26;Vrouwelijk;Rechts;4;72;right;no;400;rightarrow;618;true;focus;yes;905219;Chrome;112.0;Windows;10;undefined;undefined;1920 x 1080;1920 x 1080
H039;26;Vrouwelijk;Rechts;4;73;left;no;400;leftarrow;633;true;focus;yes;906611;Chrome;112.0;Windows;10;undefined;undefined;1920 x 1080;1920 x 1080
H039;26;Vrouwelijk;Rechts;4;74;left;yes;400;undefined;null;true;focus;yes;908636;Chrome;112.0;Windows;10;undefined;undefined;1920 x 1080;1920 x 1080
H039;26;Vrouwelijk;Rechts;4;75;right;yes;450;rightarrow;670;false;focus;yes;910067;Chrome;112.0;Windows;10;undefined;undefined;1920 x 1080;1920 x 1080
H039;26;Vrouwelijk;Rechts;4;76;left;no;400;leftarrow;703;true;focus;yes;911539;Chrome;112.0;Windows;10;undefined;undefined;1920 x 1080;1920 x 1080
H039;26;Vrouwelijk;Rechts;4;77;right;no;400;rightarrow;631;true;focus;yes;912939;Chrome;112.0;Windows;10;undefined;undefined;1920 x 1080;1920 x 1080
H039;26;Vrouwelijk;Rechts;4;78;left;no;400;leftarrow;704;true;focus;yes;914403;Chrome;112.0;Windows;10;undefined;undefined;1920 x 1080;1920 x 1080
H039;26;Vrouwelijk;Rechts;4;79;right;no;400;rightarrow;792;true;focus;yes;915963;Chrome;112.0;Windows;10;undefined;undefined;1920 x 1080;1920 x 1080
H039;26;Vrouwelijk;Rechts;4;80;right;no;400;rightarrow;762;true;focus;yes;917483;Chrome;112.0;Windows;10;undefined;undefined;1920 x 1080;1920 x 1080
H039;26;Vrouwelijk;Rechts;4;81;right;no;400;rightarrow;753;true;focus;yes;918995;Chrome;112.0;Windows;10;undefined;undefined;1920 x 1080;1920 x 1080
H039;26;Vrouwelijk;Rechts;4;82;left;no;400;leftarrow;656;true;focus;yes;920419;Chrome;112.0;Windows;10;undefined;undefined;1920 x 1080;1920 x 1080
H039;26;Vrouwelijk;Rechts;4;83;right;no;400;rightarrow;666;true;focus;yes;921851;Chrome;112.0;Windows;10;undefined;undefined;1920 x 1080;1920 x 1080
H039;26;Vrouwelijk;Rechts;4;84;left;no;400;leftarrow;658;true;focus;yes;923267;Chrome;112.0;Windows;10;undefined;undefined;1920 x 1080;1920 x 1080
H039;26;Vrouwelijk;Rechts;4;85;right;no;400;rightarrow;568;true;focus;yes;924603;Chrome;112.0;Windows;10;undefined;undefined;1920 x 1080;1920 x 1080
H039;26;Vrouwelijk;Rechts;4;86;left;no;400;leftarrow;583;true;focus;yes;925946;Chrome;112.0;Windows;10;undefined;undefined;1920 x 1080;1920 x 1080
H039;26;Vrouwelijk;Rechts;4;87;right;yes;400;undefined;null;true;focus;yes;927971;Chrome;112.0;Windows;10;undefined;undefined;1920 x 1080;1920 x 1080
H039;26;Vrouwelijk;Rechts;4;88;left;yes;450;undefined;null;true;focus;yes;929988;Chrome;112.0;Windows;10;undefined;undefined;1920 x 1080;1920 x 1080
H039;26;Vrouwelijk;Rechts;4;89;left;no;500;leftarrow;732;true;focus;yes;931482;Chrome;112.0;Windows;10;undefined;undefined;1920 x 1080;1920 x 1080
H039;26;Vrouwelijk;Rechts;4;90;left;no;500;leftarrow;727;true;focus;yes;932978;Chrome;112.0;Windows;10;undefined;undefined;1920 x 1080;1920 x 1080
H039;26;Vrouwelijk;Rechts;4;91;right;no;500;rightarrow;720;true;focus;yes;934458;Chrome;112.0;Windows;10;undefined;undefined;1920 x 1080;1920 x 1080
H039;26;Vrouwelijk;Rechts;4;92;right;yes;500;rightarrow;664;false;focus;yes;935890;Chrome;112.0;Windows;10;undefined;undefined;1920 x 1080;1920 x 1080
H039;26;Vrouwelijk;Rechts;4;93;left;no;450;leftarrow;634;true;focus;yes;937282;Chrome;112.0;Windows;10;undefined;undefined;1920 x 1080;1920 x 1080
H039;26;Vrouwelijk;Rechts;4;94;right;no;450;rightarrow;802;true;focus;yes;938858;Chrome;112.0;Windows;10;undefined;undefined;1920 x 1080;1920 x 1080
H039;26;Vrouwelijk;Rechts;4;95;right;no;450;rightarrow;515;true;focus;yes;940138;Chrome;112.0;Windows;10;undefined;undefined;1920 x 1080;1920 x 1080
H039;26;Vrouwelijk;Rechts;4;96;left;yes;450;undefined;null;true;focus;yes;942157;Chrome;112.0;Windows;10;undefined;undefined;1920 x 1080;1920 x 1080
H039;26;Vrouwelijk;Rechts;4;97;left;yes;500;undefined;null;true;focus;yes;944175;Chrome;112.0;Windows;10;undefined;undefined;1920 x 1080;1920 x 1080
H039;26;Vrouwelijk;Rechts;4;98;left;no;550;leftarrow;688;true;focus;yes;945627;Chrome;112.0;Windows;10;undefined;undefined;1920 x 1080;1920 x 1080
H039;26;Vrouwelijk;Rechts;4;99;left;no;550;leftarrow;584;true;focus;yes;946978;Chrome;112.0;Windows;10;undefined;undefined;1920 x 1080;1920 x 1080
H039;26;Vrouwelijk;Rechts;4;100;left;no;550;leftarrow;617;true;focus;yes;948354;Chrome;112.0;Windows;10;undefined;undefined;1920 x 1080;1920 x 1080
H039;26;Vrouwelijk;Rechts;4;101;right;no;550;rightarrow;849;true;focus;yes;949962;Chrome;112.0;Windows;10;undefined;undefined;1920 x 1080;1920 x 1080
H039;26;Vrouwelijk;Rechts;4;102;right;no;550;rightarrow;676;true;focus;yes;951402;Chrome;112.0;Windows;10;undefined;undefined;1920 x 1080;1920 x 1080
H039;26;Vrouwelijk;Rechts;4;103;right;yes;550;rightarrow;660;false;focus;yes;952826;Chrome;112.0;Windows;10;undefined;undefined;1920 x 1080;1920 x 1080
H039;26;Vrouwelijk;Rechts;4;104;right;no;500;rightarrow;735;true;focus;yes;954322;Chrome;112.0;Windows;10;undefined;undefined;1920 x 1080;1920 x 1080
H039;26;Vrouwelijk;Rechts;4;105;left;no;500;leftarrow;662;true;focus;yes;955754;Chrome;112.0;Windows;10;undefined;undefined;1920 x 1080;1920 x 1080
H039;26;Vrouwelijk;Rechts;4;106;left;no;500;leftarrow;614;true;focus;yes;957131;Chrome;112.0;Windows;10;undefined;undefined;1920 x 1080;1920 x 1080
H039;26;Vrouwelijk;Rechts;4;107;left;no;500;leftarrow;605;true;focus;yes;958498;Chrome;112.0;Windows;10;undefined;undefined;1920 x 1080;1920 x 1080
H039;26;Vrouwelijk;Rechts;4;108;right;no;500;rightarrow;696;true;focus;yes;959962;Chrome;112.0;Windows;10;undefined;undefined;1920 x 1080;1920 x 1080
H039;26;Vrouwelijk;Rechts;4;109;right;yes;500;undefined;null;true;focus;yes;961972;Chrome;112.0;Windows;10;undefined;undefined;1920 x 1080;1920 x 1080
H039;26;Vrouwelijk;Rechts;4;110;left;yes;550;leftarrow;715;false;focus;yes;963450;Chrome;112.0;Windows;10;undefined;undefined;1920 x 1080;1920 x 1080
H039;26;Vrouwelijk;Rechts;4;111;right;no;500;rightarrow;813;true;focus;yes;965034;Chrome;112.0;Windows;10;undefined;undefined;1920 x 1080;1920 x 1080
H039;26;Vrouwelijk;Rechts;4;112;right;no;500;rightarrow;814;true;focus;yes;966618;Chrome;112.0;Windows;10;undefined;undefined;1920 x 1080;1920 x 1080
H039;26;Vrouwelijk;Rechts;4;113;left;no;500;leftarrow;911;true;focus;yes;968298;Chrome;112.0;Windows;10;undefined;undefined;1920 x 1080;1920 x 1080
H039;26;Vrouwelijk;Rechts;4;114;left;no;500;leftarrow;880;true;focus;yes;969946;Chrome;112.0;Windows;10;undefined;undefined;1920 x 1080;1920 x 1080
H039;26;Vrouwelijk;Rechts;4;115;right;no;500;rightarrow;751;true;focus;yes;971466;Chrome;112.0;Windows;10;undefined;undefined;1920 x 1080;1920 x 1080
H039;26;Vrouwelijk;Rechts;4;116;left;no;500;leftarrow;784;true;focus;yes;973018;Chrome;112.0;Windows;10;undefined;undefined;1920 x 1080;1920 x 1080
H039;26;Vrouwelijk;Rechts;4;117;left;yes;500;undefined;null;true;focus;yes;975038;Chrome;112.0;Windows;10;undefined;undefined;1920 x 1080;1920 x 1080
H039;26;Vrouwelijk;Rechts;4;118;right;yes;550;rightarrow;657;false;focus;yes;976458;Chrome;112.0;Windows;10;undefined;undefined;1920 x 1080;1920 x 1080
H039;26;Vrouwelijk;Rechts;4;119;right;no;500;rightarrow;617;true;focus;yes;977842;Chrome;112.0;Windows;10;undefined;undefined;1920 x 1080;1920 x 1080
H039;26;Vrouwelijk;Rechts;4;120;right;no;500;rightarrow;812;true;focus;yes;979426;Chrome;112.0;Windows;10;undefined;undefined;1920 x 1080;1920 x 1080
H039;26;Vrouwelijk;Rechts;4;121;right;yes;500;undefined;null;true;focus;yes;981449;Chrome;112.0;Windows;10;undefined;undefined;1920 x 1080;1920 x 1080
H039;26;Vrouwelijk;Rechts;4;122;left;no;550;leftarrow;659;true;focus;yes;982875;Chrome;112.0;Windows;10;undefined;undefined;1920 x 1080;1920 x 1080
H039;26;Vrouwelijk;Rechts;4;123;left;no;550;leftarrow;820;true;focus;yes;984458;Chrome;112.0;Windows;10;undefined;undefined;1920 x 1080;1920 x 1080
H039;26;Vrouwelijk;Rechts;4;124;right;no;550;rightarrow;852;true;focus;yes;986074;Chrome;112.0;Windows;10;undefined;undefined;1920 x 1080;1920 x 1080
H039;26;Vrouwelijk;Rechts;4;125;left;no;550;leftarrow;868;true;focus;yes;987706;Chrome;112.0;Windows;10;undefined;undefined;1920 x 1080;1920 x 1080
H039;26;Vrouwelijk;Rechts;4;126;right;no;550;rightarrow;767;true;focus;yes;989234;Chrome;112.0;Windows;10;undefined;undefined;1920 x 1080;1920 x 1080
H039;26;Vrouwelijk;Rechts;4;127;left;yes;550;undefined;null;true;focus;yes;991256;Chrome;112.0;Windows;10;undefined;undefined;1920 x 1080;1920 x 1080
H039;26;Vrouwelijk;Rechts;4;128;right;no;600;rightarrow;687;true;focus;yes;992706;Chrome;112.0;Windows;10;undefined;undefined;1920 x 1080;1920 x 1080
H039;26;Vrouwelijk;Rechts;5;1;right;no;600;rightarrow;541;true;focus;yes;1012226;Chrome;112.0;Windows;10;undefined;undefined;1920 x 1080;1920 x 1080
H039;26;Vrouwelijk;Rechts;5;2;left;no;600;leftarrow;543;true;focus;yes;1013538;Chrome;112.0;Windows;10;undefined;undefined;1920 x 1080;1920 x 1080
H039;26;Vrouwelijk;Rechts;5;3;right;no;600;rightarrow;621;true;focus;yes;1014930;Chrome;112.0;Windows;10;undefined;undefined;1920 x 1080;1920 x 1080
H039;26;Vrouwelijk;Rechts;5;4;right;no;600;rightarrow;500;true;focus;yes;1016202;Chrome;112.0;Windows;10;undefined;undefined;1920 x 1080;1920 x 1080
H039;26;Vrouwelijk;Rechts;5;5;left;no;600;leftarrow;524;true;focus;yes;1017490;Chrome;112.0;Windows;10;undefined;undefined;1920 x 1080;1920 x 1080
H039;26;Vrouwelijk;Rechts;5;6;left;no;600;leftarrow;509;true;focus;yes;1018770;Chrome;112.0;Windows;10;undefined;undefined;1920 x 1080;1920 x 1080
H039;26;Vrouwelijk;Rechts;5;7;right;yes;600;rightarrow;670;false;focus;yes;1020210;Chrome;112.0;Windows;10;undefined;undefined;1920 x 1080;1920 x 1080
H039;26;Vrouwelijk;Rechts;5;8;left;yes;550;leftarrow;655;false;focus;yes;1021634;Chrome;112.0;Windows;10;undefined;undefined;1920 x 1080;1920 x 1080
H039;26;Vrouwelijk;Rechts;5;9;left;no;500;leftarrow;592;true;focus;yes;1022994;Chrome;112.0;Windows;10;undefined;undefined;1920 x 1080;1920 x 1080
H039;26;Vrouwelijk;Rechts;5;10;left;yes;500;leftarrow;426;false;focus;yes;1024186;Chrome;112.0;Windows;10;undefined;undefined;1920 x 1080;1920 x 1080
H039;26;Vrouwelijk;Rechts;5;11;right;no;450;rightarrow;425;true;focus;yes;1025370;Chrome;112.0;Windows;10;undefined;undefined;1920 x 1080;1920 x 1080
H039;26;Vrouwelijk;Rechts;5;12;left;no;450;leftarrow;761;true;focus;yes;1026890;Chrome;112.0;Windows;10;undefined;undefined;1920 x 1080;1920 x 1080
H039;26;Vrouwelijk;Rechts;5;13;left;no;450;leftarrow;693;true;focus;yes;1028354;Chrome;112.0;Windows;10;undefined;undefined;1920 x 1080;1920 x 1080
H039;26;Vrouwelijk;Rechts;5;14;right;yes;450;rightarrow;599;false;focus;yes;1029714;Chrome;112.0;Windows;10;undefined;undefined;1920 x 1080;1920 x 1080
H039;26;Vrouwelijk;Rechts;5;15;right;no;400;rightarrow;656;true;focus;yes;1031130;Chrome;112.0;Windows;10;undefined;undefined;1920 x 1080;1920 x 1080
H039;26;Vrouwelijk;Rechts;5;16;right;no;400;rightarrow;1073;true;focus;yes;1032970;Chrome;112.0;Windows;10;undefined;undefined;1920 x 1080;1920 x 1080
H039;26;Vrouwelijk;Rechts;5;17;left;no;400;leftarrow;651;true;focus;yes;1034386;Chrome;112.0;Windows;10;undefined;undefined;1920 x 1080;1920 x 1080
H039;26;Vrouwelijk;Rechts;5;18;right;no;400;rightarrow;763;true;focus;yes;1035922;Chrome;112.0;Windows;10;undefined;undefined;1920 x 1080;1920 x 1080
H039;26;Vrouwelijk;Rechts;5;19;right;no;400;rightarrow;668;true;focus;yes;1037362;Chrome;112.0;Windows;10;undefined;undefined;1920 x 1080;1920 x 1080
H039;26;Vrouwelijk;Rechts;5;20;left;no;400;leftarrow;741;true;focus;yes;1038874;Chrome;112.0;Windows;10;undefined;undefined;1920 x 1080;1920 x 1080
H039;26;Vrouwelijk;Rechts;5;21;left;yes;400;undefined;null;true;focus;yes;1040887;Chrome;112.0;Windows;10;undefined;undefined;1920 x 1080;1920 x 1080
H039;26;Vrouwelijk;Rechts;5;22;right;no;450;rightarrow;608;true;focus;yes;1042258;Chrome;112.0;Windows;10;undefined;undefined;1920 x 1080;1920 x 1080
H039;26;Vrouwelijk;Rechts;5;23;right;yes;450;undefined;null;true;focus;yes;1044277;Chrome;112.0;Windows;10;undefined;undefined;1920 x 1080;1920 x 1080
H039;26;Vrouwelijk;Rechts;5;24;left;no;500;leftarrow;577;true;focus;yes;1045618;Chrome;112.0;Windows;10;undefined;undefined;1920 x 1080;1920 x 1080
H039;26;Vrouwelijk;Rechts;5;25;right;no;500;rightarrow;666;true;focus;yes;1047051;Chrome;112.0;Windows;10;undefined;undefined;1920 x 1080;1920 x 1080
H039;26;Vrouwelijk;Rechts;5;26;left;yes;500;leftarrow;572;false;focus;yes;1048395;Chrome;112.0;Windows;10;undefined;undefined;1920 x 1080;1920 x 1080
H039;26;Vrouwelijk;Rechts;5;27;left;no;450;leftarrow;437;true;focus;yes;1049603;Chrome;112.0;Windows;10;undefined;undefined;1920 x 1080;1920 x 1080
H039;26;Vrouwelijk;Rechts;5;28;left;no;450;leftarrow;518;true;focus;yes;1050883;Chrome;112.0;Windows;10;undefined;undefined;1920 x 1080;1920 x 1080
H039;26;Vrouwelijk;Rechts;5;29;right;no;450;rightarrow;716;true;focus;yes;1052363;Chrome;112.0;Windows;10;undefined;undefined;1920 x 1080;1920 x 1080
H039;26;Vrouwelijk;Rechts;5;30;right;no;450;rightarrow;540;true;focus;yes;1053675;Chrome;112.0;Windows;10;undefined;undefined;1920 x 1080;1920 x 1080
H039;26;Vrouwelijk;Rechts;5;31;right;yes;450;undefined;null;true;focus;yes;1055698;Chrome;112.0;Windows;10;undefined;undefined;1920 x 1080;1920 x 1080
H039;26;Vrouwelijk;Rechts;5;32;left;no;500;leftarrow;502;true;focus;yes;1056963;Chrome;112.0;Windows;10;undefined;undefined;1920 x 1080;1920 x 1080
H039;26;Vrouwelijk;Rechts;5;33;left;no;500;leftarrow;376;true;focus;yes;1058099;Chrome;112.0;Windows;10;undefined;undefined;1920 x 1080;1920 x 1080
H039;26;Vrouwelijk;Rechts;5;34;right;no;500;rightarrow;681;true;focus;yes;1059539;Chrome;112.0;Windows;10;undefined;undefined;1920 x 1080;1920 x 1080
H039;26;Vrouwelijk;Rechts;5;35;right;yes;500;rightarrow;603;false;focus;yes;1060915;Chrome;112.0;Windows;10;undefined;undefined;1920 x 1080;1920 x 1080
H039;26;Vrouwelijk;Rechts;5;36;right;no;450;rightarrow;716;true;focus;yes;1062403;Chrome;112.0;Windows;10;undefined;undefined;1920 x 1080;1920 x 1080
H039;26;Vrouwelijk;Rechts;5;37;left;no;450;leftarrow;805;true;focus;yes;1063979;Chrome;112.0;Windows;10;undefined;undefined;1920 x 1080;1920 x 1080
H039;26;Vrouwelijk;Rechts;5;38;left;no;450;leftarrow;630;true;focus;yes;1065371;Chrome;112.0;Windows;10;undefined;undefined;1920 x 1080;1920 x 1080
H039;26;Vrouwelijk;Rechts;5;39;left;yes;450;leftarrow;614;false;focus;yes;1066747;Chrome;112.0;Windows;10;undefined;undefined;1920 x 1080;1920 x 1080
H039;26;Vrouwelijk;Rechts;5;40;right;no;400;rightarrow;633;true;focus;yes;1068139;Chrome;112.0;Windows;10;undefined;undefined;1920 x 1080;1920 x 1080
H039;26;Vrouwelijk;Rechts;5;41;left;yes;400;undefined;null;true;focus;yes;1070150;Chrome;112.0;Windows;10;undefined;undefined;1920 x 1080;1920 x 1080
H039;26;Vrouwelijk;Rechts;5;42;left;no;450;leftarrow;570;true;focus;yes;1071483;Chrome;112.0;Windows;10;undefined;undefined;1920 x 1080;1920 x 1080
H039;26;Vrouwelijk;Rechts;5;43;right;no;450;rightarrow;540;true;focus;yes;1072795;Chrome;112.0;Windows;10;undefined;undefined;1920 x 1080;1920 x 1080
H039;26;Vrouwelijk;Rechts;5;44;left;no;450;leftarrow;613;true;focus;yes;1074179;Chrome;112.0;Windows;10;undefined;undefined;1920 x 1080;1920 x 1080
H039;26;Vrouwelijk;Rechts;5;45;right;no;450;rightarrow;606;true;focus;yes;1075547;Chrome;112.0;Windows;10;undefined;undefined;1920 x 1080;1920 x 1080
H039;26;Vrouwelijk;Rechts;5;46;right;yes;450;rightarrow;648;false;focus;yes;1076963;Chrome;112.0;Windows;10;undefined;undefined;1920 x 1080;1920 x 1080
H039;26;Vrouwelijk;Rechts;5;47;left;no;400;leftarrow;594;true;focus;yes;1078315;Chrome;112.0;Windows;10;undefined;undefined;1920 x 1080;1920 x 1080
H039;26;Vrouwelijk;Rechts;5;48;right;no;400;rightarrow;633;true;focus;yes;1079715;Chrome;112.0;Windows;10;undefined;undefined;1920 x 1080;1920 x 1080
H039;26;Vrouwelijk;Rechts;5;49;right;no;400;rightarrow;475;true;focus;yes;1080963;Chrome;112.0;Windows;10;undefined;undefined;1920 x 1080;1920 x 1080
H039;26;Vrouwelijk;Rechts;5;50;left;yes;400;leftarrow;596;false;focus;yes;1082331;Chrome;112.0;Windows;10;undefined;undefined;1920 x 1080;1920 x 1080
H039;26;Vrouwelijk;Rechts;5;51;left;no;350;undefined;null;false;focus;yes;1084347;Chrome;112.0;Windows;10;undefined;undefined;1920 x 1080;1920 x 1080
H039;26;Vrouwelijk;Rechts;5;52;right;yes;350;undefined;null;true;focus;yes;1086362;Chrome;112.0;Windows;10;undefined;undefined;1920 x 1080;1920 x 1080
H039;26;Vrouwelijk;Rechts;5;53;right;no;400;rightarrow;623;true;focus;yes;1087747;Chrome;112.0;Windows;10;undefined;undefined;1920 x 1080;1920 x 1080
H039;26;Vrouwelijk;Rechts;5;54;left;no;400;leftarrow;617;true;focus;yes;1089131;Chrome;112.0;Windows;10;undefined;undefined;1920 x 1080;1920 x 1080
H039;26;Vrouwelijk;Rechts;5;55;left;no;400;leftarrow;564;true;focus;yes;1090467;Chrome;112.0;Windows;10;undefined;undefined;1920 x 1080;1920 x 1080
H039;26;Vrouwelijk;Rechts;5;56;right;no;400;rightarrow;547;true;focus;yes;1091779;Chrome;112.0;Windows;10;undefined;undefined;1920 x 1080;1920 x 1080
H039;26;Vrouwelijk;Rechts;5;57;right;no;400;rightarrow;613;true;focus;yes;1093155;Chrome;112.0;Windows;10;undefined;undefined;1920 x 1080;1920 x 1080
H039;26;Vrouwelijk;Rechts;5;58;left;no;400;leftarrow;685;true;focus;yes;1094603;Chrome;112.0;Windows;10;undefined;undefined;1920 x 1080;1920 x 1080
H039;26;Vrouwelijk;Rechts;5;59;right;no;400;rightarrow;557;true;focus;yes;1095931;Chrome;112.0;Windows;10;undefined;undefined;1920 x 1080;1920 x 1080
H039;26;Vrouwelijk;Rechts;5;60;right;yes;400;rightarrow;621;false;focus;yes;1097323;Chrome;112.0;Windows;10;undefined;undefined;1920 x 1080;1920 x 1080
H039;26;Vrouwelijk;Rechts;5;61;left;no;350;leftarrow;535;true;focus;yes;1098627;Chrome;112.0;Windows;10;undefined;undefined;1920 x 1080;1920 x 1080
H039;26;Vrouwelijk;Rechts;5;62;left;yes;350;undefined;null;true;focus;yes;1100640;Chrome;112.0;Windows;10;undefined;undefined;1920 x 1080;1920 x 1080
H039;26;Vrouwelijk;Rechts;5;63;left;no;400;leftarrow;568;true;focus;yes;1101971;Chrome;112.0;Windows;10;undefined;undefined;1920 x 1080;1920 x 1080
H039;26;Vrouwelijk;Rechts;5;64;right;no;400;rightarrow;762;true;focus;yes;1103491;Chrome;112.0;Windows;10;undefined;undefined;1920 x 1080;1920 x 1080
H039;26;Vrouwelijk;Rechts;5;65;left;no;400;leftarrow;595;true;focus;yes;1104859;Chrome;112.0;Windows;10;undefined;undefined;1920 x 1080;1920 x 1080
H039;26;Vrouwelijk;Rechts;5;66;right;no;400;rightarrow;460;true;focus;yes;1106083;Chrome;112.0;Windows;10;undefined;undefined;1920 x 1080;1920 x 1080
H039;26;Vrouwelijk;Rechts;5;67;right;no;400;rightarrow;501;true;focus;yes;1107355;Chrome;112.0;Windows;10;undefined;undefined;1920 x 1080;1920 x 1080
H039;26;Vrouwelijk;Rechts;5;68;left;no;400;leftarrow;605;true;focus;yes;1108723;Chrome;112.0;Windows;10;undefined;undefined;1920 x 1080;1920 x 1080
H039;26;Vrouwelijk;Rechts;5;69;right;no;400;rightarrow;438;true;focus;yes;1109931;Chrome;112.0;Windows;10;undefined;undefined;1920 x 1080;1920 x 1080
H039;26;Vrouwelijk;Rechts;5;70;left;yes;400;undefined;null;true;focus;yes;1111944;Chrome;112.0;Windows;10;undefined;undefined;1920 x 1080;1920 x 1080
H039;26;Vrouwelijk;Rechts;5;71;left;no;450;leftarrow;578;true;focus;yes;1113283;Chrome;112.0;Windows;10;undefined;undefined;1920 x 1080;1920 x 1080
H039;26;Vrouwelijk;Rechts;5;72;right;yes;450;rightarrow;570;false;focus;yes;1114619;Chrome;112.0;Windows;10;undefined;undefined;1920 x 1080;1920 x 1080
H039;26;Vrouwelijk;Rechts;5;73;left;no;400;leftarrow;714;true;focus;yes;1116107;Chrome;112.0;Windows;10;undefined;undefined;1920 x 1080;1920 x 1080
H039;26;Vrouwelijk;Rechts;5;74;left;yes;400;leftarrow;570;false;focus;yes;1117451;Chrome;112.0;Windows;10;undefined;undefined;1920 x 1080;1920 x 1080
H039;26;Vrouwelijk;Rechts;5;75;left;no;350;leftarrow;546;true;focus;yes;1118771;Chrome;112.0;Windows;10;undefined;undefined;1920 x 1080;1920 x 1080
H039;26;Vrouwelijk;Rechts;5;76;right;no;350;rightarrow;817;true;focus;yes;1120355;Chrome;112.0;Windows;10;undefined;undefined;1920 x 1080;1920 x 1080
H039;26;Vrouwelijk;Rechts;5;77;right;yes;350;undefined;null;true;focus;yes;1122389;Chrome;112.0;Windows;10;undefined;undefined;1920 x 1080;1920 x 1080
H039;26;Vrouwelijk;Rechts;5;78;right;no;400;rightarrow;450;true;focus;yes;1123603;Chrome;112.0;Windows;10;undefined;undefined;1920 x 1080;1920 x 1080
H039;26;Vrouwelijk;Rechts;5;79;left;no;400;leftarrow;404;true;focus;yes;1124771;Chrome;112.0;Windows;10;undefined;undefined;1920 x 1080;1920 x 1080
H039;26;Vrouwelijk;Rechts;5;80;right;no;400;rightarrow;667;true;focus;yes;1126203;Chrome;112.0;Windows;10;undefined;undefined;1920 x 1080;1920 x 1080
H039;26;Vrouwelijk;Rechts;5;81;left;no;400;leftarrow;736;true;focus;yes;1127707;Chrome;112.0;Windows;10;undefined;undefined;1920 x 1080;1920 x 1080
H039;26;Vrouwelijk;Rechts;5;82;right;no;400;rightarrow;632;true;focus;yes;1129107;Chrome;112.0;Windows;10;undefined;undefined;1920 x 1080;1920 x 1080
H039;26;Vrouwelijk;Rechts;5;83;left;no;400;leftarrow;826;true;focus;yes;1130707;Chrome;112.0;Windows;10;undefined;undefined;1920 x 1080;1920 x 1080
H039;26;Vrouwelijk;Rechts;5;84;right;no;400;rightarrow;618;true;focus;yes;1132083;Chrome;112.0;Windows;10;undefined;undefined;1920 x 1080;1920 x 1080
H039;26;Vrouwelijk;Rechts;5;85;right;yes;400;undefined;null;true;focus;yes;1134107;Chrome;112.0;Windows;10;undefined;undefined;1920 x 1080;1920 x 1080
H039;26;Vrouwelijk;Rechts;5;86;left;yes;450;leftarrow;557;false;focus;yes;1135427;Chrome;112.0;Windows;10;undefined;undefined;1920 x 1080;1920 x 1080
H039;26;Vrouwelijk;Rechts;5;87;right;no;400;rightarrow;694;true;focus;yes;1136891;Chrome;112.0;Windows;10;undefined;undefined;1920 x 1080;1920 x 1080
H039;26;Vrouwelijk;Rechts;5;88;left;no;400;leftarrow;710;true;focus;yes;1138363;Chrome;112.0;Windows;10;undefined;undefined;1920 x 1080;1920 x 1080
H039;26;Vrouwelijk;Rechts;5;89;right;no;400;rightarrow;647;true;focus;yes;1139771;Chrome;112.0;Windows;10;undefined;undefined;1920 x 1080;1920 x 1080
H039;26;Vrouwelijk;Rechts;5;90;left;no;400;leftarrow;584;true;focus;yes;1141115;Chrome;112.0;Windows;10;undefined;undefined;1920 x 1080;1920 x 1080
H039;26;Vrouwelijk;Rechts;5;91;left;no;400;leftarrow;656;true;focus;yes;1142531;Chrome;112.0;Windows;10;undefined;undefined;1920 x 1080;1920 x 1080
H039;26;Vrouwelijk;Rechts;5;92;right;no;400;rightarrow;658;true;focus;yes;1143955;Chrome;112.0;Windows;10;undefined;undefined;1920 x 1080;1920 x 1080
H039;26;Vrouwelijk;Rechts;5;93;right;no;400;rightarrow;715;true;focus;yes;1145435;Chrome;112.0;Windows;10;undefined;undefined;1920 x 1080;1920 x 1080
H039;26;Vrouwelijk;Rechts;5;94;right;yes;400;undefined;null;true;focus;yes;1147457;Chrome;112.0;Windows;10;undefined;undefined;1920 x 1080;1920 x 1080
H039;26;Vrouwelijk;Rechts;5;95;left;yes;450;leftarrow;677;false;focus;yes;1148899;Chrome;112.0;Windows;10;undefined;undefined;1920 x 1080;1920 x 1080
H039;26;Vrouwelijk;Rechts;5;96;left;no;400;leftarrow;701;true;focus;yes;1150363;Chrome;112.0;Windows;10;undefined;undefined;1920 x 1080;1920 x 1080
H039;26;Vrouwelijk;Rechts;5;97;left;no;400;leftarrow;727;true;focus;yes;1151859;Chrome;112.0;Windows;10;undefined;undefined;1920 x 1080;1920 x 1080
H039;26;Vrouwelijk;Rechts;5;98;right;no;400;rightarrow;896;true;focus;yes;1153515;Chrome;112.0;Windows;10;undefined;undefined;1920 x 1080;1920 x 1080
H039;26;Vrouwelijk;Rechts;5;99;left;no;400;leftarrow;849;true;focus;yes;1155131;Chrome;112.0;Windows;10;undefined;undefined;1920 x 1080;1920 x 1080
H039;26;Vrouwelijk;Rechts;5;100;right;no;400;rightarrow;697;true;focus;yes;1156595;Chrome;112.0;Windows;10;undefined;undefined;1920 x 1080;1920 x 1080
H039;26;Vrouwelijk;Rechts;5;101;left;yes;400;undefined;null;true;focus;yes;1158620;Chrome;112.0;Windows;10;undefined;undefined;1920 x 1080;1920 x 1080
H039;26;Vrouwelijk;Rechts;5;102;right;yes;450;rightarrow;620;false;focus;yes;1160003;Chrome;112.0;Windows;10;undefined;undefined;1920 x 1080;1920 x 1080
H039;26;Vrouwelijk;Rechts;5;103;left;no;400;leftarrow;622;true;focus;yes;1161395;Chrome;112.0;Windows;10;undefined;undefined;1920 x 1080;1920 x 1080
H039;26;Vrouwelijk;Rechts;5;104;right;no;400;rightarrow;725;true;focus;yes;1162891;Chrome;112.0;Windows;10;undefined;undefined;1920 x 1080;1920 x 1080
H039;26;Vrouwelijk;Rechts;5;105;right;yes;400;undefined;null;true;focus;yes;1164904;Chrome;112.0;Windows;10;undefined;undefined;1920 x 1080;1920 x 1080
H039;26;Vrouwelijk;Rechts;5;106;right;no;450;rightarrow;671;true;focus;yes;1166338;Chrome;112.0;Windows;10;undefined;undefined;1920 x 1080;1920 x 1080
H039;26;Vrouwelijk;Rechts;5;107;right;no;450;rightarrow;497;true;focus;yes;1167602;Chrome;112.0;Windows;10;undefined;undefined;1920 x 1080;1920 x 1080
H039;26;Vrouwelijk;Rechts;5;108;left;no;450;leftarrow;537;true;focus;yes;1168906;Chrome;112.0;Windows;10;undefined;undefined;1920 x 1080;1920 x 1080
H039;26;Vrouwelijk;Rechts;5;109;left;no;450;leftarrow;434;true;focus;yes;1170114;Chrome;112.0;Windows;10;undefined;undefined;1920 x 1080;1920 x 1080
H039;26;Vrouwelijk;Rechts;5;110;left;yes;450;leftarrow;596;false;focus;yes;1171474;Chrome;112.0;Windows;10;undefined;undefined;1920 x 1080;1920 x 1080
H039;26;Vrouwelijk;Rechts;5;111;left;no;400;leftarrow;667;true;focus;yes;1172906;Chrome;112.0;Windows;10;undefined;undefined;1920 x 1080;1920 x 1080
H039;26;Vrouwelijk;Rechts;5;112;right;no;400;rightarrow;699;true;focus;yes;1174378;Chrome;112.0;Windows;10;undefined;undefined;1920 x 1080;1920 x 1080
H039;26;Vrouwelijk;Rechts;5;113;left;no;400;leftarrow;525;true;focus;yes;1175674;Chrome;112.0;Windows;10;undefined;undefined;1920 x 1080;1920 x 1080
H039;26;Vrouwelijk;Rechts;5;114;left;yes;400;undefined;null;true;focus;yes;1177697;Chrome;112.0;Windows;10;undefined;undefined;1920 x 1080;1920 x 1080
H039;26;Vrouwelijk;Rechts;5;115;right;no;450;rightarrow;584;true;focus;yes;1179042;Chrome;112.0;Windows;10;undefined;undefined;1920 x 1080;1920 x 1080
H039;26;Vrouwelijk;Rechts;5;116;left;no;450;leftarrow;600;true;focus;yes;1180402;Chrome;112.0;Windows;10;undefined;undefined;1920 x 1080;1920 x 1080
H039;26;Vrouwelijk;Rechts;5;117;right;yes;450;undefined;null;true;focus;yes;1182414;Chrome;112.0;Windows;10;undefined;undefined;1920 x 1080;1920 x 1080
H039;26;Vrouwelijk;Rechts;5;118;right;no;500;rightarrow;667;true;focus;yes;1183842;Chrome;112.0;Windows;10;undefined;undefined;1920 x 1080;1920 x 1080
H039;26;Vrouwelijk;Rechts;5;119;right;no;500;rightarrow;507;true;focus;yes;1185122;Chrome;112.0;Windows;10;undefined;undefined;1920 x 1080;1920 x 1080
H039;26;Vrouwelijk;Rechts;5;120;left;no;500;leftarrow;367;true;focus;yes;1186258;Chrome;112.0;Windows;10;undefined;undefined;1920 x 1080;1920 x 1080
H039;26;Vrouwelijk;Rechts;5;121;left;no;500;leftarrow;354;true;focus;yes;1187378;Chrome;112.0;Windows;10;undefined;undefined;1920 x 1080;1920 x 1080
H039;26;Vrouwelijk;Rechts;5;122;right;yes;500;rightarrow;410;false;focus;yes;1188554;Chrome;112.0;Windows;10;undefined;undefined;1920 x 1080;1920 x 1080
H039;26;Vrouwelijk;Rechts;5;123;right;no;450;rightarrow;540;true;focus;yes;1189866;Chrome;112.0;Windows;10;undefined;undefined;1920 x 1080;1920 x 1080
H039;26;Vrouwelijk;Rechts;5;124;left;no;450;leftarrow;660;true;focus;yes;1191298;Chrome;112.0;Windows;10;undefined;undefined;1920 x 1080;1920 x 1080
H039;26;Vrouwelijk;Rechts;5;125;left;no;450;leftarrow;701;true;focus;yes;1192762;Chrome;112.0;Windows;10;undefined;undefined;1920 x 1080;1920 x 1080
H039;26;Vrouwelijk;Rechts;5;126;right;no;450;rightarrow;470;true;focus;yes;1194002;Chrome;112.0;Windows;10;undefined;undefined;1920 x 1080;1920 x 1080
H039;26;Vrouwelijk;Rechts;5;127;right;no;450;rightarrow;521;true;focus;yes;1195282;Chrome;112.0;Windows;10;undefined;undefined;1920 x 1080;1920 x 1080
H039;26;Vrouwelijk;Rechts;5;128;left;yes;450;leftarrow;633;false;focus;yes;1196674;Chrome;112.0;Windows;10;undefined;undefined;1920 x 1080;1920 x 1080
H039;26;Vrouwelijk;Rechts;6;1;left;no;400;leftarrow;383;true;focus;yes;1215954;Chrome;112.0;Windows;10;undefined;undefined;1920 x 1080;1920 x 1080
H039;26;Vrouwelijk;Rechts;6;2;left;no;400;leftarrow;530;true;focus;yes;1217250;Chrome;112.0;Windows;10;undefined;undefined;1920 x 1080;1920 x 1080
H039;26;Vrouwelijk;Rechts;6;3;right;yes;400;rightarrow;571;false;focus;yes;1218586;Chrome;112.0;Windows;10;undefined;undefined;1920 x 1080;1920 x 1080
H039;26;Vrouwelijk;Rechts;6;4;right;no;350;rightarrow;619;true;focus;yes;1219978;Chrome;112.0;Windows;10;undefined;undefined;1920 x 1080;1920 x 1080
H039;26;Vrouwelijk;Rechts;6;5;left;yes;350;undefined;null;true;focus;yes;1222006;Chrome;112.0;Windows;10;undefined;undefined;1920 x 1080;1920 x 1080
H039;26;Vrouwelijk;Rechts;6;6;right;no;400;rightarrow;529;true;focus;yes;1223298;Chrome;112.0;Windows;10;undefined;undefined;1920 x 1080;1920 x 1080
H039;26;Vrouwelijk;Rechts;6;7;right;no;400;rightarrow;625;true;focus;yes;1224690;Chrome;112.0;Windows;10;undefined;undefined;1920 x 1080;1920 x 1080
H039;26;Vrouwelijk;Rechts;6;8;left;no;400;leftarrow;610;true;focus;yes;1226066;Chrome;112.0;Windows;10;undefined;undefined;1920 x 1080;1920 x 1080
H039;26;Vrouwelijk;Rechts;6;9;right;yes;400;undefined;null;true;focus;yes;1228085;Chrome;112.0;Windows;10;undefined;undefined;1920 x 1080;1920 x 1080
H039;26;Vrouwelijk;Rechts;6;10;right;no;450;rightarrow;356;true;focus;yes;1229203;Chrome;112.0;Windows;10;undefined;undefined;1920 x 1080;1920 x 1080
H039;26;Vrouwelijk;Rechts;6;11;right;no;450;rightarrow;564;true;focus;yes;1230531;Chrome;112.0;Windows;10;undefined;undefined;1920 x 1080;1920 x 1080
H039;26;Vrouwelijk;Rechts;6;12;left;no;450;leftarrow;589;true;focus;yes;1231883;Chrome;112.0;Windows;10;undefined;undefined;1920 x 1080;1920 x 1080
H039;26;Vrouwelijk;Rechts;6;13;left;no;450;leftarrow;637;true;focus;yes;1233291;Chrome;112.0;Windows;10;undefined;undefined;1920 x 1080;1920 x 1080
H039;26;Vrouwelijk;Rechts;6;14;left;yes;450;leftarrow;613;false;focus;yes;1234675;Chrome;112.0;Windows;10;undefined;undefined;1920 x 1080;1920 x 1080
H039;26;Vrouwelijk;Rechts;6;15;left;no;400;leftarrow;765;true;focus;yes;1236203;Chrome;112.0;Windows;10;undefined;undefined;1920 x 1080;1920 x 1080
H039;26;Vrouwelijk;Rechts;6;16;right;no;400;rightarrow;772;true;focus;yes;1237747;Chrome;112.0;Windows;10;undefined;undefined;1920 x 1080;1920 x 1080
H039;26;Vrouwelijk;Rechts;6;17;left;no;400;leftarrow;627;true;focus;yes;1239139;Chrome;112.0;Windows;10;undefined;undefined;1920 x 1080;1920 x 1080
H039;26;Vrouwelijk;Rechts;6;18;right;no;400;rightarrow;941;true;focus;yes;1240843;Chrome;112.0;Windows;10;undefined;undefined;1920 x 1080;1920 x 1080
