participantID;age;gender;handedness;block_i;trial_i;stim;signal;SSD;response;rt;correct;focus;Fullscreen;time_elapsed;browser_name;browser_version;os_name;os_version;tablet;mobile;screen_resolution;window_resolution
S004;53;Mannelijk;Rechts;0;1;right;no;200;rightarrow;589;true;focus;yes;158020;Chrome;109.0;Windows;10;undefined;undefined;1920 x 1080;1920 x 1080
S004;53;Mannelijk;Rechts;0;2;right;no;200;rightarrow;497;true;focus;yes;160074;Chrome;109.0;Windows;10;undefined;undefined;1920 x 1080;1920 x 1080
S004;53;Mannelijk;Rechts;0;3;right;no;200;rightarrow;479;true;focus;yes;162092;Chrome;109.0;Windows;10;undefined;undefined;1920 x 1080;1920 x 1080
S004;53;Mannelijk;Rechts;0;4;left;no;200;leftarrow;351;true;focus;yes;163972;Chrome;109.0;Windows;10;undefined;undefined;1920 x 1080;1920 x 1080
S004;53;Mannelijk;Rechts;0;5;left;no;200;leftarrow;312;true;focus;yes;165818;Chrome;109.0;Windows;10;undefined;undefined;1920 x 1080;1920 x 1080
S004;53;Mannelijk;Rechts;0;6;right;yes;200;rightarrow;261;false;focus;yes;167612;Chrome;109.0;Windows;10;undefined;undefined;1920 x 1080;1920 x 1080
S004;53;Mannelijk;Rechts;0;7;left;yes;150;leftarrow;395;false;focus;yes;169566;Chrome;109.0;Windows;10;undefined;undefined;1920 x 1080;1920 x 1080
S004;53;Mannelijk;Rechts;0;8;left;no;100;leftarrow;725;true;focus;yes;171822;Chrome;109.0;Windows;10;undefined;undefined;1920 x 1080;1920 x 1080
S004;53;Mannelijk;Rechts;1;1;right;no;100;rightarrow;417;true;focus;yes;192482;Chrome;109.0;Windows;10;undefined;undefined;1920 x 1080;1920 x 1080
S004;53;Mannelijk;Rechts;1;2;right;no;100;rightarrow;406;true;focus;yes;193654;Chrome;109.0;Windows;10;undefined;undefined;1920 x 1080;1920 x 1080
S004;53;Mannelijk;Rechts;1;3;right;yes;100;undefined;null;true;focus;yes;195676;Chrome;109.0;Windows;10;undefined;undefined;1920 x 1080;1920 x 1080
S004;53;Mannelijk;Rechts;1;4;left;no;150;leftarrow;359;true;focus;yes;196835;Chrome;109.0;Windows;10;undefined;undefined;1920 x 1080;1920 x 1080
S004;53;Mannelijk;Rechts;1;5;left;yes;150;leftarrow;284;false;focus;yes;197888;Chrome;109.0;Windows;10;undefined;undefined;1920 x 1080;1920 x 1080
S004;53;Mannelijk;Rechts;1;6;left;no;100;leftarrow;411;true;focus;yes;199095;Chrome;109.0;Windows;10;undefined;undefined;1920 x 1080;1920 x 1080
S004;53;Mannelijk;Rechts;1;7;right;no;100;rightarrow;363;true;focus;yes;200240;Chrome;109.0;Windows;10;undefined;undefined;1920 x 1080;1920 x 1080
S004;53;Mannelijk;Rechts;1;8;left;no;100;leftarrow;313;true;focus;yes;201323;Chrome;109.0;Windows;10;undefined;undefined;1920 x 1080;1920 x 1080
S004;53;Mannelijk;Rechts;1;9;right;no;100;rightarrow;152;true;focus;yes;202244;Chrome;109.0;Windows;10;undefined;undefined;1920 x 1080;1920 x 1080
S004;53;Mannelijk;Rechts;1;10;left;no;100;leftarrow;290;true;focus;yes;203317;Chrome;109.0;Windows;10;undefined;undefined;1920 x 1080;1920 x 1080
S004;53;Mannelijk;Rechts;1;11;right;no;100;rightarrow;209;true;focus;yes;204311;Chrome;109.0;Windows;10;undefined;undefined;1920 x 1080;1920 x 1080
S004;53;Mannelijk;Rechts;1;12;left;no;100;leftarrow;255;true;focus;yes;205337;Chrome;109.0;Windows;10;undefined;undefined;1920 x 1080;1920 x 1080
S004;53;Mannelijk;Rechts;1;13;left;no;100;rightarrow;256;false;focus;yes;206388;Chrome;109.0;Windows;10;undefined;undefined;1920 x 1080;1920 x 1080
S004;53;Mannelijk;Rechts;1;14;left;yes;100;leftarrow;512;false;focus;yes;207692;Chrome;109.0;Windows;10;undefined;undefined;1920 x 1080;1920 x 1080
S004;53;Mannelijk;Rechts;1;15;right;yes;50;undefined;null;true;focus;yes;209721;Chrome;109.0;Windows;10;undefined;undefined;1920 x 1080;1920 x 1080
S004;53;Mannelijk;Rechts;1;16;right;no;100;rightarrow;420;true;focus;yes;210944;Chrome;109.0;Windows;10;undefined;undefined;1920 x 1080;1920 x 1080
S004;53;Mannelijk;Rechts;1;17;left;no;100;leftarrow;408;true;focus;yes;212127;Chrome;109.0;Windows;10;undefined;undefined;1920 x 1080;1920 x 1080
S004;53;Mannelijk;Rechts;1;18;left;yes;100;leftarrow;446;false;focus;yes;213341;Chrome;109.0;Windows;10;undefined;undefined;1920 x 1080;1920 x 1080
S004;53;Mannelijk;Rechts;1;19;right;no;50;rightarrow;496;true;focus;yes;214607;Chrome;109.0;Windows;10;undefined;undefined;1920 x 1080;1920 x 1080
S004;53;Mannelijk;Rechts;1;20;left;no;50;leftarrow;410;true;focus;yes;215783;Chrome;109.0;Windows;10;undefined;undefined;1920 x 1080;1920 x 1080
S004;53;Mannelijk;Rechts;1;21;right;no;50;rightarrow;448;true;focus;yes;217004;Chrome;109.0;Windows;10;undefined;undefined;1920 x 1080;1920 x 1080
S004;53;Mannelijk;Rechts;1;22;right;no;50;leftarrow;291;false;focus;yes;218068;Chrome;109.0;Windows;10;undefined;undefined;1920 x 1080;1920 x 1080
S004;53;Mannelijk;Rechts;1;23;left;no;50;leftarrow;439;true;focus;yes;219297;Chrome;109.0;Windows;10;undefined;undefined;1920 x 1080;1920 x 1080
S004;53;Mannelijk;Rechts;1;24;right;yes;50;undefined;null;true;focus;yes;221325;Chrome;109.0;Windows;10;undefined;undefined;1920 x 1080;1920 x 1080
S004;53;Mannelijk;Rechts;1;25;left;yes;100;leftarrow;420;false;focus;yes;222525;Chrome;109.0;Windows;10;undefined;undefined;1920 x 1080;1920 x 1080
S004;53;Mannelijk;Rechts;1;26;right;no;50;rightarrow;713;true;focus;yes;224030;Chrome;109.0;Windows;10;undefined;undefined;1920 x 1080;1920 x 1080
S004;53;Mannelijk;Rechts;1;27;left;no;50;leftarrow;468;true;focus;yes;225286;Chrome;109.0;Windows;10;undefined;undefined;1920 x 1080;1920 x 1080
S004;53;Mannelijk;Rechts;1;28;right;no;50;rightarrow;396;true;focus;yes;226464;Chrome;109.0;Windows;10;undefined;undefined;1920 x 1080;1920 x 1080
S004;53;Mannelijk;Rechts;1;29;right;no;50;rightarrow;355;true;focus;yes;227602;Chrome;109.0;Windows;10;undefined;undefined;1920 x 1080;1920 x 1080
S004;53;Mannelijk;Rechts;1;30;left;no;50;leftarrow;402;true;focus;yes;228792;Chrome;109.0;Windows;10;undefined;undefined;1920 x 1080;1920 x 1080
S004;53;Mannelijk;Rechts;1;31;right;yes;50;rightarrow;339;false;focus;yes;229896;Chrome;109.0;Windows;10;undefined;undefined;1920 x 1080;1920 x 1080
S004;53;Mannelijk;Rechts;1;32;left;no;50;leftarrow;415;true;focus;yes;231081;Chrome;109.0;Windows;10;undefined;undefined;1920 x 1080;1920 x 1080
S004;53;Mannelijk;Rechts;1;33;right;yes;50;undefined;null;true;focus;yes;233123;Chrome;109.0;Windows;10;undefined;undefined;1920 x 1080;1920 x 1080
S004;53;Mannelijk;Rechts;1;34;left;no;100;leftarrow;364;true;focus;yes;234262;Chrome;109.0;Windows;10;undefined;undefined;1920 x 1080;1920 x 1080
S004;53;Mannelijk;Rechts;1;35;left;no;100;leftarrow;453;true;focus;yes;235484;Chrome;109.0;Windows;10;undefined;undefined;1920 x 1080;1920 x 1080
S004;53;Mannelijk;Rechts;1;36;right;no;100;rightarrow;433;true;focus;yes;236692;Chrome;109.0;Windows;10;undefined;undefined;1920 x 1080;1920 x 1080
S004;53;Mannelijk;Rechts;1;37;left;no;100;leftarrow;359;true;focus;yes;237815;Chrome;109.0;Windows;10;undefined;undefined;1920 x 1080;1920 x 1080
S004;53;Mannelijk;Rechts;1;38;right;no;100;rightarrow;363;true;focus;yes;238977;Chrome;109.0;Windows;10;undefined;undefined;1920 x 1080;1920 x 1080
S004;53;Mannelijk;Rechts;1;39;right;no;100;rightarrow;453;true;focus;yes;240200;Chrome;109.0;Windows;10;undefined;undefined;1920 x 1080;1920 x 1080
S004;53;Mannelijk;Rechts;1;40;left;yes;100;leftarrow;399;false;focus;yes;241393;Chrome;109.0;Windows;10;undefined;undefined;1920 x 1080;1920 x 1080
S004;53;Mannelijk;Rechts;1;41;left;no;50;leftarrow;660;true;focus;yes;242828;Chrome;109.0;Windows;10;undefined;undefined;1920 x 1080;1920 x 1080
S004;53;Mannelijk;Rechts;1;42;left;yes;50;undefined;null;true;focus;yes;244864;Chrome;109.0;Windows;10;undefined;undefined;1920 x 1080;1920 x 1080
S004;53;Mannelijk;Rechts;1;43;left;no;100;leftarrow;448;true;focus;yes;246093;Chrome;109.0;Windows;10;undefined;undefined;1920 x 1080;1920 x 1080
S004;53;Mannelijk;Rechts;1;44;right;no;100;rightarrow;437;true;focus;yes;247309;Chrome;109.0;Windows;10;undefined;undefined;1920 x 1080;1920 x 1080
S004;53;Mannelijk;Rechts;1;45;right;yes;100;rightarrow;455;false;focus;yes;248534;Chrome;109.0;Windows;10;undefined;undefined;1920 x 1080;1920 x 1080
S004;53;Mannelijk;Rechts;1;46;left;no;50;leftarrow;405;true;focus;yes;249709;Chrome;109.0;Windows;10;undefined;undefined;1920 x 1080;1920 x 1080
S004;53;Mannelijk;Rechts;1;47;right;no;50;rightarrow;658;true;focus;yes;251152;Chrome;109.0;Windows;10;undefined;undefined;1920 x 1080;1920 x 1080
S004;53;Mannelijk;Rechts;1;48;right;no;50;rightarrow;462;true;focus;yes;252389;Chrome;109.0;Windows;10;undefined;undefined;1920 x 1080;1920 x 1080
S004;53;Mannelijk;Rechts;1;49;right;no;50;rightarrow;403;true;focus;yes;253577;Chrome;109.0;Windows;10;undefined;undefined;1920 x 1080;1920 x 1080
S004;53;Mannelijk;Rechts;1;50;right;yes;50;undefined;null;true;focus;yes;255619;Chrome;109.0;Windows;10;undefined;undefined;1920 x 1080;1920 x 1080
S004;53;Mannelijk;Rechts;1;51;left;no;100;leftarrow;402;true;focus;yes;256789;Chrome;109.0;Windows;10;undefined;undefined;1920 x 1080;1920 x 1080
S004;53;Mannelijk;Rechts;1;52;right;no;100;rightarrow;552;true;focus;yes;258099;Chrome;109.0;Windows;10;undefined;undefined;1920 x 1080;1920 x 1080
S004;53;Mannelijk;Rechts;1;53;left;no;100;leftarrow;395;true;focus;yes;259269;Chrome;109.0;Windows;10;undefined;undefined;1920 x 1080;1920 x 1080
S004;53;Mannelijk;Rechts;1;54;left;yes;100;undefined;null;true;focus;yes;261293;Chrome;109.0;Windows;10;undefined;undefined;1920 x 1080;1920 x 1080
S004;53;Mannelijk;Rechts;1;55;right;no;150;rightarrow;374;true;focus;yes;262447;Chrome;109.0;Windows;10;undefined;undefined;1920 x 1080;1920 x 1080
S004;53;Mannelijk;Rechts;1;56;left;no;150;leftarrow;383;true;focus;yes;263614;Chrome;109.0;Windows;10;undefined;undefined;1920 x 1080;1920 x 1080
S004;53;Mannelijk;Rechts;1;57;right;no;150;rightarrow;365;true;focus;yes;264747;Chrome;109.0;Windows;10;undefined;undefined;1920 x 1080;1920 x 1080
S004;53;Mannelijk;Rechts;1;58;left;no;150;leftarrow;392;true;focus;yes;265903;Chrome;109.0;Windows;10;undefined;undefined;1920 x 1080;1920 x 1080
S004;53;Mannelijk;Rechts;1;59;right;no;150;rightarrow;344;true;focus;yes;267017;Chrome;109.0;Windows;10;undefined;undefined;1920 x 1080;1920 x 1080
S004;53;Mannelijk;Rechts;1;60;left;no;150;leftarrow;298;true;focus;yes;268088;Chrome;109.0;Windows;10;undefined;undefined;1920 x 1080;1920 x 1080
S004;53;Mannelijk;Rechts;1;61;left;yes;150;leftarrow;383;false;focus;yes;269269;Chrome;109.0;Windows;10;undefined;undefined;1920 x 1080;1920 x 1080
S004;53;Mannelijk;Rechts;1;62;right;yes;100;undefined;null;true;focus;yes;271324;Chrome;109.0;Windows;10;undefined;undefined;1920 x 1080;1920 x 1080
S004;53;Mannelijk;Rechts;1;63;left;no;150;leftarrow;277;true;focus;yes;272379;Chrome;109.0;Windows;10;undefined;undefined;1920 x 1080;1920 x 1080
S004;53;Mannelijk;Rechts;1;64;right;no;150;rightarrow;326;true;focus;yes;273493;Chrome;109.0;Windows;10;undefined;undefined;1920 x 1080;1920 x 1080
S004;53;Mannelijk;Rechts;1;65;left;yes;150;leftarrow;411;false;focus;yes;274679;Chrome;109.0;Windows;10;undefined;undefined;1920 x 1080;1920 x 1080
S004;53;Mannelijk;Rechts;1;66;left;no;100;leftarrow;665;true;focus;yes;276129;Chrome;109.0;Windows;10;undefined;undefined;1920 x 1080;1920 x 1080
S004;53;Mannelijk;Rechts;1;67;right;no;100;rightarrow;347;true;focus;yes;277248;Chrome;109.0;Windows;10;undefined;undefined;1920 x 1080;1920 x 1080
S004;53;Mannelijk;Rechts;1;68;right;no;100;rightarrow;411;true;focus;yes;278446;Chrome;109.0;Windows;10;undefined;undefined;1920 x 1080;1920 x 1080
S004;53;Mannelijk;Rechts;1;69;right;no;100;rightarrow;370;true;focus;yes;279580;Chrome;109.0;Windows;10;undefined;undefined;1920 x 1080;1920 x 1080
S004;53;Mannelijk;Rechts;1;70;right;yes;100;leftarrow;280;false;focus;yes;280652;Chrome;109.0;Windows;10;undefined;undefined;1920 x 1080;1920 x 1080
S004;53;Mannelijk;Rechts;1;71;left;no;50;leftarrow;329;true;focus;yes;281751;Chrome;109.0;Windows;10;undefined;undefined;1920 x 1080;1920 x 1080
S004;53;Mannelijk;Rechts;1;72;left;no;50;leftarrow;398;true;focus;yes;282918;Chrome;109.0;Windows;10;undefined;undefined;1920 x 1080;1920 x 1080
S004;53;Mannelijk;Rechts;1;73;right;no;50;rightarrow;505;true;focus;yes;284186;Chrome;109.0;Windows;10;undefined;undefined;1920 x 1080;1920 x 1080
S004;53;Mannelijk;Rechts;1;74;right;yes;50;undefined;null;true;focus;yes;286247;Chrome;109.0;Windows;10;undefined;undefined;1920 x 1080;1920 x 1080
S004;53;Mannelijk;Rechts;1;75;left;no;100;leftarrow;365;true;focus;yes;287396;Chrome;109.0;Windows;10;undefined;undefined;1920 x 1080;1920 x 1080
S004;53;Mannelijk;Rechts;1;76;left;no;100;leftarrow;400;true;focus;yes;288577;Chrome;109.0;Windows;10;undefined;undefined;1920 x 1080;1920 x 1080
S004;53;Mannelijk;Rechts;1;77;right;no;100;rightarrow;446;true;focus;yes;289799;Chrome;109.0;Windows;10;undefined;undefined;1920 x 1080;1920 x 1080
S004;53;Mannelijk;Rechts;1;78;left;yes;100;undefined;null;true;focus;yes;291845;Chrome;109.0;Windows;10;undefined;undefined;1920 x 1080;1920 x 1080
S004;53;Mannelijk;Rechts;1;79;left;no;150;rightarrow;335;false;focus;yes;292964;Chrome;109.0;Windows;10;undefined;undefined;1920 x 1080;1920 x 1080
S004;53;Mannelijk;Rechts;1;80;right;no;150;rightarrow;465;true;focus;yes;294196;Chrome;109.0;Windows;10;undefined;undefined;1920 x 1080;1920 x 1080
S004;53;Mannelijk;Rechts;1;81;left;no;150;leftarrow;390;true;focus;yes;295368;Chrome;109.0;Windows;10;undefined;undefined;1920 x 1080;1920 x 1080
S004;53;Mannelijk;Rechts;1;82;right;no;150;rightarrow;468;true;focus;yes;296625;Chrome;109.0;Windows;10;undefined;undefined;1920 x 1080;1920 x 1080
S004;53;Mannelijk;Rechts;1;83;right;yes;150;rightarrow;415;false;focus;yes;297810;Chrome;109.0;Windows;10;undefined;undefined;1920 x 1080;1920 x 1080
S004;53;Mannelijk;Rechts;1;84;right;no;100;rightarrow;471;true;focus;yes;299065;Chrome;109.0;Windows;10;undefined;undefined;1920 x 1080;1920 x 1080
S004;53;Mannelijk;Rechts;1;85;left;yes;100;leftarrow;397;false;focus;yes;300239;Chrome;109.0;Windows;10;undefined;undefined;1920 x 1080;1920 x 1080
S004;53;Mannelijk;Rechts;1;86;left;no;50;leftarrow;891;true;focus;yes;301891;Chrome;109.0;Windows;10;undefined;undefined;1920 x 1080;1920 x 1080
S004;53;Mannelijk;Rechts;1;87;left;no;50;leftarrow;405;true;focus;yes;303082;Chrome;109.0;Windows;10;undefined;undefined;1920 x 1080;1920 x 1080
S004;53;Mannelijk;Rechts;1;88;right;no;50;rightarrow;372;true;focus;yes;304230;Chrome;109.0;Windows;10;undefined;undefined;1920 x 1080;1920 x 1080
S004;53;Mannelijk;Rechts;1;89;left;no;50;leftarrow;353;true;focus;yes;305361;Chrome;109.0;Windows;10;undefined;undefined;1920 x 1080;1920 x 1080
S004;53;Mannelijk;Rechts;1;90;right;yes;50;rightarrow;297;false;focus;yes;306423;Chrome;109.0;Windows;10;undefined;undefined;1920 x 1080;1920 x 1080
S004;53;Mannelijk;Rechts;1;91;left;no;50;leftarrow;359;true;focus;yes;307558;Chrome;109.0;Windows;10;undefined;undefined;1920 x 1080;1920 x 1080
S004;53;Mannelijk;Rechts;1;92;left;no;50;leftarrow;435;true;focus;yes;308773;Chrome;109.0;Windows;10;undefined;undefined;1920 x 1080;1920 x 1080
S004;53;Mannelijk;Rechts;1;93;left;yes;50;undefined;null;true;focus;yes;310797;Chrome;109.0;Windows;10;undefined;undefined;1920 x 1080;1920 x 1080
S004;53;Mannelijk;Rechts;1;94;right;no;100;rightarrow;379;true;focus;yes;311943;Chrome;109.0;Windows;10;undefined;undefined;1920 x 1080;1920 x 1080
S004;53;Mannelijk;Rechts;1;95;right;no;100;rightarrow;423;true;focus;yes;313132;Chrome;109.0;Windows;10;undefined;undefined;1920 x 1080;1920 x 1080
S004;53;Mannelijk;Rechts;1;96;right;no;100;rightarrow;377;true;focus;yes;314282;Chrome;109.0;Windows;10;undefined;undefined;1920 x 1080;1920 x 1080
S004;53;Mannelijk;Rechts;1;97;right;no;100;rightarrow;403;true;focus;yes;315458;Chrome;109.0;Windows;10;undefined;undefined;1920 x 1080;1920 x 1080
S004;53;Mannelijk;Rechts;1;98;left;no;100;leftarrow;416;true;focus;yes;316669;Chrome;109.0;Windows;10;undefined;undefined;1920 x 1080;1920 x 1080
S004;53;Mannelijk;Rechts;1;99;right;no;100;rightarrow;446;true;focus;yes;317900;Chrome;109.0;Windows;10;undefined;undefined;1920 x 1080;1920 x 1080
S004;53;Mannelijk;Rechts;1;100;right;no;100;rightarrow;564;true;focus;yes;319234;Chrome;109.0;Windows;10;undefined;undefined;1920 x 1080;1920 x 1080
S004;53;Mannelijk;Rechts;1;101;left;yes;100;leftarrow;485;false;focus;yes;320500;Chrome;109.0;Windows;10;undefined;undefined;1920 x 1080;1920 x 1080
S004;53;Mannelijk;Rechts;1;102;right;yes;50;undefined;null;true;focus;yes;322536;Chrome;109.0;Windows;10;undefined;undefined;1920 x 1080;1920 x 1080
S004;53;Mannelijk;Rechts;1;103;left;no;100;leftarrow;329;true;focus;yes;323651;Chrome;109.0;Windows;10;undefined;undefined;1920 x 1080;1920 x 1080
S004;53;Mannelijk;Rechts;1;104;left;no;100;leftarrow;396;true;focus;yes;324814;Chrome;109.0;Windows;10;undefined;undefined;1920 x 1080;1920 x 1080
S004;53;Mannelijk;Rechts;1;105;right;yes;100;rightarrow;457;false;focus;yes;326041;Chrome;109.0;Windows;10;undefined;undefined;1920 x 1080;1920 x 1080
S004;53;Mannelijk;Rechts;1;106;left;no;50;leftarrow;409;true;focus;yes;327216;Chrome;109.0;Windows;10;undefined;undefined;1920 x 1080;1920 x 1080
S004;53;Mannelijk;Rechts;1;107;left;no;50;leftarrow;347;true;focus;yes;328338;Chrome;109.0;Windows;10;undefined;undefined;1920 x 1080;1920 x 1080
S004;53;Mannelijk;Rechts;1;108;right;no;50;rightarrow;678;true;focus;yes;329785;Chrome;109.0;Windows;10;undefined;undefined;1920 x 1080;1920 x 1080
S004;53;Mannelijk;Rechts;1;109;left;no;50;leftarrow;349;true;focus;yes;330912;Chrome;109.0;Windows;10;undefined;undefined;1920 x 1080;1920 x 1080
S004;53;Mannelijk;Rechts;1;110;right;no;50;rightarrow;431;true;focus;yes;332119;Chrome;109.0;Windows;10;undefined;undefined;1920 x 1080;1920 x 1080
S004;53;Mannelijk;Rechts;1;111;right;no;50;rightarrow;405;true;focus;yes;333287;Chrome;109.0;Windows;10;undefined;undefined;1920 x 1080;1920 x 1080
S004;53;Mannelijk;Rechts;1;112;left;yes;50;undefined;null;true;focus;yes;335327;Chrome;109.0;Windows;10;undefined;undefined;1920 x 1080;1920 x 1080
S004;53;Mannelijk;Rechts;1;113;right;yes;100;undefined;null;true;focus;yes;337390;Chrome;109.0;Windows;10;undefined;undefined;1920 x 1080;1920 x 1080
S004;53;Mannelijk;Rechts;1;114;right;no;150;rightarrow;417;true;focus;yes;338584;Chrome;109.0;Windows;10;undefined;undefined;1920 x 1080;1920 x 1080
S004;53;Mannelijk;Rechts;1;115;left;no;150;leftarrow;365;true;focus;yes;339727;Chrome;109.0;Windows;10;undefined;undefined;1920 x 1080;1920 x 1080
S004;53;Mannelijk;Rechts;1;116;left;yes;150;leftarrow;436;false;focus;yes;340949;Chrome;109.0;Windows;10;undefined;undefined;1920 x 1080;1920 x 1080
S004;53;Mannelijk;Rechts;1;117;left;no;100;leftarrow;475;true;focus;yes;342199;Chrome;109.0;Windows;10;undefined;undefined;1920 x 1080;1920 x 1080
S004;53;Mannelijk;Rechts;1;118;left;no;100;leftarrow;444;true;focus;yes;343407;Chrome;109.0;Windows;10;undefined;undefined;1920 x 1080;1920 x 1080
S004;53;Mannelijk;Rechts;1;119;right;no;100;rightarrow;430;true;focus;yes;344608;Chrome;109.0;Windows;10;undefined;undefined;1920 x 1080;1920 x 1080
S004;53;Mannelijk;Rechts;1;120;right;no;100;rightarrow;374;true;focus;yes;345766;Chrome;109.0;Windows;10;undefined;undefined;1920 x 1080;1920 x 1080
S004;53;Mannelijk;Rechts;1;121;right;no;100;rightarrow;414;true;focus;yes;346964;Chrome;109.0;Windows;10;undefined;undefined;1920 x 1080;1920 x 1080
S004;53;Mannelijk;Rechts;1;122;right;no;100;rightarrow;415;true;focus;yes;348145;Chrome;109.0;Windows;10;undefined;undefined;1920 x 1080;1920 x 1080
S004;53;Mannelijk;Rechts;1;123;left;no;100;leftarrow;394;true;focus;yes;349320;Chrome;109.0;Windows;10;undefined;undefined;1920 x 1080;1920 x 1080
S004;53;Mannelijk;Rechts;1;124;left;no;100;leftarrow;307;true;focus;yes;350416;Chrome;109.0;Windows;10;undefined;undefined;1920 x 1080;1920 x 1080
S004;53;Mannelijk;Rechts;1;125;right;no;100;rightarrow;350;true;focus;yes;351549;Chrome;109.0;Windows;10;undefined;undefined;1920 x 1080;1920 x 1080
S004;53;Mannelijk;Rechts;1;126;right;yes;100;leftarrow;252;false;focus;yes;352572;Chrome;109.0;Windows;10;undefined;undefined;1920 x 1080;1920 x 1080
S004;53;Mannelijk;Rechts;1;127;left;no;50;leftarrow;397;true;focus;yes;353753;Chrome;109.0;Windows;10;undefined;undefined;1920 x 1080;1920 x 1080
S004;53;Mannelijk;Rechts;1;128;left;yes;50;undefined;null;true;focus;yes;355816;Chrome;109.0;Windows;10;undefined;undefined;1920 x 1080;1920 x 1080
S004;53;Mannelijk;Rechts;2;1;left;yes;100;leftarrow;484;false;focus;yes;375385;Chrome;109.0;Windows;10;undefined;undefined;1920 x 1080;1920 x 1080
S004;53;Mannelijk;Rechts;2;2;right;no;50;rightarrow;425;true;focus;yes;376588;Chrome;109.0;Windows;10;undefined;undefined;1920 x 1080;1920 x 1080
S004;53;Mannelijk;Rechts;2;3;left;no;50;leftarrow;378;true;focus;yes;377732;Chrome;109.0;Windows;10;undefined;undefined;1920 x 1080;1920 x 1080
S004;53;Mannelijk;Rechts;2;4;left;no;50;leftarrow;447;true;focus;yes;378979;Chrome;109.0;Windows;10;undefined;undefined;1920 x 1080;1920 x 1080
S004;53;Mannelijk;Rechts;2;5;right;yes;50;undefined;null;true;focus;yes;381036;Chrome;109.0;Windows;10;undefined;undefined;1920 x 1080;1920 x 1080
S004;53;Mannelijk;Rechts;2;6;right;no;100;rightarrow;449;true;focus;yes;382264;Chrome;109.0;Windows;10;undefined;undefined;1920 x 1080;1920 x 1080
S004;53;Mannelijk;Rechts;2;7;left;no;100;leftarrow;438;true;focus;yes;383483;Chrome;109.0;Windows;10;undefined;undefined;1920 x 1080;1920 x 1080
S004;53;Mannelijk;Rechts;2;8;right;no;100;rightarrow;505;true;focus;yes;384758;Chrome;109.0;Windows;10;undefined;undefined;1920 x 1080;1920 x 1080
S004;53;Mannelijk;Rechts;2;9;left;yes;100;leftarrow;311;false;focus;yes;385841;Chrome;109.0;Windows;10;undefined;undefined;1920 x 1080;1920 x 1080
S004;53;Mannelijk;Rechts;2;10;left;no;50;leftarrow;774;true;focus;yes;387404;Chrome;109.0;Windows;10;undefined;undefined;1920 x 1080;1920 x 1080
S004;53;Mannelijk;Rechts;2;11;right;no;50;rightarrow;343;true;focus;yes;388526;Chrome;109.0;Windows;10;undefined;undefined;1920 x 1080;1920 x 1080
S004;53;Mannelijk;Rechts;2;12;left;no;50;leftarrow;318;true;focus;yes;389614;Chrome;109.0;Windows;10;undefined;undefined;1920 x 1080;1920 x 1080
S004;53;Mannelijk;Rechts;2;13;right;no;50;rightarrow;377;true;focus;yes;390775;Chrome;109.0;Windows;10;undefined;undefined;1920 x 1080;1920 x 1080
S004;53;Mannelijk;Rechts;2;14;left;no;50;leftarrow;419;true;focus;yes;391975;Chrome;109.0;Windows;10;undefined;undefined;1920 x 1080;1920 x 1080
S004;53;Mannelijk;Rechts;2;15;right;yes;50;undefined;null;true;focus;yes;394016;Chrome;109.0;Windows;10;undefined;undefined;1920 x 1080;1920 x 1080
S004;53;Mannelijk;Rechts;2;16;right;no;100;rightarrow;484;true;focus;yes;395270;Chrome;109.0;Windows;10;undefined;undefined;1920 x 1080;1920 x 1080
S004;53;Mannelijk;Rechts;2;17;left;no;100;leftarrow;472;true;focus;yes;396530;Chrome;109.0;Windows;10;undefined;undefined;1920 x 1080;1920 x 1080
S004;53;Mannelijk;Rechts;2;18;right;no;100;rightarrow;534;true;focus;yes;397842;Chrome;109.0;Windows;10;undefined;undefined;1920 x 1080;1920 x 1080
S004;53;Mannelijk;Rechts;2;19;right;no;100;rightarrow;422;true;focus;yes;399033;Chrome;109.0;Windows;10;undefined;undefined;1920 x 1080;1920 x 1080
S004;53;Mannelijk;Rechts;2;20;right;yes;100;undefined;null;true;focus;yes;401082;Chrome;109.0;Windows;10;undefined;undefined;1920 x 1080;1920 x 1080
S004;53;Mannelijk;Rechts;2;21;right;no;150;rightarrow;365;true;focus;yes;402225;Chrome;109.0;Windows;10;undefined;undefined;1920 x 1080;1920 x 1080
S004;53;Mannelijk;Rechts;2;22;left;no;150;leftarrow;396;true;focus;yes;403404;Chrome;109.0;Windows;10;undefined;undefined;1920 x 1080;1920 x 1080
S004;53;Mannelijk;Rechts;2;23;left;no;150;leftarrow;459;true;focus;yes;404633;Chrome;109.0;Windows;10;undefined;undefined;1920 x 1080;1920 x 1080
S004;53;Mannelijk;Rechts;2;24;left;yes;150;leftarrow;403;false;focus;yes;405800;Chrome;109.0;Windows;10;undefined;undefined;1920 x 1080;1920 x 1080
S004;53;Mannelijk;Rechts;2;25;left;no;100;leftarrow;474;true;focus;yes;407048;Chrome;109.0;Windows;10;undefined;undefined;1920 x 1080;1920 x 1080
S004;53;Mannelijk;Rechts;2;26;right;yes;100;undefined;null;true;focus;yes;409080;Chrome;109.0;Windows;10;undefined;undefined;1920 x 1080;1920 x 1080
S004;53;Mannelijk;Rechts;2;27;left;no;150;leftarrow;407;true;focus;yes;410278;Chrome;109.0;Windows;10;undefined;undefined;1920 x 1080;1920 x 1080
S004;53;Mannelijk;Rechts;2;28;right;no;150;rightarrow;382;true;focus;yes;411437;Chrome;109.0;Windows;10;undefined;undefined;1920 x 1080;1920 x 1080
S004;53;Mannelijk;Rechts;2;29;right;no;150;rightarrow;492;true;focus;yes;412708;Chrome;109.0;Windows;10;undefined;undefined;1920 x 1080;1920 x 1080
S004;53;Mannelijk;Rechts;2;30;left;yes;150;leftarrow;397;false;focus;yes;413902;Chrome;109.0;Windows;10;undefined;undefined;1920 x 1080;1920 x 1080
S004;53;Mannelijk;Rechts;2;31;right;no;100;rightarrow;330;true;focus;yes;415002;Chrome;109.0;Windows;10;undefined;undefined;1920 x 1080;1920 x 1080
S004;53;Mannelijk;Rechts;2;32;left;no;100;leftarrow;404;true;focus;yes;416191;Chrome;109.0;Windows;10;undefined;undefined;1920 x 1080;1920 x 1080
S004;53;Mannelijk;Rechts;2;33;left;no;100;leftarrow;447;true;focus;yes;417414;Chrome;109.0;Windows;10;undefined;undefined;1920 x 1080;1920 x 1080
S004;53;Mannelijk;Rechts;2;34;right;no;100;rightarrow;525;true;focus;yes;418729;Chrome;109.0;Windows;10;undefined;undefined;1920 x 1080;1920 x 1080
S004;53;Mannelijk;Rechts;2;35;right;no;100;rightarrow;627;true;focus;yes;420132;Chrome;109.0;Windows;10;undefined;undefined;1920 x 1080;1920 x 1080
S004;53;Mannelijk;Rechts;2;36;right;no;100;rightarrow;394;true;focus;yes;421300;Chrome;109.0;Windows;10;undefined;undefined;1920 x 1080;1920 x 1080
S004;53;Mannelijk;Rechts;2;37;right;yes;100;undefined;null;true;focus;yes;423356;Chrome;109.0;Windows;10;undefined;undefined;1920 x 1080;1920 x 1080
S004;53;Mannelijk;Rechts;2;38;left;yes;150;leftarrow;412;false;focus;yes;424548;Chrome;109.0;Windows;10;undefined;undefined;1920 x 1080;1920 x 1080
S004;53;Mannelijk;Rechts;2;39;left;no;100;leftarrow;650;true;focus;yes;425987;Chrome;109.0;Windows;10;undefined;undefined;1920 x 1080;1920 x 1080
S004;53;Mannelijk;Rechts;2;40;left;no;100;leftarrow;430;true;focus;yes;427184;Chrome;109.0;Windows;10;undefined;undefined;1920 x 1080;1920 x 1080
S004;53;Mannelijk;Rechts;2;41;left;no;100;leftarrow;376;true;focus;yes;428330;Chrome;109.0;Windows;10;undefined;undefined;1920 x 1080;1920 x 1080
S004;53;Mannelijk;Rechts;2;42;right;no;100;rightarrow;377;true;focus;yes;429491;Chrome;109.0;Windows;10;undefined;undefined;1920 x 1080;1920 x 1080
S004;53;Mannelijk;Rechts;2;43;left;no;100;leftarrow;401;true;focus;yes;430664;Chrome;109.0;Windows;10;undefined;undefined;1920 x 1080;1920 x 1080
S004;53;Mannelijk;Rechts;2;44;right;no;100;rightarrow;444;true;focus;yes;431881;Chrome;109.0;Windows;10;undefined;undefined;1920 x 1080;1920 x 1080
S004;53;Mannelijk;Rechts;2;45;left;yes;100;undefined;null;true;focus;yes;433929;Chrome;109.0;Windows;10;undefined;undefined;1920 x 1080;1920 x 1080
S004;53;Mannelijk;Rechts;2;46;right;yes;150;rightarrow;453;false;focus;yes;435171;Chrome;109.0;Windows;10;undefined;undefined;1920 x 1080;1920 x 1080
S004;53;Mannelijk;Rechts;2;47;left;no;100;leftarrow;387;true;focus;yes;436337;Chrome;109.0;Windows;10;undefined;undefined;1920 x 1080;1920 x 1080
S004;53;Mannelijk;Rechts;2;48;right;no;100;rightarrow;460;true;focus;yes;437574;Chrome;109.0;Windows;10;undefined;undefined;1920 x 1080;1920 x 1080
S004;53;Mannelijk;Rechts;2;49;left;yes;100;undefined;null;true;focus;yes;439604;Chrome;109.0;Windows;10;undefined;undefined;1920 x 1080;1920 x 1080
S004;53;Mannelijk;Rechts;2;50;right;yes;150;undefined;null;true;focus;yes;441626;Chrome;109.0;Windows;10;undefined;undefined;1920 x 1080;1920 x 1080
S004;53;Mannelijk;Rechts;2;51;left;no;200;leftarrow;384;true;focus;yes;442795;Chrome;109.0;Windows;10;undefined;undefined;1920 x 1080;1920 x 1080
S004;53;Mannelijk;Rechts;2;52;left;no;200;leftarrow;427;true;focus;yes;444012;Chrome;109.0;Windows;10;undefined;undefined;1920 x 1080;1920 x 1080
S004;53;Mannelijk;Rechts;2;53;right;no;200;rightarrow;391;true;focus;yes;445174;Chrome;109.0;Windows;10;undefined;undefined;1920 x 1080;1920 x 1080
S004;53;Mannelijk;Rechts;2;54;left;no;200;leftarrow;433;true;focus;yes;446385;Chrome;109.0;Windows;10;undefined;undefined;1920 x 1080;1920 x 1080
S004;53;Mannelijk;Rechts;2;55;right;no;200;rightarrow;414;true;focus;yes;447574;Chrome;109.0;Windows;10;undefined;undefined;1920 x 1080;1920 x 1080
S004;53;Mannelijk;Rechts;2;56;right;no;200;rightarrow;476;true;focus;yes;448812;Chrome;109.0;Windows;10;undefined;undefined;1920 x 1080;1920 x 1080
S004;53;Mannelijk;Rechts;2;57;left;no;200;leftarrow;448;true;focus;yes;450027;Chrome;109.0;Windows;10;undefined;undefined;1920 x 1080;1920 x 1080
S004;53;Mannelijk;Rechts;2;58;right;no;200;rightarrow;411;true;focus;yes;451224;Chrome;109.0;Windows;10;undefined;undefined;1920 x 1080;1920 x 1080
S004;53;Mannelijk;Rechts;2;59;right;yes;200;rightarrow;354;false;focus;yes;452357;Chrome;109.0;Windows;10;undefined;undefined;1920 x 1080;1920 x 1080
S004;53;Mannelijk;Rechts;2;60;right;no;150;rightarrow;381;true;focus;yes;453512;Chrome;109.0;Windows;10;undefined;undefined;1920 x 1080;1920 x 1080
S004;53;Mannelijk;Rechts;2;61;left;no;150;leftarrow;637;true;focus;yes;454948;Chrome;109.0;Windows;10;undefined;undefined;1920 x 1080;1920 x 1080
S004;53;Mannelijk;Rechts;2;62;left;no;150;leftarrow;389;true;focus;yes;456106;Chrome;109.0;Windows;10;undefined;undefined;1920 x 1080;1920 x 1080
S004;53;Mannelijk;Rechts;2;63;right;no;150;rightarrow;502;true;focus;yes;457381;Chrome;109.0;Windows;10;undefined;undefined;1920 x 1080;1920 x 1080
S004;53;Mannelijk;Rechts;2;64;left;yes;150;leftarrow;501;false;focus;yes;458660;Chrome;109.0;Windows;10;undefined;undefined;1920 x 1080;1920 x 1080
S004;53;Mannelijk;Rechts;2;65;left;no;100;leftarrow;396;true;focus;yes;459829;Chrome;109.0;Windows;10;undefined;undefined;1920 x 1080;1920 x 1080
S004;53;Mannelijk;Rechts;2;66;right;no;100;rightarrow;570;true;focus;yes;461180;Chrome;109.0;Windows;10;undefined;undefined;1920 x 1080;1920 x 1080
S004;53;Mannelijk;Rechts;2;67;left;yes;100;leftarrow;339;false;focus;yes;462295;Chrome;109.0;Windows;10;undefined;undefined;1920 x 1080;1920 x 1080
S004;53;Mannelijk;Rechts;2;68;left;no;50;leftarrow;491;true;focus;yes;463562;Chrome;109.0;Windows;10;undefined;undefined;1920 x 1080;1920 x 1080
S004;53;Mannelijk;Rechts;2;69;left;no;50;leftarrow;516;true;focus;yes;464842;Chrome;109.0;Windows;10;undefined;undefined;1920 x 1080;1920 x 1080
S004;53;Mannelijk;Rechts;2;70;right;no;50;rightarrow;433;true;focus;yes;466057;Chrome;109.0;Windows;10;undefined;undefined;1920 x 1080;1920 x 1080
S004;53;Mannelijk;Rechts;2;71;right;yes;50;undefined;null;true;focus;yes;468102;Chrome;109.0;Windows;10;undefined;undefined;1920 x 1080;1920 x 1080
S004;53;Mannelijk;Rechts;2;72;right;no;100;rightarrow;446;true;focus;yes;469333;Chrome;109.0;Windows;10;undefined;undefined;1920 x 1080;1920 x 1080
S004;53;Mannelijk;Rechts;2;73;right;no;100;rightarrow;356;true;focus;yes;470470;Chrome;109.0;Windows;10;undefined;undefined;1920 x 1080;1920 x 1080
S004;53;Mannelijk;Rechts;2;74;right;no;100;rightarrow;390;true;focus;yes;471662;Chrome;109.0;Windows;10;undefined;undefined;1920 x 1080;1920 x 1080
S004;53;Mannelijk;Rechts;2;75;left;no;100;leftarrow;418;true;focus;yes;472856;Chrome;109.0;Windows;10;undefined;undefined;1920 x 1080;1920 x 1080
S004;53;Mannelijk;Rechts;2;76;right;yes;100;undefined;null;true;focus;yes;474923;Chrome;109.0;Windows;10;undefined;undefined;1920 x 1080;1920 x 1080
S004;53;Mannelijk;Rechts;2;77;left;no;150;leftarrow;374;true;focus;yes;476077;Chrome;109.0;Windows;10;undefined;undefined;1920 x 1080;1920 x 1080
S004;53;Mannelijk;Rechts;2;78;left;no;150;leftarrow;402;true;focus;yes;477252;Chrome;109.0;Windows;10;undefined;undefined;1920 x 1080;1920 x 1080
S004;53;Mannelijk;Rechts;2;79;left;yes;150;leftarrow;369;false;focus;yes;478396;Chrome;109.0;Windows;10;undefined;undefined;1920 x 1080;1920 x 1080
S004;53;Mannelijk;Rechts;2;80;right;no;100;rightarrow;435;true;focus;yes;479605;Chrome;109.0;Windows;10;undefined;undefined;1920 x 1080;1920 x 1080
S004;53;Mannelijk;Rechts;2;81;left;no;100;leftarrow;472;true;focus;yes;480870;Chrome;109.0;Windows;10;undefined;undefined;1920 x 1080;1920 x 1080
S004;53;Mannelijk;Rechts;2;82;right;no;100;rightarrow;451;true;focus;yes;482111;Chrome;109.0;Windows;10;undefined;undefined;1920 x 1080;1920 x 1080
S004;53;Mannelijk;Rechts;2;83;right;yes;100;undefined;null;true;focus;yes;484135;Chrome;109.0;Windows;10;undefined;undefined;1920 x 1080;1920 x 1080
S004;53;Mannelijk;Rechts;2;84;left;no;150;leftarrow;417;true;focus;yes;485320;Chrome;109.0;Windows;10;undefined;undefined;1920 x 1080;1920 x 1080
S004;53;Mannelijk;Rechts;2;85;right;no;150;rightarrow;435;true;focus;yes;486549;Chrome;109.0;Windows;10;undefined;undefined;1920 x 1080;1920 x 1080
S004;53;Mannelijk;Rechts;2;86;right;no;150;rightarrow;384;true;focus;yes;487713;Chrome;109.0;Windows;10;undefined;undefined;1920 x 1080;1920 x 1080
S004;53;Mannelijk;Rechts;2;87;left;no;150;leftarrow;528;true;focus;yes;489023;Chrome;109.0;Windows;10;undefined;undefined;1920 x 1080;1920 x 1080
S004;53;Mannelijk;Rechts;2;88;left;yes;150;undefined;null;true;focus;yes;491096;Chrome;109.0;Windows;10;undefined;undefined;1920 x 1080;1920 x 1080
S004;53;Mannelijk;Rechts;2;89;left;yes;200;leftarrow;408;false;focus;yes;492288;Chrome;109.0;Windows;10;undefined;undefined;1920 x 1080;1920 x 1080
S004;53;Mannelijk;Rechts;2;90;left;no;150;leftarrow;505;true;focus;yes;493565;Chrome;109.0;Windows;10;undefined;undefined;1920 x 1080;1920 x 1080
S004;53;Mannelijk;Rechts;2;91;left;no;150;leftarrow;455;true;focus;yes;494812;Chrome;109.0;Windows;10;undefined;undefined;1920 x 1080;1920 x 1080
S004;53;Mannelijk;Rechts;2;92;right;no;150;rightarrow;534;true;focus;yes;496113;Chrome;109.0;Windows;10;undefined;undefined;1920 x 1080;1920 x 1080
S004;53;Mannelijk;Rechts;2;93;right;yes;150;undefined;null;true;focus;yes;498163;Chrome;109.0;Windows;10;undefined;undefined;1920 x 1080;1920 x 1080
S004;53;Mannelijk;Rechts;2;94;left;no;200;leftarrow;525;true;focus;yes;499469;Chrome;109.0;Windows;10;undefined;undefined;1920 x 1080;1920 x 1080
S004;53;Mannelijk;Rechts;2;95;right;no;200;rightarrow;594;true;focus;yes;500828;Chrome;109.0;Windows;10;undefined;undefined;1920 x 1080;1920 x 1080
S004;53;Mannelijk;Rechts;2;96;right;no;200;rightarrow;574;true;focus;yes;502181;Chrome;109.0;Windows;10;undefined;undefined;1920 x 1080;1920 x 1080
S004;53;Mannelijk;Rechts;2;97;right;no;200;rightarrow;650;true;focus;yes;503596;Chrome;109.0;Windows;10;undefined;undefined;1920 x 1080;1920 x 1080
S004;53;Mannelijk;Rechts;2;98;right;no;200;rightarrow;468;true;focus;yes;504840;Chrome;109.0;Windows;10;undefined;undefined;1920 x 1080;1920 x 1080
S004;53;Mannelijk;Rechts;2;99;left;no;200;leftarrow;548;true;focus;yes;506160;Chrome;109.0;Windows;10;undefined;undefined;1920 x 1080;1920 x 1080
S004;53;Mannelijk;Rechts;2;100;right;no;200;rightarrow;628;true;focus;yes;507567;Chrome;109.0;Windows;10;undefined;undefined;1920 x 1080;1920 x 1080
S004;53;Mannelijk;Rechts;2;101;left;no;200;leftarrow;362;true;focus;yes;508734;Chrome;109.0;Windows;10;undefined;undefined;1920 x 1080;1920 x 1080
S004;53;Mannelijk;Rechts;2;102;left;no;200;leftarrow;388;true;focus;yes;509910;Chrome;109.0;Windows;10;undefined;undefined;1920 x 1080;1920 x 1080
S004;53;Mannelijk;Rechts;2;103;left;yes;200;undefined;null;true;focus;yes;511951;Chrome;109.0;Windows;10;undefined;undefined;1920 x 1080;1920 x 1080
S004;53;Mannelijk;Rechts;2;104;right;yes;250;rightarrow;312;false;focus;yes;513049;Chrome;109.0;Windows;10;undefined;undefined;1920 x 1080;1920 x 1080
S004;53;Mannelijk;Rechts;2;105;right;no;200;rightarrow;741;true;focus;yes;514563;Chrome;109.0;Windows;10;undefined;undefined;1920 x 1080;1920 x 1080
S004;53;Mannelijk;Rechts;2;106;left;no;200;leftarrow;384;true;focus;yes;515720;Chrome;109.0;Windows;10;undefined;undefined;1920 x 1080;1920 x 1080
S004;53;Mannelijk;Rechts;2;107;left;yes;200;undefined;null;true;focus;yes;517759;Chrome;109.0;Windows;10;undefined;undefined;1920 x 1080;1920 x 1080
S004;53;Mannelijk;Rechts;2;108;right;no;250;rightarrow;462;true;focus;yes;518997;Chrome;109.0;Windows;10;undefined;undefined;1920 x 1080;1920 x 1080
S004;53;Mannelijk;Rechts;2;109;left;no;250;leftarrow;428;true;focus;yes;520196;Chrome;109.0;Windows;10;undefined;undefined;1920 x 1080;1920 x 1080
S004;53;Mannelijk;Rechts;2;110;right;yes;250;rightarrow;458;false;focus;yes;521415;Chrome;109.0;Windows;10;undefined;undefined;1920 x 1080;1920 x 1080
S004;53;Mannelijk;Rechts;2;111;left;no;200;leftarrow;426;true;focus;yes;522611;Chrome;109.0;Windows;10;undefined;undefined;1920 x 1080;1920 x 1080
S004;53;Mannelijk;Rechts;2;112;right;no;200;rightarrow;415;true;focus;yes;523798;Chrome;109.0;Windows;10;undefined;undefined;1920 x 1080;1920 x 1080
S004;53;Mannelijk;Rechts;2;113;left;yes;200;leftarrow;464;false;focus;yes;525040;Chrome;109.0;Windows;10;undefined;undefined;1920 x 1080;1920 x 1080
S004;53;Mannelijk;Rechts;2;114;right;no;150;rightarrow;492;true;focus;yes;526309;Chrome;109.0;Windows;10;undefined;undefined;1920 x 1080;1920 x 1080
S004;53;Mannelijk;Rechts;2;115;right;no;150;rightarrow;430;true;focus;yes;527513;Chrome;109.0;Windows;10;undefined;undefined;1920 x 1080;1920 x 1080
S004;53;Mannelijk;Rechts;2;116;left;no;150;leftarrow;358;true;focus;yes;528652;Chrome;109.0;Windows;10;undefined;undefined;1920 x 1080;1920 x 1080
S004;53;Mannelijk;Rechts;2;117;right;no;150;rightarrow;436;true;focus;yes;529857;Chrome;109.0;Windows;10;undefined;undefined;1920 x 1080;1920 x 1080
S004;53;Mannelijk;Rechts;2;118;left;no;150;leftarrow;378;true;focus;yes;531010;Chrome;109.0;Windows;10;undefined;undefined;1920 x 1080;1920 x 1080
S004;53;Mannelijk;Rechts;2;119;left;no;150;leftarrow;465;true;focus;yes;532247;Chrome;109.0;Windows;10;undefined;undefined;1920 x 1080;1920 x 1080
S004;53;Mannelijk;Rechts;2;120;right;yes;150;undefined;null;true;focus;yes;534294;Chrome;109.0;Windows;10;undefined;undefined;1920 x 1080;1920 x 1080
S004;53;Mannelijk;Rechts;2;121;right;no;200;rightarrow;508;true;focus;yes;535589;Chrome;109.0;Windows;10;undefined;undefined;1920 x 1080;1920 x 1080
S004;53;Mannelijk;Rechts;2;122;right;no;200;rightarrow;496;true;focus;yes;536847;Chrome;109.0;Windows;10;undefined;undefined;1920 x 1080;1920 x 1080
S004;53;Mannelijk;Rechts;2;123;right;yes;200;undefined;null;true;focus;yes;538896;Chrome;109.0;Windows;10;undefined;undefined;1920 x 1080;1920 x 1080
S004;53;Mannelijk;Rechts;2;124;right;no;250;rightarrow;469;true;focus;yes;540148;Chrome;109.0;Windows;10;undefined;undefined;1920 x 1080;1920 x 1080
S004;53;Mannelijk;Rechts;2;125;left;no;250;leftarrow;385;true;focus;yes;541316;Chrome;109.0;Windows;10;undefined;undefined;1920 x 1080;1920 x 1080
S004;53;Mannelijk;Rechts;2;126;left;no;250;leftarrow;351;true;focus;yes;542439;Chrome;109.0;Windows;10;undefined;undefined;1920 x 1080;1920 x 1080
S004;53;Mannelijk;Rechts;2;127;left;yes;250;leftarrow;330;false;focus;yes;543546;Chrome;109.0;Windows;10;undefined;undefined;1920 x 1080;1920 x 1080
S004;53;Mannelijk;Rechts;2;128;left;no;200;leftarrow;486;true;focus;yes;544802;Chrome;109.0;Windows;10;undefined;undefined;1920 x 1080;1920 x 1080
S004;53;Mannelijk;Rechts;3;1;left;no;200;leftarrow;441;true;focus;yes;564012;Chrome;109.0;Windows;10;undefined;undefined;1920 x 1080;1920 x 1080
S004;53;Mannelijk;Rechts;3;2;left;yes;200;leftarrow;362;false;focus;yes;565147;Chrome;109.0;Windows;10;undefined;undefined;1920 x 1080;1920 x 1080
S004;53;Mannelijk;Rechts;3;3;right;no;150;rightarrow;439;true;focus;yes;566370;Chrome;109.0;Windows;10;undefined;undefined;1920 x 1080;1920 x 1080
S004;53;Mannelijk;Rechts;3;4;left;no;150;leftarrow;433;true;focus;yes;567571;Chrome;109.0;Windows;10;undefined;undefined;1920 x 1080;1920 x 1080
S004;53;Mannelijk;Rechts;3;5;right;no;150;rightarrow;375;true;focus;yes;568727;Chrome;109.0;Windows;10;undefined;undefined;1920 x 1080;1920 x 1080
S004;53;Mannelijk;Rechts;3;6;right;no;150;rightarrow;497;true;focus;yes;569999;Chrome;109.0;Windows;10;undefined;undefined;1920 x 1080;1920 x 1080
S004;53;Mannelijk;Rechts;3;7;right;yes;150;rightarrow;384;false;focus;yes;571173;Chrome;109.0;Windows;10;undefined;undefined;1920 x 1080;1920 x 1080
S004;53;Mannelijk;Rechts;3;8;left;no;100;leftarrow;414;true;focus;yes;572348;Chrome;109.0;Windows;10;undefined;undefined;1920 x 1080;1920 x 1080
S004;53;Mannelijk;Rechts;3;9;left;no;100;leftarrow;478;true;focus;yes;573595;Chrome;109.0;Windows;10;undefined;undefined;1920 x 1080;1920 x 1080
S004;53;Mannelijk;Rechts;3;10;left;no;100;leftarrow;450;true;focus;yes;574814;Chrome;109.0;Windows;10;undefined;undefined;1920 x 1080;1920 x 1080
S004;53;Mannelijk;Rechts;3;11;right;no;100;rightarrow;454;true;focus;yes;576056;Chrome;109.0;Windows;10;undefined;undefined;1920 x 1080;1920 x 1080
S004;53;Mannelijk;Rechts;3;12;right;no;100;rightarrow;424;true;focus;yes;577258;Chrome;109.0;Windows;10;undefined;undefined;1920 x 1080;1920 x 1080
S004;53;Mannelijk;Rechts;3;13;right;no;100;rightarrow;489;true;focus;yes;578514;Chrome;109.0;Windows;10;undefined;undefined;1920 x 1080;1920 x 1080
S004;53;Mannelijk;Rechts;3;14;left;yes;100;undefined;null;true;focus;yes;580571;Chrome;109.0;Windows;10;undefined;undefined;1920 x 1080;1920 x 1080
S004;53;Mannelijk;Rechts;3;15;right;yes;150;undefined;null;true;focus;yes;582610;Chrome;109.0;Windows;10;undefined;undefined;1920 x 1080;1920 x 1080
S004;53;Mannelijk;Rechts;3;16;left;no;200;leftarrow;353;true;focus;yes;583748;Chrome;109.0;Windows;10;undefined;undefined;1920 x 1080;1920 x 1080
S004;53;Mannelijk;Rechts;3;17;left;yes;200;undefined;null;true;focus;yes;585775;Chrome;109.0;Windows;10;undefined;undefined;1920 x 1080;1920 x 1080
S004;53;Mannelijk;Rechts;3;18;left;no;250;leftarrow;437;true;focus;yes;586997;Chrome;109.0;Windows;10;undefined;undefined;1920 x 1080;1920 x 1080
S004;53;Mannelijk;Rechts;3;19;left;no;250;leftarrow;497;true;focus;yes;588264;Chrome;109.0;Windows;10;undefined;undefined;1920 x 1080;1920 x 1080
S004;53;Mannelijk;Rechts;3;20;right;no;250;rightarrow;483;true;focus;yes;589528;Chrome;109.0;Windows;10;undefined;undefined;1920 x 1080;1920 x 1080
S004;53;Mannelijk;Rechts;3;21;right;no;250;rightarrow;566;true;focus;yes;590873;Chrome;109.0;Windows;10;undefined;undefined;1920 x 1080;1920 x 1080
S004;53;Mannelijk;Rechts;3;22;right;yes;250;rightarrow;407;false;focus;yes;592052;Chrome;109.0;Windows;10;undefined;undefined;1920 x 1080;1920 x 1080
S004;53;Mannelijk;Rechts;3;23;left;no;200;leftarrow;410;true;focus;yes;593237;Chrome;109.0;Windows;10;undefined;undefined;1920 x 1080;1920 x 1080
S004;53;Mannelijk;Rechts;3;24;right;no;200;rightarrow;421;true;focus;yes;594425;Chrome;109.0;Windows;10;undefined;undefined;1920 x 1080;1920 x 1080
S004;53;Mannelijk;Rechts;3;25;right;no;200;rightarrow;438;true;focus;yes;595634;Chrome;109.0;Windows;10;undefined;undefined;1920 x 1080;1920 x 1080
S004;53;Mannelijk;Rechts;3;26;left;no;200;leftarrow;389;true;focus;yes;596798;Chrome;109.0;Windows;10;undefined;undefined;1920 x 1080;1920 x 1080
S004;53;Mannelijk;Rechts;3;27;right;no;200;rightarrow;389;true;focus;yes;597965;Chrome;109.0;Windows;10;undefined;undefined;1920 x 1080;1920 x 1080
S004;53;Mannelijk;Rechts;3;28;left;no;200;leftarrow;438;true;focus;yes;599178;Chrome;109.0;Windows;10;undefined;undefined;1920 x 1080;1920 x 1080
S004;53;Mannelijk;Rechts;3;29;left;no;200;leftarrow;452;true;focus;yes;600414;Chrome;109.0;Windows;10;undefined;undefined;1920 x 1080;1920 x 1080
S004;53;Mannelijk;Rechts;3;30;right;yes;200;rightarrow;332;false;focus;yes;601544;Chrome;109.0;Windows;10;undefined;undefined;1920 x 1080;1920 x 1080
S004;53;Mannelijk;Rechts;3;31;left;yes;150;undefined;null;true;focus;yes;603586;Chrome;109.0;Windows;10;undefined;undefined;1920 x 1080;1920 x 1080
S004;53;Mannelijk;Rechts;3;32;right;no;200;rightarrow;352;true;focus;yes;604714;Chrome;109.0;Windows;10;undefined;undefined;1920 x 1080;1920 x 1080
S004;53;Mannelijk;Rechts;3;33;right;yes;200;undefined;null;true;focus;yes;606754;Chrome;109.0;Windows;10;undefined;undefined;1920 x 1080;1920 x 1080
S004;53;Mannelijk;Rechts;3;34;right;no;250;leftarrow;323;false;focus;yes;607852;Chrome;109.0;Windows;10;undefined;undefined;1920 x 1080;1920 x 1080
S004;53;Mannelijk;Rechts;3;35;left;no;250;leftarrow;442;true;focus;yes;609077;Chrome;109.0;Windows;10;undefined;undefined;1920 x 1080;1920 x 1080
S004;53;Mannelijk;Rechts;3;36;right;no;250;rightarrow;442;true;focus;yes;610301;Chrome;109.0;Windows;10;undefined;undefined;1920 x 1080;1920 x 1080
S004;53;Mannelijk;Rechts;3;37;left;yes;250;leftarrow;396;false;focus;yes;611493;Chrome;109.0;Windows;10;undefined;undefined;1920 x 1080;1920 x 1080
S004;53;Mannelijk;Rechts;3;38;left;no;200;leftarrow;601;true;focus;yes;612860;Chrome;109.0;Windows;10;undefined;undefined;1920 x 1080;1920 x 1080
S004;53;Mannelijk;Rechts;3;39;right;no;200;rightarrow;338;true;focus;yes;613989;Chrome;109.0;Windows;10;undefined;undefined;1920 x 1080;1920 x 1080
S004;53;Mannelijk;Rechts;3;40;left;no;200;leftarrow;629;true;focus;yes;615393;Chrome;109.0;Windows;10;undefined;undefined;1920 x 1080;1920 x 1080
S004;53;Mannelijk;Rechts;3;41;left;no;200;leftarrow;397;true;focus;yes;616575;Chrome;109.0;Windows;10;undefined;undefined;1920 x 1080;1920 x 1080
S004;53;Mannelijk;Rechts;3;42;left;no;200;leftarrow;386;true;focus;yes;617740;Chrome;109.0;Windows;10;undefined;undefined;1920 x 1080;1920 x 1080
S004;53;Mannelijk;Rechts;3;43;right;no;200;rightarrow;452;true;focus;yes;618982;Chrome;109.0;Windows;10;undefined;undefined;1920 x 1080;1920 x 1080
S004;53;Mannelijk;Rechts;3;44;right;yes;200;rightarrow;416;false;focus;yes;620173;Chrome;109.0;Windows;10;undefined;undefined;1920 x 1080;1920 x 1080
S004;53;Mannelijk;Rechts;3;45;left;no;150;leftarrow;376;true;focus;yes;621325;Chrome;109.0;Windows;10;undefined;undefined;1920 x 1080;1920 x 1080
S004;53;Mannelijk;Rechts;3;46;left;yes;150;undefined;null;true;focus;yes;623352;Chrome;109.0;Windows;10;undefined;undefined;1920 x 1080;1920 x 1080
S004;53;Mannelijk;Rechts;3;47;right;no;200;rightarrow;420;true;focus;yes;624554;Chrome;109.0;Windows;10;undefined;undefined;1920 x 1080;1920 x 1080
S004;53;Mannelijk;Rechts;3;48;right;no;200;rightarrow;601;true;focus;yes;625930;Chrome;109.0;Windows;10;undefined;undefined;1920 x 1080;1920 x 1080
S004;53;Mannelijk;Rechts;3;49;right;no;200;rightarrow;554;true;focus;yes;627259;Chrome;109.0;Windows;10;undefined;undefined;1920 x 1080;1920 x 1080
S004;53;Mannelijk;Rechts;3;50;right;no;200;rightarrow;486;true;focus;yes;628544;Chrome;109.0;Windows;10;undefined;undefined;1920 x 1080;1920 x 1080
S004;53;Mannelijk;Rechts;3;51;left;no;200;leftarrow;764;true;focus;yes;630078;Chrome;109.0;Windows;10;undefined;undefined;1920 x 1080;1920 x 1080
S004;53;Mannelijk;Rechts;3;52;right;no;200;rightarrow;467;true;focus;yes;631322;Chrome;109.0;Windows;10;undefined;undefined;1920 x 1080;1920 x 1080
S004;53;Mannelijk;Rechts;3;53;left;no;200;rightarrow;591;false;focus;yes;632708;Chrome;109.0;Windows;10;undefined;undefined;1920 x 1080;1920 x 1080
S004;53;Mannelijk;Rechts;3;54;left;yes;200;undefined;null;true;focus;yes;634749;Chrome;109.0;Windows;10;undefined;undefined;1920 x 1080;1920 x 1080
S004;53;Mannelijk;Rechts;3;55;left;no;250;leftarrow;452;true;focus;yes;635970;Chrome;109.0;Windows;10;undefined;undefined;1920 x 1080;1920 x 1080
S004;53;Mannelijk;Rechts;3;56;right;yes;250;rightarrow;494;false;focus;yes;637230;Chrome;109.0;Windows;10;undefined;undefined;1920 x 1080;1920 x 1080
S004;53;Mannelijk;Rechts;3;57;left;yes;200;undefined;null;true;focus;yes;639263;Chrome;109.0;Windows;10;undefined;undefined;1920 x 1080;1920 x 1080
S004;53;Mannelijk;Rechts;3;58;right;yes;250;rightarrow;383;false;focus;yes;640411;Chrome;109.0;Windows;10;undefined;undefined;1920 x 1080;1920 x 1080
S004;53;Mannelijk;Rechts;3;59;right;no;200;rightarrow;667;true;focus;yes;641861;Chrome;109.0;Windows;10;undefined;undefined;1920 x 1080;1920 x 1080
S004;53;Mannelijk;Rechts;3;60;left;no;200;leftarrow;408;true;focus;yes;643057;Chrome;109.0;Windows;10;undefined;undefined;1920 x 1080;1920 x 1080
S004;53;Mannelijk;Rechts;3;61;right;no;200;rightarrow;498;true;focus;yes;644327;Chrome;109.0;Windows;10;undefined;undefined;1920 x 1080;1920 x 1080
S004;53;Mannelijk;Rechts;3;62;left;no;200;leftarrow;372;true;focus;yes;645472;Chrome;109.0;Windows;10;undefined;undefined;1920 x 1080;1920 x 1080
S004;53;Mannelijk;Rechts;3;63;left;no;200;leftarrow;386;true;focus;yes;646640;Chrome;109.0;Windows;10;undefined;undefined;1920 x 1080;1920 x 1080
S004;53;Mannelijk;Rechts;3;64;right;no;200;rightarrow;466;true;focus;yes;647881;Chrome;109.0;Windows;10;undefined;undefined;1920 x 1080;1920 x 1080
S004;53;Mannelijk;Rechts;3;65;right;no;200;rightarrow;514;true;focus;yes;649174;Chrome;109.0;Windows;10;undefined;undefined;1920 x 1080;1920 x 1080
S004;53;Mannelijk;Rechts;3;66;right;no;200;rightarrow;417;true;focus;yes;650378;Chrome;109.0;Windows;10;undefined;undefined;1920 x 1080;1920 x 1080
S004;53;Mannelijk;Rechts;3;67;right;no;200;rightarrow;417;true;focus;yes;651557;Chrome;109.0;Windows;10;undefined;undefined;1920 x 1080;1920 x 1080
S004;53;Mannelijk;Rechts;3;68;left;no;200;leftarrow;513;true;focus;yes;652848;Chrome;109.0;Windows;10;undefined;undefined;1920 x 1080;1920 x 1080
S004;53;Mannelijk;Rechts;3;69;left;yes;200;undefined;null;true;focus;yes;654876;Chrome;109.0;Windows;10;undefined;undefined;1920 x 1080;1920 x 1080
S004;53;Mannelijk;Rechts;3;70;right;yes;250;rightarrow;424;false;focus;yes;656069;Chrome;109.0;Windows;10;undefined;undefined;1920 x 1080;1920 x 1080
S004;53;Mannelijk;Rechts;3;71;left;no;200;leftarrow;518;true;focus;yes;657362;Chrome;109.0;Windows;10;undefined;undefined;1920 x 1080;1920 x 1080
S004;53;Mannelijk;Rechts;3;72;left;no;200;leftarrow;420;true;focus;yes;658559;Chrome;109.0;Windows;10;undefined;undefined;1920 x 1080;1920 x 1080
S004;53;Mannelijk;Rechts;3;73;right;yes;200;rightarrow;420;false;focus;yes;659750;Chrome;109.0;Windows;10;undefined;undefined;1920 x 1080;1920 x 1080
S004;53;Mannelijk;Rechts;3;74;left;yes;150;undefined;null;true;focus;yes;661801;Chrome;109.0;Windows;10;undefined;undefined;1920 x 1080;1920 x 1080
S004;53;Mannelijk;Rechts;3;75;right;no;200;rightarrow;399;true;focus;yes;663003;Chrome;109.0;Windows;10;undefined;undefined;1920 x 1080;1920 x 1080
S004;53;Mannelijk;Rechts;3;76;right;no;200;rightarrow;474;true;focus;yes;664260;Chrome;109.0;Windows;10;undefined;undefined;1920 x 1080;1920 x 1080
S004;53;Mannelijk;Rechts;3;77;left;no;200;leftarrow;463;true;focus;yes;665495;Chrome;109.0;Windows;10;undefined;undefined;1920 x 1080;1920 x 1080
S004;53;Mannelijk;Rechts;3;78;left;no;200;leftarrow;511;true;focus;yes;666798;Chrome;109.0;Windows;10;undefined;undefined;1920 x 1080;1920 x 1080
S004;53;Mannelijk;Rechts;3;79;right;no;200;rightarrow;626;true;focus;yes;668195;Chrome;109.0;Windows;10;undefined;undefined;1920 x 1080;1920 x 1080
S004;53;Mannelijk;Rechts;3;80;left;no;200;leftarrow;372;true;focus;yes;669340;Chrome;109.0;Windows;10;undefined;undefined;1920 x 1080;1920 x 1080
S004;53;Mannelijk;Rechts;3;81;right;no;200;rightarrow;428;true;focus;yes;670545;Chrome;109.0;Windows;10;undefined;undefined;1920 x 1080;1920 x 1080
S004;53;Mannelijk;Rechts;3;82;left;no;200;leftarrow;434;true;focus;yes;671783;Chrome;109.0;Windows;10;undefined;undefined;1920 x 1080;1920 x 1080
S004;53;Mannelijk;Rechts;3;83;left;no;200;leftarrow;452;true;focus;yes;673023;Chrome;109.0;Windows;10;undefined;undefined;1920 x 1080;1920 x 1080
S004;53;Mannelijk;Rechts;3;84;left;no;200;leftarrow;377;true;focus;yes;674192;Chrome;109.0;Windows;10;undefined;undefined;1920 x 1080;1920 x 1080
S004;53;Mannelijk;Rechts;3;85;right;yes;200;undefined;null;true;focus;yes;676236;Chrome;109.0;Windows;10;undefined;undefined;1920 x 1080;1920 x 1080
S004;53;Mannelijk;Rechts;3;86;right;no;250;rightarrow;507;true;focus;yes;677522;Chrome;109.0;Windows;10;undefined;undefined;1920 x 1080;1920 x 1080
S004;53;Mannelijk;Rechts;3;87;left;yes;250;undefined;null;true;focus;yes;679544;Chrome;109.0;Windows;10;undefined;undefined;1920 x 1080;1920 x 1080
S004;53;Mannelijk;Rechts;3;88;right;no;300;rightarrow;906;true;focus;yes;681225;Chrome;109.0;Windows;10;undefined;undefined;1920 x 1080;1920 x 1080
S004;53;Mannelijk;Rechts;3;89;left;yes;300;leftarrow;502;false;focus;yes;682511;Chrome;109.0;Windows;10;undefined;undefined;1920 x 1080;1920 x 1080
S004;53;Mannelijk;Rechts;3;90;right;yes;250;undefined;null;true;focus;yes;684544;Chrome;109.0;Windows;10;undefined;undefined;1920 x 1080;1920 x 1080
S004;53;Mannelijk;Rechts;3;91;right;no;300;rightarrow;561;true;focus;yes;685880;Chrome;109.0;Windows;10;undefined;undefined;1920 x 1080;1920 x 1080
S004;53;Mannelijk;Rechts;3;92;left;no;300;leftarrow;445;true;focus;yes;687106;Chrome;109.0;Windows;10;undefined;undefined;1920 x 1080;1920 x 1080
S004;53;Mannelijk;Rechts;3;93;left;no;300;leftarrow;413;true;focus;yes;688298;Chrome;109.0;Windows;10;undefined;undefined;1920 x 1080;1920 x 1080
S004;53;Mannelijk;Rechts;3;94;left;no;300;leftarrow;406;true;focus;yes;689468;Chrome;109.0;Windows;10;undefined;undefined;1920 x 1080;1920 x 1080
S004;53;Mannelijk;Rechts;3;95;right;no;300;rightarrow;449;true;focus;yes;690693;Chrome;109.0;Windows;10;undefined;undefined;1920 x 1080;1920 x 1080
S004;53;Mannelijk;Rechts;3;96;right;no;300;rightarrow;609;true;focus;yes;692073;Chrome;109.0;Windows;10;undefined;undefined;1920 x 1080;1920 x 1080
S004;53;Mannelijk;Rechts;3;97;left;yes;300;leftarrow;443;false;focus;yes;693285;Chrome;109.0;Windows;10;undefined;undefined;1920 x 1080;1920 x 1080
S004;53;Mannelijk;Rechts;3;98;left;no;250;leftarrow;885;true;focus;yes;694944;Chrome;109.0;Windows;10;undefined;undefined;1920 x 1080;1920 x 1080
S004;53;Mannelijk;Rechts;3;99;right;no;250;rightarrow;468;true;focus;yes;696209;Chrome;109.0;Windows;10;undefined;undefined;1920 x 1080;1920 x 1080
S004;53;Mannelijk;Rechts;3;100;right;no;250;rightarrow;529;true;focus;yes;697523;Chrome;109.0;Windows;10;undefined;undefined;1920 x 1080;1920 x 1080
S004;53;Mannelijk;Rechts;3;101;right;yes;250;rightarrow;409;false;focus;yes;698717;Chrome;109.0;Windows;10;undefined;undefined;1920 x 1080;1920 x 1080
S004;53;Mannelijk;Rechts;3;105;right;no;200;rightarrow;408;true;focus;yes;703734;Chrome;109.0;Windows;10;undefined;undefined;1920 x 1080;1920 x 1080
S004;53;Mannelijk;Rechts;3;104;right;no;200;rightarrow;547;true;focus;yes;702537;Chrome;109.0;Windows;10;undefined;undefined;1920 x 1080;1920 x 1080
S004;53;Mannelijk;Rechts;3;102;left;no;200;leftarrow;423;true;focus;yes;699910;Chrome;109.0;Windows;10;undefined;undefined;1920 x 1080;1920 x 1080
S004;53;Mannelijk;Rechts;3;106;left;no;200;leftarrow;561;true;focus;yes;705066;Chrome;109.0;Windows;10;undefined;undefined;1920 x 1080;1920 x 1080
S004;53;Mannelijk;Rechts;3;103;left;no;200;leftarrow;528;true;focus;yes;701207;Chrome;109.0;Windows;10;undefined;undefined;1920 x 1080;1920 x 1080
S004;53;Mannelijk;Rechts;3;107;right;no;200;rightarrow;522;true;focus;yes;706372;Chrome;109.0;Windows;10;undefined;undefined;1920 x 1080;1920 x 1080
S004;53;Mannelijk;Rechts;3;108;right;no;200;rightarrow;398;true;focus;yes;707536;Chrome;109.0;Windows;10;undefined;undefined;1920 x 1080;1920 x 1080
S004;53;Mannelijk;Rechts;3;109;left;yes;200;undefined;null;true;focus;yes;709584;Chrome;109.0;Windows;10;undefined;undefined;1920 x 1080;1920 x 1080
S004;53;Mannelijk;Rechts;3;110;left;no;250;leftarrow;473;true;focus;yes;710828;Chrome;109.0;Windows;10;undefined;undefined;1920 x 1080;1920 x 1080
S004;53;Mannelijk;Rechts;3;111;right;yes;250;rightarrow;456;false;focus;yes;712058;Chrome;109.0;Windows;10;undefined;undefined;1920 x 1080;1920 x 1080
S004;53;Mannelijk;Rechts;3;112;left;no;200;leftarrow;438;true;focus;yes;713263;Chrome;109.0;Windows;10;undefined;undefined;1920 x 1080;1920 x 1080
S004;53;Mannelijk;Rechts;3;113;left;no;200;leftarrow;482;true;focus;yes;714535;Chrome;109.0;Windows;10;undefined;undefined;1920 x 1080;1920 x 1080
S004;53;Mannelijk;Rechts;3;114;right;yes;200;undefined;null;true;focus;yes;716586;Chrome;109.0;Windows;10;undefined;undefined;1920 x 1080;1920 x 1080
S004;53;Mannelijk;Rechts;3;115;left;yes;250;leftarrow;411;false;focus;yes;717778;Chrome;109.0;Windows;10;undefined;undefined;1920 x 1080;1920 x 1080
S004;53;Mannelijk;Rechts;3;116;right;no;200;rightarrow;601;true;focus;yes;719147;Chrome;109.0;Windows;10;undefined;undefined;1920 x 1080;1920 x 1080
S004;53;Mannelijk;Rechts;3;117;right;no;200;rightarrow;475;true;focus;yes;720393;Chrome;109.0;Windows;10;undefined;undefined;1920 x 1080;1920 x 1080
S004;53;Mannelijk;Rechts;3;118;right;no;200;rightarrow;417;true;focus;yes;721585;Chrome;109.0;Windows;10;undefined;undefined;1920 x 1080;1920 x 1080
S004;53;Mannelijk;Rechts;3;119;left;no;200;leftarrow;400;true;focus;yes;722758;Chrome;109.0;Windows;10;undefined;undefined;1920 x 1080;1920 x 1080
S004;53;Mannelijk;Rechts;3;120;left;no;200;leftarrow;409;true;focus;yes;723962;Chrome;109.0;Windows;10;undefined;undefined;1920 x 1080;1920 x 1080
S004;53;Mannelijk;Rechts;3;121;right;no;200;rightarrow;550;true;focus;yes;725278;Chrome;109.0;Windows;10;undefined;undefined;1920 x 1080;1920 x 1080
S004;53;Mannelijk;Rechts;3;122;right;yes;200;undefined;null;true;focus;yes;727295;Chrome;109.0;Windows;10;undefined;undefined;1920 x 1080;1920 x 1080
S004;53;Mannelijk;Rechts;3;123;left;no;250;leftarrow;437;true;focus;yes;728504;Chrome;109.0;Windows;10;undefined;undefined;1920 x 1080;1920 x 1080
S004;53;Mannelijk;Rechts;3;124;left;yes;250;leftarrow;417;false;focus;yes;729704;Chrome;109.0;Windows;10;undefined;undefined;1920 x 1080;1920 x 1080
S004;53;Mannelijk;Rechts;3;125;left;no;200;leftarrow;682;true;focus;yes;731149;Chrome;109.0;Windows;10;undefined;undefined;1920 x 1080;1920 x 1080
S004;53;Mannelijk;Rechts;3;126;right;no;200;rightarrow;438;true;focus;yes;732374;Chrome;109.0;Windows;10;undefined;undefined;1920 x 1080;1920 x 1080
S004;53;Mannelijk;Rechts;3;127;right;no;200;rightarrow;537;true;focus;yes;733688;Chrome;109.0;Windows;10;undefined;undefined;1920 x 1080;1920 x 1080
S004;53;Mannelijk;Rechts;3;128;left;no;200;leftarrow;577;true;focus;yes;735038;Chrome;109.0;Windows;10;undefined;undefined;1920 x 1080;1920 x 1080
S004;53;Mannelijk;Rechts;4;1;right;no;200;rightarrow;897;true;focus;yes;755324;Chrome;109.0;Windows;10;undefined;undefined;1920 x 1080;1920 x 1080
S004;53;Mannelijk;Rechts;4;2;left;no;200;leftarrow;448;true;focus;yes;756555;Chrome;109.0;Windows;10;undefined;undefined;1920 x 1080;1920 x 1080
S004;53;Mannelijk;Rechts;4;3;left;no;200;leftarrow;432;true;focus;yes;757779;Chrome;109.0;Windows;10;undefined;undefined;1920 x 1080;1920 x 1080
S004;53;Mannelijk;Rechts;4;4;right;no;200;rightarrow;428;true;focus;yes;759004;Chrome;109.0;Windows;10;undefined;undefined;1920 x 1080;1920 x 1080
S004;53;Mannelijk;Rechts;4;5;left;no;200;leftarrow;430;true;focus;yes;760219;Chrome;109.0;Windows;10;undefined;undefined;1920 x 1080;1920 x 1080
S004;53;Mannelijk;Rechts;4;6;right;yes;200;rightarrow;310;false;focus;yes;761323;Chrome;109.0;Windows;10;undefined;undefined;1920 x 1080;1920 x 1080
S004;53;Mannelijk;Rechts;4;7;left;yes;150;leftarrow;331;false;focus;yes;762428;Chrome;109.0;Windows;10;undefined;undefined;1920 x 1080;1920 x 1080
S004;53;Mannelijk;Rechts;4;8;right;no;100;rightarrow;563;true;focus;yes;763756;Chrome;109.0;Windows;10;undefined;undefined;1920 x 1080;1920 x 1080
S004;53;Mannelijk;Rechts;4;9;left;no;100;leftarrow;405;true;focus;yes;764948;Chrome;109.0;Windows;10;undefined;undefined;1920 x 1080;1920 x 1080
S004;53;Mannelijk;Rechts;4;10;right;no;100;rightarrow;470;true;focus;yes;766204;Chrome;109.0;Windows;10;undefined;undefined;1920 x 1080;1920 x 1080
S004;53;Mannelijk;Rechts;4;11;left;no;100;leftarrow;441;true;focus;yes;767447;Chrome;109.0;Windows;10;undefined;undefined;1920 x 1080;1920 x 1080
S004;53;Mannelijk;Rechts;4;12;right;no;100;rightarrow;512;true;focus;yes;768737;Chrome;109.0;Windows;10;undefined;undefined;1920 x 1080;1920 x 1080
S004;53;Mannelijk;Rechts;4;13;right;yes;100;undefined;null;true;focus;yes;770794;Chrome;109.0;Windows;10;undefined;undefined;1920 x 1080;1920 x 1080
S004;53;Mannelijk;Rechts;4;14;left;no;150;leftarrow;364;true;focus;yes;771929;Chrome;109.0;Windows;10;undefined;undefined;1920 x 1080;1920 x 1080
S004;53;Mannelijk;Rechts;4;15;left;yes;150;undefined;null;true;focus;yes;773993;Chrome;109.0;Windows;10;undefined;undefined;1920 x 1080;1920 x 1080
S004;53;Mannelijk;Rechts;4;16;right;no;200;rightarrow;414;true;focus;yes;775206;Chrome;109.0;Windows;10;undefined;undefined;1920 x 1080;1920 x 1080
S004;53;Mannelijk;Rechts;4;17;left;no;200;leftarrow;376;true;focus;yes;776354;Chrome;109.0;Windows;10;undefined;undefined;1920 x 1080;1920 x 1080
S004;53;Mannelijk;Rechts;4;18;left;no;200;leftarrow;430;true;focus;yes;777551;Chrome;109.0;Windows;10;undefined;undefined;1920 x 1080;1920 x 1080
S004;53;Mannelijk;Rechts;4;19;right;no;200;rightarrow;418;true;focus;yes;778753;Chrome;109.0;Windows;10;undefined;undefined;1920 x 1080;1920 x 1080
S004;53;Mannelijk;Rechts;4;20;right;no;200;rightarrow;477;true;focus;yes;780005;Chrome;109.0;Windows;10;undefined;undefined;1920 x 1080;1920 x 1080
S004;53;Mannelijk;Rechts;4;21;right;no;200;rightarrow;434;true;focus;yes;781216;Chrome;109.0;Windows;10;undefined;undefined;1920 x 1080;1920 x 1080
S004;53;Mannelijk;Rechts;4;22;left;yes;200;undefined;null;true;focus;yes;783252;Chrome;109.0;Windows;10;undefined;undefined;1920 x 1080;1920 x 1080
S004;53;Mannelijk;Rechts;4;23;left;no;250;leftarrow;511;true;focus;yes;784556;Chrome;109.0;Windows;10;undefined;undefined;1920 x 1080;1920 x 1080
S004;53;Mannelijk;Rechts;4;24;right;yes;250;undefined;null;true;focus;yes;786577;Chrome;109.0;Windows;10;undefined;undefined;1920 x 1080;1920 x 1080
S004;53;Mannelijk;Rechts;4;25;right;no;300;rightarrow;518;true;focus;yes;787879;Chrome;109.0;Windows;10;undefined;undefined;1920 x 1080;1920 x 1080
S004;53;Mannelijk;Rechts;4;26;right;no;300;rightarrow;520;true;focus;yes;789184;Chrome;109.0;Windows;10;undefined;undefined;1920 x 1080;1920 x 1080
S004;53;Mannelijk;Rechts;4;27;left;no;300;leftarrow;592;true;focus;yes;790554;Chrome;109.0;Windows;10;undefined;undefined;1920 x 1080;1920 x 1080
S004;53;Mannelijk;Rechts;4;28;left;no;300;leftarrow;463;true;focus;yes;791791;Chrome;109.0;Windows;10;undefined;undefined;1920 x 1080;1920 x 1080
S004;53;Mannelijk;Rechts;4;29;right;no;300;rightarrow;512;true;focus;yes;793088;Chrome;109.0;Windows;10;undefined;undefined;1920 x 1080;1920 x 1080
S004;53;Mannelijk;Rechts;4;30;left;no;300;leftarrow;382;true;focus;yes;794251;Chrome;109.0;Windows;10;undefined;undefined;1920 x 1080;1920 x 1080
S004;53;Mannelijk;Rechts;4;31;right;yes;300;undefined;null;true;focus;yes;796298;Chrome;109.0;Windows;10;undefined;undefined;1920 x 1080;1920 x 1080
S004;53;Mannelijk;Rechts;4;32;left;yes;350;leftarrow;477;false;focus;yes;797541;Chrome;109.0;Windows;10;undefined;undefined;1920 x 1080;1920 x 1080
S004;53;Mannelijk;Rechts;4;33;right;no;300;rightarrow;496;true;focus;yes;798803;Chrome;109.0;Windows;10;undefined;undefined;1920 x 1080;1920 x 1080
S004;53;Mannelijk;Rechts;4;34;left;no;300;leftarrow;509;true;focus;yes;800097;Chrome;109.0;Windows;10;undefined;undefined;1920 x 1080;1920 x 1080
S004;53;Mannelijk;Rechts;4;35;left;no;300;leftarrow;544;true;focus;yes;801419;Chrome;109.0;Windows;10;undefined;undefined;1920 x 1080;1920 x 1080
S004;53;Mannelijk;Rechts;4;36;left;yes;300;undefined;null;true;focus;yes;803459;Chrome;109.0;Windows;10;undefined;undefined;1920 x 1080;1920 x 1080
S004;53;Mannelijk;Rechts;4;37;right;no;350;rightarrow;367;true;focus;yes;804605;Chrome;109.0;Windows;10;undefined;undefined;1920 x 1080;1920 x 1080
S004;53;Mannelijk;Rechts;4;38;right;yes;350;undefined;null;true;focus;yes;806657;Chrome;109.0;Windows;10;undefined;undefined;1920 x 1080;1920 x 1080
S004;53;Mannelijk;Rechts;4;39;right;no;400;rightarrow;481;true;focus;yes;807918;Chrome;109.0;Windows;10;undefined;undefined;1920 x 1080;1920 x 1080
S004;53;Mannelijk;Rechts;4;40;left;no;400;leftarrow;789;true;focus;yes;809494;Chrome;109.0;Windows;10;undefined;undefined;1920 x 1080;1920 x 1080
S004;53;Mannelijk;Rechts;4;41;right;no;400;rightarrow;519;true;focus;yes;810798;Chrome;109.0;Windows;10;undefined;undefined;1920 x 1080;1920 x 1080
S004;53;Mannelijk;Rechts;4;42;right;yes;400;rightarrow;612;false;focus;yes;812179;Chrome;109.0;Windows;10;undefined;undefined;1920 x 1080;1920 x 1080
S004;53;Mannelijk;Rechts;4;43;right;no;350;rightarrow;952;true;focus;yes;813895;Chrome;109.0;Windows;10;undefined;undefined;1920 x 1080;1920 x 1080
S004;53;Mannelijk;Rechts;4;44;right;no;350;rightarrow;418;true;focus;yes;815079;Chrome;109.0;Windows;10;undefined;undefined;1920 x 1080;1920 x 1080
S004;53;Mannelijk;Rechts;4;45;left;no;350;leftarrow;455;true;focus;yes;816307;Chrome;109.0;Windows;10;undefined;undefined;1920 x 1080;1920 x 1080
S004;53;Mannelijk;Rechts;4;46;left;no;350;leftarrow;651;true;focus;yes;817750;Chrome;109.0;Windows;10;undefined;undefined;1920 x 1080;1920 x 1080
S004;53;Mannelijk;Rechts;4;47;left;no;350;leftarrow;509;true;focus;yes;819042;Chrome;109.0;Windows;10;undefined;undefined;1920 x 1080;1920 x 1080
S004;53;Mannelijk;Rechts;4;48;left;yes;350;undefined;null;true;focus;yes;821062;Chrome;109.0;Windows;10;undefined;undefined;1920 x 1080;1920 x 1080
S004;53;Mannelijk;Rechts;4;49;right;yes;400;rightarrow;533;false;focus;yes;822397;Chrome;109.0;Windows;10;undefined;undefined;1920 x 1080;1920 x 1080
S004;53;Mannelijk;Rechts;4;50;left;no;350;leftarrow;450;true;focus;yes;823648;Chrome;109.0;Windows;10;undefined;undefined;1920 x 1080;1920 x 1080
S004;53;Mannelijk;Rechts;4;51;right;no;350;rightarrow;460;true;focus;yes;824891;Chrome;109.0;Windows;10;undefined;undefined;1920 x 1080;1920 x 1080
S004;53;Mannelijk;Rechts;4;52;left;yes;350;undefined;null;true;focus;yes;826910;Chrome;109.0;Windows;10;undefined;undefined;1920 x 1080;1920 x 1080
S004;53;Mannelijk;Rechts;4;53;left;no;400;leftarrow;775;true;focus;yes;828470;Chrome;109.0;Windows;10;undefined;undefined;1920 x 1080;1920 x 1080
S004;53;Mannelijk;Rechts;4;54;left;no;400;leftarrow;440;true;focus;yes;829695;Chrome;109.0;Windows;10;undefined;undefined;1920 x 1080;1920 x 1080
S004;53;Mannelijk;Rechts;4;55;right;no;400;rightarrow;408;true;focus;yes;830892;Chrome;109.0;Windows;10;undefined;undefined;1920 x 1080;1920 x 1080
S004;53;Mannelijk;Rechts;4;56;right;no;400;rightarrow;420;true;focus;yes;832098;Chrome;109.0;Windows;10;undefined;undefined;1920 x 1080;1920 x 1080
S004;53;Mannelijk;Rechts;4;57;left;no;400;leftarrow;398;true;focus;yes;833277;Chrome;109.0;Windows;10;undefined;undefined;1920 x 1080;1920 x 1080
S004;53;Mannelijk;Rechts;4;58;right;no;400;rightarrow;492;true;focus;yes;834552;Chrome;109.0;Windows;10;undefined;undefined;1920 x 1080;1920 x 1080
S004;53;Mannelijk;Rechts;4;59;left;no;400;leftarrow;418;true;focus;yes;835746;Chrome;109.0;Windows;10;undefined;undefined;1920 x 1080;1920 x 1080
S004;53;Mannelijk;Rechts;4;60;right;no;400;rightarrow;360;true;focus;yes;836887;Chrome;109.0;Windows;10;undefined;undefined;1920 x 1080;1920 x 1080
S004;53;Mannelijk;Rechts;4;61;left;yes;400;undefined;null;true;focus;yes;838916;Chrome;109.0;Windows;10;undefined;undefined;1920 x 1080;1920 x 1080
S004;53;Mannelijk;Rechts;4;62;left;no;450;leftarrow;477;true;focus;yes;840173;Chrome;109.0;Windows;10;undefined;undefined;1920 x 1080;1920 x 1080
S004;53;Mannelijk;Rechts;4;63;right;no;450;rightarrow;454;true;focus;yes;841411;Chrome;109.0;Windows;10;undefined;undefined;1920 x 1080;1920 x 1080
S004;53;Mannelijk;Rechts;4;64;right;yes;450;rightarrow;441;false;focus;yes;842636;Chrome;109.0;Windows;10;undefined;undefined;1920 x 1080;1920 x 1080
S004;53;Mannelijk;Rechts;4;65;left;no;400;leftarrow;472;true;focus;yes;843881;Chrome;109.0;Windows;10;undefined;undefined;1920 x 1080;1920 x 1080
S004;53;Mannelijk;Rechts;4;66;left;no;400;leftarrow;570;true;focus;yes;845226;Chrome;109.0;Windows;10;undefined;undefined;1920 x 1080;1920 x 1080
S004;53;Mannelijk;Rechts;4;67;right;yes;400;rightarrow;505;false;focus;yes;846498;Chrome;109.0;Windows;10;undefined;undefined;1920 x 1080;1920 x 1080
S004;53;Mannelijk;Rechts;4;68;left;no;350;leftarrow;365;true;focus;yes;847630;Chrome;109.0;Windows;10;undefined;undefined;1920 x 1080;1920 x 1080
S004;53;Mannelijk;Rechts;4;69;right;no;350;rightarrow;531;true;focus;yes;848950;Chrome;109.0;Windows;10;undefined;undefined;1920 x 1080;1920 x 1080
S004;53;Mannelijk;Rechts;4;70;right;no;350;rightarrow;552;true;focus;yes;850290;Chrome;109.0;Windows;10;undefined;undefined;1920 x 1080;1920 x 1080
S004;53;Mannelijk;Rechts;4;71;left;yes;350;leftarrow;498;false;focus;yes;851566;Chrome;109.0;Windows;10;undefined;undefined;1920 x 1080;1920 x 1080
S004;53;Mannelijk;Rechts;4;72;right;no;300;rightarrow;668;true;focus;yes;853024;Chrome;109.0;Windows;10;undefined;undefined;1920 x 1080;1920 x 1080
S004;53;Mannelijk;Rechts;4;73;left;yes;300;undefined;null;true;focus;yes;855064;Chrome;109.0;Windows;10;undefined;undefined;1920 x 1080;1920 x 1080
S004;53;Mannelijk;Rechts;4;74;left;no;350;leftarrow;377;true;focus;yes;856226;Chrome;109.0;Windows;10;undefined;undefined;1920 x 1080;1920 x 1080
S004;53;Mannelijk;Rechts;4;75;right;no;350;rightarrow;476;true;focus;yes;857468;Chrome;109.0;Windows;10;undefined;undefined;1920 x 1080;1920 x 1080
S004;53;Mannelijk;Rechts;4;76;left;no;350;leftarrow;426;true;focus;yes;858663;Chrome;109.0;Windows;10;undefined;undefined;1920 x 1080;1920 x 1080
S004;53;Mannelijk;Rechts;4;77;left;no;350;leftarrow;375;true;focus;yes;859831;Chrome;109.0;Windows;10;undefined;undefined;1920 x 1080;1920 x 1080
S004;53;Mannelijk;Rechts;4;78;right;no;350;rightarrow;473;true;focus;yes;861088;Chrome;109.0;Windows;10;undefined;undefined;1920 x 1080;1920 x 1080
S004;53;Mannelijk;Rechts;4;79;right;no;350;rightarrow;678;true;focus;yes;862564;Chrome;109.0;Windows;10;undefined;undefined;1920 x 1080;1920 x 1080
S004;53;Mannelijk;Rechts;4;80;right;yes;350;undefined;null;true;focus;yes;864594;Chrome;109.0;Windows;10;undefined;undefined;1920 x 1080;1920 x 1080
S004;53;Mannelijk;Rechts;4;81;right;no;400;rightarrow;520;true;focus;yes;865901;Chrome;109.0;Windows;10;undefined;undefined;1920 x 1080;1920 x 1080
S004;53;Mannelijk;Rechts;4;82;right;no;400;rightarrow;708;true;focus;yes;867376;Chrome;109.0;Windows;10;undefined;undefined;1920 x 1080;1920 x 1080
S004;53;Mannelijk;Rechts;4;83;left;no;400;leftarrow;726;true;focus;yes;868896;Chrome;109.0;Windows;10;undefined;undefined;1920 x 1080;1920 x 1080
S004;53;Mannelijk;Rechts;4;84;right;yes;400;rightarrow;513;false;focus;yes;870191;Chrome;109.0;Windows;10;undefined;undefined;1920 x 1080;1920 x 1080
S004;53;Mannelijk;Rechts;4;85;left;yes;350;leftarrow;327;false;focus;yes;871294;Chrome;109.0;Windows;10;undefined;undefined;1920 x 1080;1920 x 1080
S004;53;Mannelijk;Rechts;4;86;left;no;300;leftarrow;522;true;focus;yes;872587;Chrome;109.0;Windows;10;undefined;undefined;1920 x 1080;1920 x 1080
S004;53;Mannelijk;Rechts;4;87;left;no;300;leftarrow;489;true;focus;yes;873845;Chrome;109.0;Windows;10;undefined;undefined;1920 x 1080;1920 x 1080
S004;53;Mannelijk;Rechts;4;88;right;no;300;rightarrow;800;true;focus;yes;875415;Chrome;109.0;Windows;10;undefined;undefined;1920 x 1080;1920 x 1080
S004;53;Mannelijk;Rechts;4;89;left;no;300;leftarrow;701;true;focus;yes;876883;Chrome;109.0;Windows;10;undefined;undefined;1920 x 1080;1920 x 1080
S004;53;Mannelijk;Rechts;4;90;left;no;300;leftarrow;628;true;focus;yes;878282;Chrome;109.0;Windows;10;undefined;undefined;1920 x 1080;1920 x 1080
S004;53;Mannelijk;Rechts;4;91;right;no;300;rightarrow;402;true;focus;yes;879467;Chrome;109.0;Windows;10;undefined;undefined;1920 x 1080;1920 x 1080
S004;53;Mannelijk;Rechts;4;92;left;yes;300;undefined;null;true;focus;yes;881491;Chrome;109.0;Windows;10;undefined;undefined;1920 x 1080;1920 x 1080
S004;53;Mannelijk;Rechts;4;93;right;no;350;rightarrow;507;true;focus;yes;882801;Chrome;109.0;Windows;10;undefined;undefined;1920 x 1080;1920 x 1080
S004;53;Mannelijk;Rechts;4;94;left;no;350;leftarrow;450;true;focus;yes;884014;Chrome;109.0;Windows;10;undefined;undefined;1920 x 1080;1920 x 1080
S004;53;Mannelijk;Rechts;4;95;right;yes;350;rightarrow;363;false;focus;yes;885169;Chrome;109.0;Windows;10;undefined;undefined;1920 x 1080;1920 x 1080
S004;53;Mannelijk;Rechts;4;96;right;no;300;rightarrow;469;true;focus;yes;886411;Chrome;109.0;Windows;10;undefined;undefined;1920 x 1080;1920 x 1080
S004;53;Mannelijk;Rechts;4;97;right;yes;300;rightarrow;430;false;focus;yes;887614;Chrome;109.0;Windows;10;undefined;undefined;1920 x 1080;1920 x 1080
S004;53;Mannelijk;Rechts;4;98;right;no;250;rightarrow;457;true;focus;yes;888868;Chrome;109.0;Windows;10;undefined;undefined;1920 x 1080;1920 x 1080
S004;53;Mannelijk;Rechts;4;99;left;no;250;leftarrow;434;true;focus;yes;890071;Chrome;109.0;Windows;10;undefined;undefined;1920 x 1080;1920 x 1080
S004;53;Mannelijk;Rechts;4;100;right;no;250;rightarrow;476;true;focus;yes;891330;Chrome;109.0;Windows;10;undefined;undefined;1920 x 1080;1920 x 1080
S004;53;Mannelijk;Rechts;4;101;left;no;250;leftarrow;383;true;focus;yes;892476;Chrome;109.0;Windows;10;undefined;undefined;1920 x 1080;1920 x 1080
S004;53;Mannelijk;Rechts;4;102;left;no;250;leftarrow;613;true;focus;yes;893871;Chrome;109.0;Windows;10;undefined;undefined;1920 x 1080;1920 x 1080
S004;53;Mannelijk;Rechts;4;103;left;yes;250;leftarrow;469;false;focus;yes;895115;Chrome;109.0;Windows;10;undefined;undefined;1920 x 1080;1920 x 1080
S004;53;Mannelijk;Rechts;4;104;right;no;200;rightarrow;720;true;focus;yes;896611;Chrome;109.0;Windows;10;undefined;undefined;1920 x 1080;1920 x 1080
S004;53;Mannelijk;Rechts;4;105;right;no;200;rightarrow;327;true;focus;yes;897719;Chrome;109.0;Windows;10;undefined;undefined;1920 x 1080;1920 x 1080
S004;53;Mannelijk;Rechts;4;106;left;yes;200;undefined;null;true;focus;yes;899754;Chrome;109.0;Windows;10;undefined;undefined;1920 x 1080;1920 x 1080
S004;53;Mannelijk;Rechts;4;107;right;no;250;rightarrow;404;true;focus;yes;900929;Chrome;109.0;Windows;10;undefined;undefined;1920 x 1080;1920 x 1080
S004;53;Mannelijk;Rechts;4;108;right;no;250;rightarrow;621;true;focus;yes;902329;Chrome;109.0;Windows;10;undefined;undefined;1920 x 1080;1920 x 1080
S004;53;Mannelijk;Rechts;4;109;left;no;250;leftarrow;441;true;focus;yes;903539;Chrome;109.0;Windows;10;undefined;undefined;1920 x 1080;1920 x 1080
S004;53;Mannelijk;Rechts;4;110;left;no;250;leftarrow;529;true;focus;yes;904837;Chrome;109.0;Windows;10;undefined;undefined;1920 x 1080;1920 x 1080
S004;53;Mannelijk;Rechts;4;111;right;yes;250;rightarrow;465;false;focus;yes;906084;Chrome;109.0;Windows;10;undefined;undefined;1920 x 1080;1920 x 1080
S004;53;Mannelijk;Rechts;4;112;left;no;200;leftarrow;444;true;focus;yes;907302;Chrome;109.0;Windows;10;undefined;undefined;1920 x 1080;1920 x 1080
S004;53;Mannelijk;Rechts;4;113;left;no;200;leftarrow;518;true;focus;yes;908591;Chrome;109.0;Windows;10;undefined;undefined;1920 x 1080;1920 x 1080
S004;53;Mannelijk;Rechts;4;114;right;no;200;rightarrow;470;true;focus;yes;909838;Chrome;109.0;Windows;10;undefined;undefined;1920 x 1080;1920 x 1080
S004;53;Mannelijk;Rechts;4;115;left;no;200;leftarrow;478;true;focus;yes;911118;Chrome;109.0;Windows;10;undefined;undefined;1920 x 1080;1920 x 1080
S004;53;Mannelijk;Rechts;4;116;right;no;200;rightarrow;456;true;focus;yes;912363;Chrome;109.0;Windows;10;undefined;undefined;1920 x 1080;1920 x 1080
S004;53;Mannelijk;Rechts;4;117;right;yes;200;undefined;null;true;focus;yes;914382;Chrome;109.0;Windows;10;undefined;undefined;1920 x 1080;1920 x 1080
S004;53;Mannelijk;Rechts;4;118;left;no;250;leftarrow;429;true;focus;yes;915580;Chrome;109.0;Windows;10;undefined;undefined;1920 x 1080;1920 x 1080
S004;53;Mannelijk;Rechts;4;119;right;no;250;rightarrow;661;true;focus;yes;917035;Chrome;109.0;Windows;10;undefined;undefined;1920 x 1080;1920 x 1080
S004;53;Mannelijk;Rechts;4;120;left;yes;250;undefined;null;true;focus;yes;919082;Chrome;109.0;Windows;10;undefined;undefined;1920 x 1080;1920 x 1080
S004;53;Mannelijk;Rechts;4;121;left;no;300;leftarrow;673;true;focus;yes;920532;Chrome;109.0;Windows;10;undefined;undefined;1920 x 1080;1920 x 1080
S004;53;Mannelijk;Rechts;4;122;right;no;300;rightarrow;592;true;focus;yes;921894;Chrome;109.0;Windows;10;undefined;undefined;1920 x 1080;1920 x 1080
S004;53;Mannelijk;Rechts;4;123;right;no;300;rightarrow;554;true;focus;yes;923213;Chrome;109.0;Windows;10;undefined;undefined;1920 x 1080;1920 x 1080
S004;53;Mannelijk;Rechts;4;124;left;no;300;leftarrow;383;true;focus;yes;924368;Chrome;109.0;Windows;10;undefined;undefined;1920 x 1080;1920 x 1080
S004;53;Mannelijk;Rechts;4;125;left;no;300;leftarrow;364;true;focus;yes;925513;Chrome;109.0;Windows;10;undefined;undefined;1920 x 1080;1920 x 1080
S004;53;Mannelijk;Rechts;4;126;left;yes;300;leftarrow;448;false;focus;yes;926744;Chrome;109.0;Windows;10;undefined;undefined;1920 x 1080;1920 x 1080
S004;53;Mannelijk;Rechts;4;127;right;no;250;rightarrow;357;true;focus;yes;927893;Chrome;109.0;Windows;10;undefined;undefined;1920 x 1080;1920 x 1080
S004;53;Mannelijk;Rechts;4;128;right;yes;250;rightarrow;392;false;focus;yes;929060;Chrome;109.0;Windows;10;undefined;undefined;1920 x 1080;1920 x 1080
S004;53;Mannelijk;Rechts;5;1;right;no;200;rightarrow;512;true;focus;yes;950041;Chrome;109.0;Windows;10;undefined;undefined;1920 x 1080;1920 x 1080
S004;53;Mannelijk;Rechts;5;2;left;yes;200;undefined;null;true;focus;yes;952097;Chrome;109.0;Windows;10;undefined;undefined;1920 x 1080;1920 x 1080
S004;53;Mannelijk;Rechts;5;3;right;no;250;rightarrow;343;true;focus;yes;953223;Chrome;109.0;Windows;10;undefined;undefined;1920 x 1080;1920 x 1080
S004;53;Mannelijk;Rechts;5;4;left;no;250;leftarrow;491;true;focus;yes;954501;Chrome;109.0;Windows;10;undefined;undefined;1920 x 1080;1920 x 1080
S004;53;Mannelijk;Rechts;5;5;left;no;250;leftarrow;560;true;focus;yes;955835;Chrome;109.0;Windows;10;undefined;undefined;1920 x 1080;1920 x 1080
S004;53;Mannelijk;Rechts;5;6;left;no;250;leftarrow;504;true;focus;yes;957132;Chrome;109.0;Windows;10;undefined;undefined;1920 x 1080;1920 x 1080
S004;53;Mannelijk;Rechts;5;7;right;no;250;rightarrow;453;true;focus;yes;958360;Chrome;109.0;Windows;10;undefined;undefined;1920 x 1080;1920 x 1080
S004;53;Mannelijk;Rechts;5;8;right;yes;250;undefined;null;true;focus;yes;960404;Chrome;109.0;Windows;10;undefined;undefined;1920 x 1080;1920 x 1080
S004;53;Mannelijk;Rechts;5;9;right;no;300;rightarrow;500;true;focus;yes;961703;Chrome;109.0;Windows;10;undefined;undefined;1920 x 1080;1920 x 1080
S004;53;Mannelijk;Rechts;5;10;right;yes;300;undefined;null;true;focus;yes;963741;Chrome;109.0;Windows;10;undefined;undefined;1920 x 1080;1920 x 1080
S004;53;Mannelijk;Rechts;5;11;right;no;350;rightarrow;454;true;focus;yes;964982;Chrome;109.0;Windows;10;undefined;undefined;1920 x 1080;1920 x 1080
S004;53;Mannelijk;Rechts;5;12;left;no;350;leftarrow;598;true;focus;yes;966350;Chrome;109.0;Windows;10;undefined;undefined;1920 x 1080;1920 x 1080
S004;53;Mannelijk;Rechts;5;13;left;no;350;leftarrow;454;true;focus;yes;967581;Chrome;109.0;Windows;10;undefined;undefined;1920 x 1080;1920 x 1080
S004;53;Mannelijk;Rechts;5;14;right;no;350;rightarrow;494;true;focus;yes;968860;Chrome;109.0;Windows;10;undefined;undefined;1920 x 1080;1920 x 1080
S004;53;Mannelijk;Rechts;5;15;left;yes;350;leftarrow;452;false;focus;yes;970085;Chrome;109.0;Windows;10;undefined;undefined;1920 x 1080;1920 x 1080
S004;53;Mannelijk;Rechts;5;16;left;no;300;leftarrow;636;true;focus;yes;971495;Chrome;109.0;Windows;10;undefined;undefined;1920 x 1080;1920 x 1080
S004;53;Mannelijk;Rechts;5;17;left;yes;300;leftarrow;500;false;focus;yes;972782;Chrome;109.0;Windows;10;undefined;undefined;1920 x 1080;1920 x 1080
S004;53;Mannelijk;Rechts;5;18;right;yes;250;undefined;null;true;focus;yes;974839;Chrome;109.0;Windows;10;undefined;undefined;1920 x 1080;1920 x 1080
S004;53;Mannelijk;Rechts;5;19;right;no;300;rightarrow;484;true;focus;yes;976109;Chrome;109.0;Windows;10;undefined;undefined;1920 x 1080;1920 x 1080
S004;53;Mannelijk;Rechts;5;20;right;no;300;rightarrow;795;true;focus;yes;977692;Chrome;109.0;Windows;10;undefined;undefined;1920 x 1080;1920 x 1080
S004;53;Mannelijk;Rechts;5;21;left;no;300;leftarrow;412;true;focus;yes;978876;Chrome;109.0;Windows;10;undefined;undefined;1920 x 1080;1920 x 1080
S004;53;Mannelijk;Rechts;5;22;left;no;300;leftarrow;512;true;focus;yes;980158;Chrome;109.0;Windows;10;undefined;undefined;1920 x 1080;1920 x 1080
S004;53;Mannelijk;Rechts;5;23;left;no;300;leftarrow;408;true;focus;yes;981362;Chrome;109.0;Windows;10;undefined;undefined;1920 x 1080;1920 x 1080
S004;53;Mannelijk;Rechts;5;24;right;no;300;rightarrow;488;true;focus;yes;982618;Chrome;109.0;Windows;10;undefined;undefined;1920 x 1080;1920 x 1080
S004;53;Mannelijk;Rechts;5;25;left;no;300;leftarrow;377;true;focus;yes;983772;Chrome;109.0;Windows;10;undefined;undefined;1920 x 1080;1920 x 1080
S004;53;Mannelijk;Rechts;5;26;right;no;300;rightarrow;465;true;focus;yes;985002;Chrome;109.0;Windows;10;undefined;undefined;1920 x 1080;1920 x 1080
S004;53;Mannelijk;Rechts;5;27;right;no;300;rightarrow;397;true;focus;yes;986163;Chrome;109.0;Windows;10;undefined;undefined;1920 x 1080;1920 x 1080
S004;53;Mannelijk;Rechts;5;28;left;no;300;leftarrow;546;true;focus;yes;987506;Chrome;109.0;Windows;10;undefined;undefined;1920 x 1080;1920 x 1080
S004;53;Mannelijk;Rechts;5;29;left;yes;300;leftarrow;471;false;focus;yes;988762;Chrome;109.0;Windows;10;undefined;undefined;1920 x 1080;1920 x 1080
S004;53;Mannelijk;Rechts;5;30;right;no;250;rightarrow;383;true;focus;yes;989928;Chrome;109.0;Windows;10;undefined;undefined;1920 x 1080;1920 x 1080
S004;53;Mannelijk;Rechts;5;31;left;no;250;leftarrow;549;true;focus;yes;991273;Chrome;109.0;Windows;10;undefined;undefined;1920 x 1080;1920 x 1080
S004;53;Mannelijk;Rechts;5;32;right;yes;250;undefined;null;true;focus;yes;993337;Chrome;109.0;Windows;10;undefined;undefined;1920 x 1080;1920 x 1080
S004;53;Mannelijk;Rechts;5;33;right;no;300;rightarrow;728;true;focus;yes;994850;Chrome;109.0;Windows;10;undefined;undefined;1920 x 1080;1920 x 1080
S004;53;Mannelijk;Rechts;5;34;left;no;300;leftarrow;497;true;focus;yes;996121;Chrome;109.0;Windows;10;undefined;undefined;1920 x 1080;1920 x 1080
S004;53;Mannelijk;Rechts;5;35;left;no;300;leftarrow;697;true;focus;yes;997608;Chrome;109.0;Windows;10;undefined;undefined;1920 x 1080;1920 x 1080
S004;53;Mannelijk;Rechts;5;36;left;no;300;leftarrow;561;true;focus;yes;998947;Chrome;109.0;Windows;10;undefined;undefined;1920 x 1080;1920 x 1080
S004;53;Mannelijk;Rechts;5;37;right;yes;300;undefined;null;true;focus;yes;1000986;Chrome;109.0;Windows;10;undefined;undefined;1920 x 1080;1920 x 1080
S004;53;Mannelijk;Rechts;5;38;right;no;350;rightarrow;627;true;focus;yes;1002382;Chrome;109.0;Windows;10;undefined;undefined;1920 x 1080;1920 x 1080
S004;53;Mannelijk;Rechts;5;39;left;yes;350;leftarrow;508;false;focus;yes;1003677;Chrome;109.0;Windows;10;undefined;undefined;1920 x 1080;1920 x 1080
S004;53;Mannelijk;Rechts;5;40;right;no;300;rightarrow;594;true;focus;yes;1005033;Chrome;109.0;Windows;10;undefined;undefined;1920 x 1080;1920 x 1080
S004;53;Mannelijk;Rechts;5;41;right;no;300;rightarrow;1032;true;focus;yes;1006848;Chrome;109.0;Windows;10;undefined;undefined;1920 x 1080;1920 x 1080
S004;53;Mannelijk;Rechts;5;42;right;no;300;rightarrow;702;true;focus;yes;1008324;Chrome;109.0;Windows;10;undefined;undefined;1920 x 1080;1920 x 1080
S004;53;Mannelijk;Rechts;5;43;left;no;300;leftarrow;597;true;focus;yes;1009690;Chrome;109.0;Windows;10;undefined;undefined;1920 x 1080;1920 x 1080
S004;53;Mannelijk;Rechts;5;44;right;no;300;rightarrow;520;true;focus;yes;1010990;Chrome;109.0;Windows;10;undefined;undefined;1920 x 1080;1920 x 1080
S004;53;Mannelijk;Rechts;5;45;right;yes;300;rightarrow;454;false;focus;yes;1012232;Chrome;109.0;Windows;10;undefined;undefined;1920 x 1080;1920 x 1080
S004;53;Mannelijk;Rechts;5;46;left;no;250;leftarrow;351;true;focus;yes;1013377;Chrome;109.0;Windows;10;undefined;undefined;1920 x 1080;1920 x 1080
S004;53;Mannelijk;Rechts;5;47;left;yes;250;leftarrow;410;false;focus;yes;1014577;Chrome;109.0;Windows;10;undefined;undefined;1920 x 1080;1920 x 1080
S004;53;Mannelijk;Rechts;5;48;left;no;200;leftarrow;591;true;focus;yes;1015953;Chrome;109.0;Windows;10;undefined;undefined;1920 x 1080;1920 x 1080
S004;53;Mannelijk;Rechts;5;49;right;no;200;rightarrow;635;true;focus;yes;1017369;Chrome;109.0;Windows;10;undefined;undefined;1920 x 1080;1920 x 1080
S004;53;Mannelijk;Rechts;5;50;right;no;200;rightarrow;496;true;focus;yes;1018647;Chrome;109.0;Windows;10;undefined;undefined;1920 x 1080;1920 x 1080
S004;53;Mannelijk;Rechts;5;51;left;no;200;leftarrow;479;true;focus;yes;1019911;Chrome;109.0;Windows;10;undefined;undefined;1920 x 1080;1920 x 1080
S004;53;Mannelijk;Rechts;5;52;right;no;200;rightarrow;421;true;focus;yes;1021114;Chrome;109.0;Windows;10;undefined;undefined;1920 x 1080;1920 x 1080
S004;53;Mannelijk;Rechts;5;53;left;yes;200;undefined;null;true;focus;yes;1023153;Chrome;109.0;Windows;10;undefined;undefined;1920 x 1080;1920 x 1080
S004;53;Mannelijk;Rechts;5;54;right;yes;250;rightarrow;453;false;focus;yes;1024382;Chrome;109.0;Windows;10;undefined;undefined;1920 x 1080;1920 x 1080
S004;53;Mannelijk;Rechts;5;55;left;no;200;leftarrow;531;true;focus;yes;1025701;Chrome;109.0;Windows;10;undefined;undefined;1920 x 1080;1920 x 1080
S004;53;Mannelijk;Rechts;5;56;left;no;200;leftarrow;366;true;focus;yes;1026844;Chrome;109.0;Windows;10;undefined;undefined;1920 x 1080;1920 x 1080
S004;53;Mannelijk;Rechts;5;57;left;no;200;leftarrow;543;true;focus;yes;1028180;Chrome;109.0;Windows;10;undefined;undefined;1920 x 1080;1920 x 1080
S004;53;Mannelijk;Rechts;5;58;right;yes;200;undefined;null;true;focus;yes;1030237;Chrome;109.0;Windows;10;undefined;undefined;1920 x 1080;1920 x 1080
S004;53;Mannelijk;Rechts;5;59;right;no;250;rightarrow;528;true;focus;yes;1031544;Chrome;109.0;Windows;10;undefined;undefined;1920 x 1080;1920 x 1080
S004;53;Mannelijk;Rechts;5;60;right;no;250;rightarrow;543;true;focus;yes;1032869;Chrome;109.0;Windows;10;undefined;undefined;1920 x 1080;1920 x 1080
S004;53;Mannelijk;Rechts;5;61;left;no;250;leftarrow;446;true;focus;yes;1034109;Chrome;109.0;Windows;10;undefined;undefined;1920 x 1080;1920 x 1080
S004;53;Mannelijk;Rechts;5;62;left;yes;250;undefined;null;true;focus;yes;1036163;Chrome;109.0;Windows;10;undefined;undefined;1920 x 1080;1920 x 1080
S004;53;Mannelijk;Rechts;5;63;right;no;300;rightarrow;418;true;focus;yes;1037365;Chrome;109.0;Windows;10;undefined;undefined;1920 x 1080;1920 x 1080
S004;53;Mannelijk;Rechts;5;64;left;no;300;leftarrow;673;true;focus;yes;1038816;Chrome;109.0;Windows;10;undefined;undefined;1920 x 1080;1920 x 1080
S004;53;Mannelijk;Rechts;5;65;left;no;300;leftarrow;663;true;focus;yes;1040261;Chrome;109.0;Windows;10;undefined;undefined;1920 x 1080;1920 x 1080
S004;53;Mannelijk;Rechts;5;66;right;no;300;rightarrow;495;true;focus;yes;1041526;Chrome;109.0;Windows;10;undefined;undefined;1920 x 1080;1920 x 1080
S004;53;Mannelijk;Rechts;5;67;left;no;300;leftarrow;533;true;focus;yes;1042844;Chrome;109.0;Windows;10;undefined;undefined;1920 x 1080;1920 x 1080
S004;53;Mannelijk;Rechts;5;68;right;no;300;rightarrow;470;true;focus;yes;1044081;Chrome;109.0;Windows;10;undefined;undefined;1920 x 1080;1920 x 1080
S004;53;Mannelijk;Rechts;5;69;left;yes;300;leftarrow;500;false;focus;yes;1045361;Chrome;109.0;Windows;10;undefined;undefined;1920 x 1080;1920 x 1080
S004;53;Mannelijk;Rechts;5;70;right;no;250;rightarrow;496;true;focus;yes;1046646;Chrome;109.0;Windows;10;undefined;undefined;1920 x 1080;1920 x 1080
S004;53;Mannelijk;Rechts;5;71;left;no;250;leftarrow;358;true;focus;yes;1047800;Chrome;109.0;Windows;10;undefined;undefined;1920 x 1080;1920 x 1080
S004;53;Mannelijk;Rechts;5;72;right;yes;250;rightarrow;418;false;focus;yes;1048994;Chrome;109.0;Windows;10;undefined;undefined;1920 x 1080;1920 x 1080
S004;53;Mannelijk;Rechts;5;73;left;yes;200;undefined;null;true;focus;yes;1051038;Chrome;109.0;Windows;10;undefined;undefined;1920 x 1080;1920 x 1080
S004;53;Mannelijk;Rechts;5;74;left;no;250;leftarrow;474;true;focus;yes;1052303;Chrome;109.0;Windows;10;undefined;undefined;1920 x 1080;1920 x 1080
S004;53;Mannelijk;Rechts;5;75;left;no;250;leftarrow;611;true;focus;yes;1053708;Chrome;109.0;Windows;10;undefined;undefined;1920 x 1080;1920 x 1080
S004;53;Mannelijk;Rechts;5;76;left;no;250;leftarrow;415;true;focus;yes;1054903;Chrome;109.0;Windows;10;undefined;undefined;1920 x 1080;1920 x 1080
S004;53;Mannelijk;Rechts;5;77;right;no;250;rightarrow;484;true;focus;yes;1056166;Chrome;109.0;Windows;10;undefined;undefined;1920 x 1080;1920 x 1080
S004;53;Mannelijk;Rechts;5;78;right;no;250;rightarrow;632;true;focus;yes;1057584;Chrome;109.0;Windows;10;undefined;undefined;1920 x 1080;1920 x 1080
S004;53;Mannelijk;Rechts;5;79;right;no;250;rightarrow;617;true;focus;yes;1058963;Chrome;109.0;Windows;10;undefined;undefined;1920 x 1080;1920 x 1080
S004;53;Mannelijk;Rechts;5;80;right;yes;250;undefined;null;true;focus;yes;1061009;Chrome;109.0;Windows;10;undefined;undefined;1920 x 1080;1920 x 1080
S004;53;Mannelijk;Rechts;5;81;left;no;300;leftarrow;413;true;focus;yes;1062201;Chrome;109.0;Windows;10;undefined;undefined;1920 x 1080;1920 x 1080
S004;53;Mannelijk;Rechts;5;82;right;no;300;rightarrow;617;true;focus;yes;1063619;Chrome;109.0;Windows;10;undefined;undefined;1920 x 1080;1920 x 1080
S004;53;Mannelijk;Rechts;5;83;left;yes;300;leftarrow;422;false;focus;yes;1064827;Chrome;109.0;Windows;10;undefined;undefined;1920 x 1080;1920 x 1080
S004;53;Mannelijk;Rechts;5;84;right;no;250;rightarrow;450;true;focus;yes;1066060;Chrome;109.0;Windows;10;undefined;undefined;1920 x 1080;1920 x 1080
S004;53;Mannelijk;Rechts;5;85;left;no;250;leftarrow;584;true;focus;yes;1067411;Chrome;109.0;Windows;10;undefined;undefined;1920 x 1080;1920 x 1080
S004;53;Mannelijk;Rechts;5;86;right;no;250;rightarrow;550;true;focus;yes;1068737;Chrome;109.0;Windows;10;undefined;undefined;1920 x 1080;1920 x 1080
S004;53;Mannelijk;Rechts;5;87;left;no;250;leftarrow;582;true;focus;yes;1070091;Chrome;109.0;Windows;10;undefined;undefined;1920 x 1080;1920 x 1080
S004;53;Mannelijk;Rechts;5;88;right;yes;250;undefined;null;true;focus;yes;1072138;Chrome;109.0;Windows;10;undefined;undefined;1920 x 1080;1920 x 1080
S004;53;Mannelijk;Rechts;5;89;left;yes;300;leftarrow;434;false;focus;yes;1073352;Chrome;109.0;Windows;10;undefined;undefined;1920 x 1080;1920 x 1080
S004;53;Mannelijk;Rechts;5;90;left;no;250;leftarrow;598;true;focus;yes;1074730;Chrome;109.0;Windows;10;undefined;undefined;1920 x 1080;1920 x 1080
S004;53;Mannelijk;Rechts;5;91;right;no;250;rightarrow;406;true;focus;yes;1075906;Chrome;109.0;Windows;10;undefined;undefined;1920 x 1080;1920 x 1080
S004;53;Mannelijk;Rechts;5;92;right;no;250;rightarrow;549;true;focus;yes;1077233;Chrome;109.0;Windows;10;undefined;undefined;1920 x 1080;1920 x 1080
S004;53;Mannelijk;Rechts;5;93;right;yes;250;rightarrow;453;false;focus;yes;1078473;Chrome;109.0;Windows;10;undefined;undefined;1920 x 1080;1920 x 1080
S004;53;Mannelijk;Rechts;5;94;right;no;200;rightarrow;577;true;focus;yes;1079841;Chrome;109.0;Windows;10;undefined;undefined;1920 x 1080;1920 x 1080
S004;53;Mannelijk;Rechts;5;95;left;no;200;leftarrow;574;true;focus;yes;1081213;Chrome;109.0;Windows;10;undefined;undefined;1920 x 1080;1920 x 1080
S004;53;Mannelijk;Rechts;5;96;left;no;200;leftarrow;524;true;focus;yes;1082517;Chrome;109.0;Windows;10;undefined;undefined;1920 x 1080;1920 x 1080
S004;53;Mannelijk;Rechts;5;97;right;yes;200;undefined;null;true;focus;yes;1084580;Chrome;109.0;Windows;10;undefined;undefined;1920 x 1080;1920 x 1080
S004;53;Mannelijk;Rechts;5;98;left;no;250;leftarrow;631;true;focus;yes;1086004;Chrome;109.0;Windows;10;undefined;undefined;1920 x 1080;1920 x 1080
S004;53;Mannelijk;Rechts;5;99;right;no;250;rightarrow;563;true;focus;yes;1087337;Chrome;109.0;Windows;10;undefined;undefined;1920 x 1080;1920 x 1080
S004;53;Mannelijk;Rechts;5;100;left;no;250;leftarrow;531;true;focus;yes;1088656;Chrome;109.0;Windows;10;undefined;undefined;1920 x 1080;1920 x 1080
S004;53;Mannelijk;Rechts;5;101;left;no;250;leftarrow;392;true;focus;yes;1089831;Chrome;109.0;Windows;10;undefined;undefined;1920 x 1080;1920 x 1080
S004;53;Mannelijk;Rechts;5;102;right;no;250;rightarrow;680;true;focus;yes;1091283;Chrome;109.0;Windows;10;undefined;undefined;1920 x 1080;1920 x 1080
S004;53;Mannelijk;Rechts;5;103;right;no;250;rightarrow;782;true;focus;yes;1092829;Chrome;109.0;Windows;10;undefined;undefined;1920 x 1080;1920 x 1080
S004;53;Mannelijk;Rechts;5;104;left;yes;250;undefined;null;true;focus;yes;1094863;Chrome;109.0;Windows;10;undefined;undefined;1920 x 1080;1920 x 1080
S004;53;Mannelijk;Rechts;5;105;right;yes;300;undefined;null;true;focus;yes;1096900;Chrome;109.0;Windows;10;undefined;undefined;1920 x 1080;1920 x 1080
S004;53;Mannelijk;Rechts;5;106;left;yes;350;leftarrow;552;false;focus;yes;1098237;Chrome;109.0;Windows;10;undefined;undefined;1920 x 1080;1920 x 1080
S004;53;Mannelijk;Rechts;5;107;left;no;300;undefined;null;false;focus;yes;1100286;Chrome;109.0;Windows;10;undefined;undefined;1920 x 1080;1920 x 1080
S004;53;Mannelijk;Rechts;5;108;left;no;300;leftarrow;572;true;focus;yes;1101640;Chrome;109.0;Windows;10;undefined;undefined;1920 x 1080;1920 x 1080
S004;53;Mannelijk;Rechts;5;109;right;no;300;rightarrow;680;true;focus;yes;1103101;Chrome;109.0;Windows;10;undefined;undefined;1920 x 1080;1920 x 1080
S004;53;Mannelijk;Rechts;5;110;right;no;300;rightarrow;964;true;focus;yes;1104842;Chrome;109.0;Windows;10;undefined;undefined;1920 x 1080;1920 x 1080
S004;53;Mannelijk;Rechts;5;111;left;no;300;leftarrow;837;true;focus;yes;1106455;Chrome;109.0;Windows;10;undefined;undefined;1920 x 1080;1920 x 1080
S004;53;Mannelijk;Rechts;5;112;right;no;300;rightarrow;898;true;focus;yes;1108116;Chrome;109.0;Windows;10;undefined;undefined;1920 x 1080;1920 x 1080
S004;53;Mannelijk;Rechts;5;113;right;no;300;rightarrow;900;true;focus;yes;1109814;Chrome;109.0;Windows;10;undefined;undefined;1920 x 1080;1920 x 1080
S004;53;Mannelijk;Rechts;5;114;right;yes;300;rightarrow;485;false;focus;yes;1111084;Chrome;109.0;Windows;10;undefined;undefined;1920 x 1080;1920 x 1080
S004;53;Mannelijk;Rechts;5;115;left;no;250;leftarrow;644;true;focus;yes;1112501;Chrome;109.0;Windows;10;undefined;undefined;1920 x 1080;1920 x 1080
S004;53;Mannelijk;Rechts;5;116;left;yes;250;undefined;null;true;focus;yes;1114550;Chrome;109.0;Windows;10;undefined;undefined;1920 x 1080;1920 x 1080
S004;53;Mannelijk;Rechts;5;117;right;no;300;rightarrow;492;true;focus;yes;1115822;Chrome;109.0;Windows;10;undefined;undefined;1920 x 1080;1920 x 1080
S004;53;Mannelijk;Rechts;5;118;left;no;300;leftarrow;466;true;focus;yes;1117074;Chrome;109.0;Windows;10;undefined;undefined;1920 x 1080;1920 x 1080
S004;53;Mannelijk;Rechts;5;119;right;no;300;rightarrow;644;true;focus;yes;1118524;Chrome;109.0;Windows;10;undefined;undefined;1920 x 1080;1920 x 1080
S004;53;Mannelijk;Rechts;5;120;left;no;300;leftarrow;569;true;focus;yes;1119870;Chrome;109.0;Windows;10;undefined;undefined;1920 x 1080;1920 x 1080
S004;53;Mannelijk;Rechts;5;121;right;no;300;rightarrow;666;true;focus;yes;1121310;Chrome;109.0;Windows;10;undefined;undefined;1920 x 1080;1920 x 1080
S004;53;Mannelijk;Rechts;5;122;left;no;300;leftarrow;656;true;focus;yes;1122735;Chrome;109.0;Windows;10;undefined;undefined;1920 x 1080;1920 x 1080
S004;53;Mannelijk;Rechts;5;123;left;no;300;leftarrow;486;true;focus;yes;1123989;Chrome;109.0;Windows;10;undefined;undefined;1920 x 1080;1920 x 1080
S004;53;Mannelijk;Rechts;5;124;left;yes;300;undefined;null;true;focus;yes;1126026;Chrome;109.0;Windows;10;undefined;undefined;1920 x 1080;1920 x 1080
S004;53;Mannelijk;Rechts;5;125;left;no;350;leftarrow;464;true;focus;yes;1127274;Chrome;109.0;Windows;10;undefined;undefined;1920 x 1080;1920 x 1080
S004;53;Mannelijk;Rechts;5;126;right;yes;350;rightarrow;475;false;focus;yes;1128539;Chrome;109.0;Windows;10;undefined;undefined;1920 x 1080;1920 x 1080
S004;53;Mannelijk;Rechts;5;127;right;no;300;rightarrow;597;true;focus;yes;1129917;Chrome;109.0;Windows;10;undefined;undefined;1920 x 1080;1920 x 1080
S004;53;Mannelijk;Rechts;5;128;right;no;300;rightarrow;579;true;focus;yes;1131270;Chrome;109.0;Windows;10;undefined;undefined;1920 x 1080;1920 x 1080
S004;53;Mannelijk;Rechts;6;1;right;no;300;rightarrow;457;true;focus;yes;1150164;Chrome;109.0;Windows;10;undefined;undefined;1920 x 1080;1920 x 1080
S004;53;Mannelijk;Rechts;6;2;right;yes;300;undefined;null;true;focus;yes;1152206;Chrome;109.0;Windows;10;undefined;undefined;1920 x 1080;1920 x 1080
S004;53;Mannelijk;Rechts;6;3;left;no;350;leftarrow;434;true;focus;yes;1153421;Chrome;109.0;Windows;10;undefined;undefined;1920 x 1080;1920 x 1080
S004;53;Mannelijk;Rechts;6;4;right;no;350;rightarrow;564;true;focus;yes;1154766;Chrome;109.0;Windows;10;undefined;undefined;1920 x 1080;1920 x 1080
S004;53;Mannelijk;Rechts;6;5;left;yes;350;leftarrow;529;false;focus;yes;1156067;Chrome;109.0;Windows;10;undefined;undefined;1920 x 1080;1920 x 1080
S004;53;Mannelijk;Rechts;6;6;left;no;300;leftarrow;554;true;focus;yes;1157403;Chrome;109.0;Windows;10;undefined;undefined;1920 x 1080;1920 x 1080
S004;53;Mannelijk;Rechts;6;7;right;no;300;rightarrow;475;true;focus;yes;1158646;Chrome;109.0;Windows;10;undefined;undefined;1920 x 1080;1920 x 1080
S004;53;Mannelijk;Rechts;6;8;left;no;300;leftarrow;619;true;focus;yes;1160053;Chrome;109.0;Windows;10;undefined;undefined;1920 x 1080;1920 x 1080
S004;53;Mannelijk;Rechts;6;9;right;no;300;rightarrow;602;true;focus;yes;1161421;Chrome;109.0;Windows;10;undefined;undefined;1920 x 1080;1920 x 1080
S004;53;Mannelijk;Rechts;6;10;left;no;300;leftarrow;682;true;focus;yes;1162878;Chrome;109.0;Windows;10;undefined;undefined;1920 x 1080;1920 x 1080
S004;53;Mannelijk;Rechts;6;11;right;no;300;rightarrow;391;true;focus;yes;1164056;Chrome;109.0;Windows;10;undefined;undefined;1920 x 1080;1920 x 1080
S004;53;Mannelijk;Rechts;6;12;right;yes;300;rightarrow;464;false;focus;yes;1165292;Chrome;109.0;Windows;10;undefined;undefined;1920 x 1080;1920 x 1080
S004;53;Mannelijk;Rechts;6;13;right;no;250;rightarrow;513;true;focus;yes;1166580;Chrome;109.0;Windows;10;undefined;undefined;1920 x 1080;1920 x 1080
S004;53;Mannelijk;Rechts;6;14;left;yes;250;undefined;null;true;focus;yes;1168620;Chrome;109.0;Windows;10;undefined;undefined;1920 x 1080;1920 x 1080
S004;53;Mannelijk;Rechts;6;15;left;no;300;leftarrow;519;true;focus;yes;1169915;Chrome;109.0;Windows;10;undefined;undefined;1920 x 1080;1920 x 1080
S004;53;Mannelijk;Rechts;6;16;left;no;300;leftarrow;559;true;focus;yes;1171249;Chrome;109.0;Windows;10;undefined;undefined;1920 x 1080;1920 x 1080
S004;53;Mannelijk;Rechts;6;17;right;no;300;rightarrow;645;true;focus;yes;1172677;Chrome;109.0;Windows;10;undefined;undefined;1920 x 1080;1920 x 1080
S004;53;Mannelijk;Rechts;6;18;left;no;300;leftarrow;703;true;focus;yes;1174154;Chrome;109.0;Windows;10;undefined;undefined;1920 x 1080;1920 x 1080
S004;53;Mannelijk;Rechts;6;19;left;yes;300;undefined;null;true;focus;yes;1176191;Chrome;109.0;Windows;10;undefined;undefined;1920 x 1080;1920 x 1080
S004;53;Mannelijk;Rechts;6;20;right;no;350;rightarrow;689;true;focus;yes;1177666;Chrome;109.0;Windows;10;undefined;undefined;1920 x 1080;1920 x 1080
S004;53;Mannelijk;Rechts;6;21;left;no;350;leftarrow;488;true;focus;yes;1178937;Chrome;109.0;Windows;10;undefined;undefined;1920 x 1080;1920 x 1080
S004;53;Mannelijk;Rechts;6;22;left;no;350;leftarrow;572;true;focus;yes;1180306;Chrome;109.0;Windows;10;undefined;undefined;1920 x 1080;1920 x 1080
S004;53;Mannelijk;Rechts;6;23;right;no;350;rightarrow;702;true;focus;yes;1181796;Chrome;109.0;Windows;10;undefined;undefined;1920 x 1080;1920 x 1080
