participantID;age;gender;handedness;block_i;trial_i;stim;signal;SSD;response;rt;correct;focus;Fullscreen;time_elapsed;browser_name;browser_version;os_name;os_version;tablet;mobile;screen_resolution;window_resolution
H030;31;Vrouwelijk;Rechts;0;1;left;no;200;leftarrow;438;true;focus;yes;83691;Chrome;112.0;Windows;10;undefined;undefined;1366 x 768;1366 x 768
H030;31;Vrouwelijk;Rechts;0;2;left;yes;200;leftarrow;394;false;focus;yes;85610;Chrome;112.0;Windows;10;undefined;undefined;1366 x 768;1366 x 768
H030;31;Vrouwelijk;Rechts;0;3;right;no;150;rightarrow;422;true;focus;yes;87552;Chrome;112.0;Windows;10;undefined;undefined;1366 x 768;1366 x 768
H030;31;Vrouwelijk;Rechts;0;4;right;no;150;rightarrow;356;true;focus;yes;89455;Chrome;112.0;Windows;10;undefined;undefined;1366 x 768;1366 x 768
H030;31;Vrouwelijk;Rechts;0;5;left;no;150;leftarrow;320;true;focus;yes;91311;Chrome;112.0;Windows;10;undefined;undefined;1366 x 768;1366 x 768
H030;31;Vrouwelijk;Rechts;0;6;right;yes;150;rightarrow;292;false;focus;yes;93140;Chrome;112.0;Windows;10;undefined;undefined;1366 x 768;1366 x 768
H030;31;Vrouwelijk;Rechts;0;7;left;no;100;leftarrow;308;true;focus;yes;94965;Chrome;112.0;Windows;10;undefined;undefined;1366 x 768;1366 x 768
H030;31;Vrouwelijk;Rechts;0;8;right;no;100;rightarrow;336;true;focus;yes;96838;Chrome;112.0;Windows;10;undefined;undefined;1366 x 768;1366 x 768
H030;31;Vrouwelijk;Rechts;1;1;left;no;100;leftarrow;348;true;focus;yes;116817;Chrome;112.0;Windows;10;undefined;undefined;1366 x 768;1366 x 768
H030;31;Vrouwelijk;Rechts;1;2;right;no;100;rightarrow;433;true;focus;yes;118024;Chrome;112.0;Windows;10;undefined;undefined;1366 x 768;1366 x 768
H030;31;Vrouwelijk;Rechts;1;3;right;yes;100;rightarrow;422;false;focus;yes;119227;Chrome;112.0;Windows;10;undefined;undefined;1366 x 768;1366 x 768
H030;31;Vrouwelijk;Rechts;1;4;right;no;50;rightarrow;360;true;focus;yes;120368;Chrome;112.0;Windows;10;undefined;undefined;1366 x 768;1366 x 768
H030;31;Vrouwelijk;Rechts;1;5;left;no;50;leftarrow;346;true;focus;yes;121483;Chrome;112.0;Windows;10;undefined;undefined;1366 x 768;1366 x 768
H030;31;Vrouwelijk;Rechts;1;6;right;no;50;rightarrow;341;true;focus;yes;122588;Chrome;112.0;Windows;10;undefined;undefined;1366 x 768;1366 x 768
H030;31;Vrouwelijk;Rechts;1;7;left;no;50;leftarrow;406;true;focus;yes;123764;Chrome;112.0;Windows;10;undefined;undefined;1366 x 768;1366 x 768
H030;31;Vrouwelijk;Rechts;1;8;left;yes;50;leftarrow;470;false;focus;yes;125007;Chrome;112.0;Windows;10;undefined;undefined;1366 x 768;1366 x 768
H030;31;Vrouwelijk;Rechts;1;9;right;no;50;rightarrow;371;true;focus;yes;126144;Chrome;112.0;Windows;10;undefined;undefined;1366 x 768;1366 x 768
H030;31;Vrouwelijk;Rechts;1;10;left;no;50;leftarrow;436;true;focus;yes;127356;Chrome;112.0;Windows;10;undefined;undefined;1366 x 768;1366 x 768
H030;31;Vrouwelijk;Rechts;1;11;left;no;50;leftarrow;366;true;focus;yes;128502;Chrome;112.0;Windows;10;undefined;undefined;1366 x 768;1366 x 768
H030;31;Vrouwelijk;Rechts;1;12;left;yes;50;undefined;null;true;focus;yes;130536;Chrome;112.0;Windows;10;undefined;undefined;1366 x 768;1366 x 768
H030;31;Vrouwelijk;Rechts;1;13;right;no;100;rightarrow;294;true;focus;yes;131599;Chrome;112.0;Windows;10;undefined;undefined;1366 x 768;1366 x 768
H030;31;Vrouwelijk;Rechts;1;14;left;no;100;leftarrow;273;true;focus;yes;132649;Chrome;112.0;Windows;10;undefined;undefined;1366 x 768;1366 x 768
H030;31;Vrouwelijk;Rechts;1;15;right;no;100;rightarrow;423;true;focus;yes;133850;Chrome;112.0;Windows;10;undefined;undefined;1366 x 768;1366 x 768
H030;31;Vrouwelijk;Rechts;1;16;right;yes;100;undefined;null;true;focus;yes;135873;Chrome;112.0;Windows;10;undefined;undefined;1366 x 768;1366 x 768
H030;31;Vrouwelijk;Rechts;1;17;left;yes;150;leftarrow;276;false;focus;yes;136927;Chrome;112.0;Windows;10;undefined;undefined;1366 x 768;1366 x 768
H030;31;Vrouwelijk;Rechts;1;18;left;no;100;leftarrow;412;true;focus;yes;138109;Chrome;112.0;Windows;10;undefined;undefined;1366 x 768;1366 x 768
H030;31;Vrouwelijk;Rechts;1;19;right;no;100;rightarrow;437;true;focus;yes;139303;Chrome;112.0;Windows;10;undefined;undefined;1366 x 768;1366 x 768
H030;31;Vrouwelijk;Rechts;1;20;left;no;100;leftarrow;399;true;focus;yes;140466;Chrome;112.0;Windows;10;undefined;undefined;1366 x 768;1366 x 768
H030;31;Vrouwelijk;Rechts;1;21;right;no;100;rightarrow;399;true;focus;yes;141642;Chrome;112.0;Windows;10;undefined;undefined;1366 x 768;1366 x 768
H030;31;Vrouwelijk;Rechts;1;22;left;no;100;leftarrow;405;true;focus;yes;142812;Chrome;112.0;Windows;10;undefined;undefined;1366 x 768;1366 x 768
H030;31;Vrouwelijk;Rechts;1;23;right;no;100;rightarrow;391;true;focus;yes;143973;Chrome;112.0;Windows;10;undefined;undefined;1366 x 768;1366 x 768
H030;31;Vrouwelijk;Rechts;1;24;right;yes;100;undefined;null;true;focus;yes;145989;Chrome;112.0;Windows;10;undefined;undefined;1366 x 768;1366 x 768
H030;31;Vrouwelijk;Rechts;1;25;right;no;150;rightarrow;390;true;focus;yes;147157;Chrome;112.0;Windows;10;undefined;undefined;1366 x 768;1366 x 768
H030;31;Vrouwelijk;Rechts;1;26;left;no;150;leftarrow;329;true;focus;yes;148255;Chrome;112.0;Windows;10;undefined;undefined;1366 x 768;1366 x 768
H030;31;Vrouwelijk;Rechts;1;27;right;no;150;rightarrow;431;true;focus;yes;149451;Chrome;112.0;Windows;10;undefined;undefined;1366 x 768;1366 x 768
H030;31;Vrouwelijk;Rechts;1;28;left;yes;150;undefined;null;true;focus;yes;151489;Chrome;112.0;Windows;10;undefined;undefined;1366 x 768;1366 x 768
H030;31;Vrouwelijk;Rechts;1;29;left;no;200;leftarrow;393;true;focus;yes;152646;Chrome;112.0;Windows;10;undefined;undefined;1366 x 768;1366 x 768
H030;31;Vrouwelijk;Rechts;1;30;right;yes;200;rightarrow;343;false;focus;yes;153751;Chrome;112.0;Windows;10;undefined;undefined;1366 x 768;1366 x 768
H030;31;Vrouwelijk;Rechts;1;31;left;no;150;leftarrow;295;true;focus;yes;154811;Chrome;112.0;Windows;10;undefined;undefined;1366 x 768;1366 x 768
H030;31;Vrouwelijk;Rechts;1;32;right;no;150;rightarrow;416;true;focus;yes;156010;Chrome;112.0;Windows;10;undefined;undefined;1366 x 768;1366 x 768
H030;31;Vrouwelijk;Rechts;1;33;left;no;150;leftarrow;409;true;focus;yes;157201;Chrome;112.0;Windows;10;undefined;undefined;1366 x 768;1366 x 768
H030;31;Vrouwelijk;Rechts;1;34;right;no;150;rightarrow;421;true;focus;yes;158393;Chrome;112.0;Windows;10;undefined;undefined;1366 x 768;1366 x 768
H030;31;Vrouwelijk;Rechts;1;35;left;no;150;leftarrow;312;true;focus;yes;159484;Chrome;112.0;Windows;10;undefined;undefined;1366 x 768;1366 x 768
H030;31;Vrouwelijk;Rechts;1;36;right;yes;150;undefined;null;true;focus;yes;161531;Chrome;112.0;Windows;10;undefined;undefined;1366 x 768;1366 x 768
H030;31;Vrouwelijk;Rechts;1;37;left;no;200;leftarrow;422;true;focus;yes;162725;Chrome;112.0;Windows;10;undefined;undefined;1366 x 768;1366 x 768
H030;31;Vrouwelijk;Rechts;1;38;right;no;200;rightarrow;427;true;focus;yes;163916;Chrome;112.0;Windows;10;undefined;undefined;1366 x 768;1366 x 768
H030;31;Vrouwelijk;Rechts;1;39;left;yes;200;leftarrow;277;false;focus;yes;164976;Chrome;112.0;Windows;10;undefined;undefined;1366 x 768;1366 x 768
H030;31;Vrouwelijk;Rechts;1;40;right;no;150;rightarrow;330;true;focus;yes;166070;Chrome;112.0;Windows;10;undefined;undefined;1366 x 768;1366 x 768
H030;31;Vrouwelijk;Rechts;1;41;right;yes;150;undefined;null;true;focus;yes;168093;Chrome;112.0;Windows;10;undefined;undefined;1366 x 768;1366 x 768
H030;31;Vrouwelijk;Rechts;1;42;left;no;200;leftarrow;403;true;focus;yes;169268;Chrome;112.0;Windows;10;undefined;undefined;1366 x 768;1366 x 768
H030;31;Vrouwelijk;Rechts;1;43;left;no;200;leftarrow;396;true;focus;yes;170444;Chrome;112.0;Windows;10;undefined;undefined;1366 x 768;1366 x 768
H030;31;Vrouwelijk;Rechts;1;44;left;yes;200;leftarrow;338;false;focus;yes;171552;Chrome;112.0;Windows;10;undefined;undefined;1366 x 768;1366 x 768
H030;31;Vrouwelijk;Rechts;1;45;right;no;150;rightarrow;366;true;focus;yes;172694;Chrome;112.0;Windows;10;undefined;undefined;1366 x 768;1366 x 768
H030;31;Vrouwelijk;Rechts;1;46;right;no;150;rightarrow;369;true;focus;yes;173820;Chrome;112.0;Windows;10;undefined;undefined;1366 x 768;1366 x 768
H030;31;Vrouwelijk;Rechts;1;47;right;no;150;rightarrow;340;true;focus;yes;174939;Chrome;112.0;Windows;10;undefined;undefined;1366 x 768;1366 x 768
H030;31;Vrouwelijk;Rechts;1;48;left;no;150;leftarrow;440;true;focus;yes;176150;Chrome;112.0;Windows;10;undefined;undefined;1366 x 768;1366 x 768
H030;31;Vrouwelijk;Rechts;1;49;left;no;150;leftarrow;347;true;focus;yes;177280;Chrome;112.0;Windows;10;undefined;undefined;1366 x 768;1366 x 768
H030;31;Vrouwelijk;Rechts;1;50;right;no;150;rightarrow;404;true;focus;yes;178456;Chrome;112.0;Windows;10;undefined;undefined;1366 x 768;1366 x 768
H030;31;Vrouwelijk;Rechts;1;51;right;yes;150;undefined;null;true;focus;yes;180486;Chrome;112.0;Windows;10;undefined;undefined;1366 x 768;1366 x 768
H030;31;Vrouwelijk;Rechts;1;52;left;yes;200;leftarrow;328;false;focus;yes;181588;Chrome;112.0;Windows;10;undefined;undefined;1366 x 768;1366 x 768
H030;31;Vrouwelijk;Rechts;1;53;left;no;150;leftarrow;366;true;focus;yes;182723;Chrome;112.0;Windows;10;undefined;undefined;1366 x 768;1366 x 768
H030;31;Vrouwelijk;Rechts;1;54;left;no;150;leftarrow;337;true;focus;yes;183835;Chrome;112.0;Windows;10;undefined;undefined;1366 x 768;1366 x 768
H030;31;Vrouwelijk;Rechts;1;55;right;no;150;rightarrow;407;true;focus;yes;185018;Chrome;112.0;Windows;10;undefined;undefined;1366 x 768;1366 x 768
H030;31;Vrouwelijk;Rechts;1;56;right;no;150;rightarrow;355;true;focus;yes;186147;Chrome;112.0;Windows;10;undefined;undefined;1366 x 768;1366 x 768
H030;31;Vrouwelijk;Rechts;1;57;left;no;150;leftarrow;376;true;focus;yes;187304;Chrome;112.0;Windows;10;undefined;undefined;1366 x 768;1366 x 768
H030;31;Vrouwelijk;Rechts;1;58;right;no;150;rightarrow;354;true;focus;yes;188436;Chrome;112.0;Windows;10;undefined;undefined;1366 x 768;1366 x 768
H030;31;Vrouwelijk;Rechts;1;59;right;no;150;rightarrow;378;true;focus;yes;189575;Chrome;112.0;Windows;10;undefined;undefined;1366 x 768;1366 x 768
H030;31;Vrouwelijk;Rechts;1;60;left;no;150;leftarrow;417;true;focus;yes;190760;Chrome;112.0;Windows;10;undefined;undefined;1366 x 768;1366 x 768
H030;31;Vrouwelijk;Rechts;1;61;left;no;150;leftarrow;448;true;focus;yes;191987;Chrome;112.0;Windows;10;undefined;undefined;1366 x 768;1366 x 768
H030;31;Vrouwelijk;Rechts;1;62;right;yes;150;undefined;null;true;focus;yes;194013;Chrome;112.0;Windows;10;undefined;undefined;1366 x 768;1366 x 768
H030;31;Vrouwelijk;Rechts;1;63;left;yes;200;leftarrow;293;false;focus;yes;195083;Chrome;112.0;Windows;10;undefined;undefined;1366 x 768;1366 x 768
H030;31;Vrouwelijk;Rechts;1;64;right;no;150;rightarrow;344;true;focus;yes;196188;Chrome;112.0;Windows;10;undefined;undefined;1366 x 768;1366 x 768
H030;31;Vrouwelijk;Rechts;1;65;left;no;150;leftarrow;374;true;focus;yes;197334;Chrome;112.0;Windows;10;undefined;undefined;1366 x 768;1366 x 768
H030;31;Vrouwelijk;Rechts;1;66;right;no;150;rightarrow;348;true;focus;yes;198464;Chrome;112.0;Windows;10;undefined;undefined;1366 x 768;1366 x 768
H030;31;Vrouwelijk;Rechts;1;67;right;yes;150;rightarrow;512;false;focus;yes;199744;Chrome;112.0;Windows;10;undefined;undefined;1366 x 768;1366 x 768
H030;31;Vrouwelijk;Rechts;1;68;right;no;100;leftarrow;339;false;focus;yes;200863;Chrome;112.0;Windows;10;undefined;undefined;1366 x 768;1366 x 768
H030;31;Vrouwelijk;Rechts;1;69;left;no;100;leftarrow;396;true;focus;yes;202040;Chrome;112.0;Windows;10;undefined;undefined;1366 x 768;1366 x 768
H030;31;Vrouwelijk;Rechts;1;70;left;yes;100;undefined;null;true;focus;yes;204074;Chrome;112.0;Windows;10;undefined;undefined;1366 x 768;1366 x 768
H030;31;Vrouwelijk;Rechts;1;71;left;no;150;leftarrow;376;true;focus;yes;205218;Chrome;112.0;Windows;10;undefined;undefined;1366 x 768;1366 x 768
H030;31;Vrouwelijk;Rechts;1;72;right;no;150;rightarrow;348;true;focus;yes;206331;Chrome;112.0;Windows;10;undefined;undefined;1366 x 768;1366 x 768
H030;31;Vrouwelijk;Rechts;1;73;right;no;150;rightarrow;339;true;focus;yes;207437;Chrome;112.0;Windows;10;undefined;undefined;1366 x 768;1366 x 768
H030;31;Vrouwelijk;Rechts;1;74;right;no;150;rightarrow;377;true;focus;yes;208589;Chrome;112.0;Windows;10;undefined;undefined;1366 x 768;1366 x 768
H030;31;Vrouwelijk;Rechts;1;75;left;no;150;leftarrow;439;true;focus;yes;209797;Chrome;112.0;Windows;10;undefined;undefined;1366 x 768;1366 x 768
H030;31;Vrouwelijk;Rechts;1;76;left;no;150;leftarrow;420;true;focus;yes;210992;Chrome;112.0;Windows;10;undefined;undefined;1366 x 768;1366 x 768
H030;31;Vrouwelijk;Rechts;1;77;left;no;150;leftarrow;425;true;focus;yes;212185;Chrome;112.0;Windows;10;undefined;undefined;1366 x 768;1366 x 768
H030;31;Vrouwelijk;Rechts;1;78;right;no;150;rightarrow;483;true;focus;yes;213443;Chrome;112.0;Windows;10;undefined;undefined;1366 x 768;1366 x 768
H030;31;Vrouwelijk;Rechts;1;79;right;yes;150;undefined;null;true;focus;yes;215470;Chrome;112.0;Windows;10;undefined;undefined;1366 x 768;1366 x 768
H030;31;Vrouwelijk;Rechts;1;80;left;yes;200;leftarrow;381;false;focus;yes;216630;Chrome;112.0;Windows;10;undefined;undefined;1366 x 768;1366 x 768
H030;31;Vrouwelijk;Rechts;1;81;left;no;150;leftarrow;414;true;focus;yes;217814;Chrome;112.0;Windows;10;undefined;undefined;1366 x 768;1366 x 768
H030;31;Vrouwelijk;Rechts;1;82;left;yes;150;undefined;null;true;focus;yes;219843;Chrome;112.0;Windows;10;undefined;undefined;1366 x 768;1366 x 768
H030;31;Vrouwelijk;Rechts;1;83;right;no;200;rightarrow;410;true;focus;yes;221032;Chrome;112.0;Windows;10;undefined;undefined;1366 x 768;1366 x 768
H030;31;Vrouwelijk;Rechts;1;84;right;no;200;rightarrow;420;true;focus;yes;222222;Chrome;112.0;Windows;10;undefined;undefined;1366 x 768;1366 x 768
H030;31;Vrouwelijk;Rechts;1;85;right;yes;200;undefined;null;true;focus;yes;224236;Chrome;112.0;Windows;10;undefined;undefined;1366 x 768;1366 x 768
H030;31;Vrouwelijk;Rechts;1;86;left;no;250;leftarrow;313;true;focus;yes;225316;Chrome;112.0;Windows;10;undefined;undefined;1366 x 768;1366 x 768
H030;31;Vrouwelijk;Rechts;1;87;left;no;250;leftarrow;452;true;focus;yes;226532;Chrome;112.0;Windows;10;undefined;undefined;1366 x 768;1366 x 768
H030;31;Vrouwelijk;Rechts;1;88;right;no;250;rightarrow;507;true;focus;yes;227803;Chrome;112.0;Windows;10;undefined;undefined;1366 x 768;1366 x 768
H030;31;Vrouwelijk;Rechts;1;89;left;no;250;leftarrow;359;true;focus;yes;228942;Chrome;112.0;Windows;10;undefined;undefined;1366 x 768;1366 x 768
H030;31;Vrouwelijk;Rechts;1;90;right;no;250;rightarrow;372;true;focus;yes;230078;Chrome;112.0;Windows;10;undefined;undefined;1366 x 768;1366 x 768
H030;31;Vrouwelijk;Rechts;1;91;right;no;250;rightarrow;361;true;focus;yes;231208;Chrome;112.0;Windows;10;undefined;undefined;1366 x 768;1366 x 768
H030;31;Vrouwelijk;Rechts;1;92;left;yes;250;leftarrow;412;false;focus;yes;232389;Chrome;112.0;Windows;10;undefined;undefined;1366 x 768;1366 x 768
H030;31;Vrouwelijk;Rechts;1;93;left;no;200;leftarrow;489;true;focus;yes;233659;Chrome;112.0;Windows;10;undefined;undefined;1366 x 768;1366 x 768
H030;31;Vrouwelijk;Rechts;1;94;left;no;200;leftarrow;442;true;focus;yes;234872;Chrome;112.0;Windows;10;undefined;undefined;1366 x 768;1366 x 768
H030;31;Vrouwelijk;Rechts;1;95;right;no;200;rightarrow;447;true;focus;yes;236100;Chrome;112.0;Windows;10;undefined;undefined;1366 x 768;1366 x 768
H030;31;Vrouwelijk;Rechts;1;96;right;yes;200;rightarrow;344;false;focus;yes;237201;Chrome;112.0;Windows;10;undefined;undefined;1366 x 768;1366 x 768
H030;31;Vrouwelijk;Rechts;1;97;left;no;150;leftarrow;315;true;focus;yes;238285;Chrome;112.0;Windows;10;undefined;undefined;1366 x 768;1366 x 768
H030;31;Vrouwelijk;Rechts;1;98;left;no;150;leftarrow;497;true;focus;yes;239557;Chrome;112.0;Windows;10;undefined;undefined;1366 x 768;1366 x 768
H030;31;Vrouwelijk;Rechts;1;99;left;yes;150;undefined;null;true;focus;yes;241604;Chrome;112.0;Windows;10;undefined;undefined;1366 x 768;1366 x 768
H030;31;Vrouwelijk;Rechts;1;100;right;no;200;rightarrow;424;true;focus;yes;242806;Chrome;112.0;Windows;10;undefined;undefined;1366 x 768;1366 x 768
H030;31;Vrouwelijk;Rechts;1;101;right;yes;200;undefined;null;true;focus;yes;244834;Chrome;112.0;Windows;10;undefined;undefined;1366 x 768;1366 x 768
H030;31;Vrouwelijk;Rechts;1;102;right;no;250;rightarrow;372;true;focus;yes;245972;Chrome;112.0;Windows;10;undefined;undefined;1366 x 768;1366 x 768
H030;31;Vrouwelijk;Rechts;1;103;left;no;250;leftarrow;330;true;focus;yes;247062;Chrome;112.0;Windows;10;undefined;undefined;1366 x 768;1366 x 768
H030;31;Vrouwelijk;Rechts;1;104;right;no;250;rightarrow;391;true;focus;yes;248216;Chrome;112.0;Windows;10;undefined;undefined;1366 x 768;1366 x 768
H030;31;Vrouwelijk;Rechts;1;105;right;no;250;rightarrow;365;true;focus;yes;249356;Chrome;112.0;Windows;10;undefined;undefined;1366 x 768;1366 x 768
H030;31;Vrouwelijk;Rechts;1;106;left;no;250;leftarrow;329;true;focus;yes;250447;Chrome;112.0;Windows;10;undefined;undefined;1366 x 768;1366 x 768
H030;31;Vrouwelijk;Rechts;1;107;right;no;250;rightarrow;419;true;focus;yes;251628;Chrome;112.0;Windows;10;undefined;undefined;1366 x 768;1366 x 768
H030;31;Vrouwelijk;Rechts;1;108;left;no;250;leftarrow;406;true;focus;yes;252800;Chrome;112.0;Windows;10;undefined;undefined;1366 x 768;1366 x 768
H030;31;Vrouwelijk;Rechts;1;109;right;no;250;rightarrow;393;true;focus;yes;253962;Chrome;112.0;Windows;10;undefined;undefined;1366 x 768;1366 x 768
H030;31;Vrouwelijk;Rechts;1;110;left;yes;250;undefined;null;true;focus;yes;255997;Chrome;112.0;Windows;10;undefined;undefined;1366 x 768;1366 x 768
H030;31;Vrouwelijk;Rechts;1;111;left;no;300;leftarrow;351;true;focus;yes;257125;Chrome;112.0;Windows;10;undefined;undefined;1366 x 768;1366 x 768
H030;31;Vrouwelijk;Rechts;1;112;right;yes;300;rightarrow;342;false;focus;yes;258225;Chrome;112.0;Windows;10;undefined;undefined;1366 x 768;1366 x 768
H030;31;Vrouwelijk;Rechts;1;113;left;no;250;leftarrow;425;true;focus;yes;259413;Chrome;112.0;Windows;10;undefined;undefined;1366 x 768;1366 x 768
H030;31;Vrouwelijk;Rechts;1;114;left;no;250;leftarrow;396;true;focus;yes;260588;Chrome;112.0;Windows;10;undefined;undefined;1366 x 768;1366 x 768
H030;31;Vrouwelijk;Rechts;1;115;right;yes;250;rightarrow;472;false;focus;yes;261835;Chrome;112.0;Windows;10;undefined;undefined;1366 x 768;1366 x 768
H030;31;Vrouwelijk;Rechts;1;116;right;no;200;rightarrow;504;true;focus;yes;263108;Chrome;112.0;Windows;10;undefined;undefined;1366 x 768;1366 x 768
H030;31;Vrouwelijk;Rechts;1;117;right;no;200;rightarrow;420;true;focus;yes;264311;Chrome;112.0;Windows;10;undefined;undefined;1366 x 768;1366 x 768
H030;31;Vrouwelijk;Rechts;1;118;left;no;200;leftarrow;389;true;focus;yes;265458;Chrome;112.0;Windows;10;undefined;undefined;1366 x 768;1366 x 768
H030;31;Vrouwelijk;Rechts;1;119;left;yes;200;undefined;null;true;focus;yes;267493;Chrome;112.0;Windows;10;undefined;undefined;1366 x 768;1366 x 768
H030;31;Vrouwelijk;Rechts;1;120;right;no;250;rightarrow;374;true;focus;yes;268634;Chrome;112.0;Windows;10;undefined;undefined;1366 x 768;1366 x 768
H030;31;Vrouwelijk;Rechts;1;121;left;no;250;leftarrow;385;true;focus;yes;269798;Chrome;112.0;Windows;10;undefined;undefined;1366 x 768;1366 x 768
H030;31;Vrouwelijk;Rechts;1;122;right;yes;250;rightarrow;306;false;focus;yes;270871;Chrome;112.0;Windows;10;undefined;undefined;1366 x 768;1366 x 768
H030;31;Vrouwelijk;Rechts;1;123;right;no;200;rightarrow;388;true;focus;yes;272037;Chrome;112.0;Windows;10;undefined;undefined;1366 x 768;1366 x 768
H030;31;Vrouwelijk;Rechts;1;124;right;no;200;rightarrow;505;true;focus;yes;273298;Chrome;112.0;Windows;10;undefined;undefined;1366 x 768;1366 x 768
H030;31;Vrouwelijk;Rechts;1;125;right;no;200;rightarrow;612;true;focus;yes;274689;Chrome;112.0;Windows;10;undefined;undefined;1366 x 768;1366 x 768
H030;31;Vrouwelijk;Rechts;1;126;left;no;200;leftarrow;356;true;focus;yes;275806;Chrome;112.0;Windows;10;undefined;undefined;1366 x 768;1366 x 768
H030;31;Vrouwelijk;Rechts;1;127;left;no;200;leftarrow;403;true;focus;yes;276978;Chrome;112.0;Windows;10;undefined;undefined;1366 x 768;1366 x 768
H030;31;Vrouwelijk;Rechts;1;128;left;yes;200;undefined;null;true;focus;yes;279014;Chrome;112.0;Windows;10;undefined;undefined;1366 x 768;1366 x 768
H030;31;Vrouwelijk;Rechts;2;1;left;no;250;leftarrow;415;true;focus;yes;298310;Chrome;112.0;Windows;10;undefined;undefined;1366 x 768;1366 x 768
H030;31;Vrouwelijk;Rechts;2;2;left;no;250;leftarrow;345;true;focus;yes;299415;Chrome;112.0;Windows;10;undefined;undefined;1366 x 768;1366 x 768
H030;31;Vrouwelijk;Rechts;2;3;right;no;250;rightarrow;468;true;focus;yes;300647;Chrome;112.0;Windows;10;undefined;undefined;1366 x 768;1366 x 768
H030;31;Vrouwelijk;Rechts;2;4;right;no;250;rightarrow;369;true;focus;yes;301794;Chrome;112.0;Windows;10;undefined;undefined;1366 x 768;1366 x 768
H030;31;Vrouwelijk;Rechts;2;5;left;yes;250;undefined;null;true;focus;yes;303839;Chrome;112.0;Windows;10;undefined;undefined;1366 x 768;1366 x 768
H030;31;Vrouwelijk;Rechts;2;6;right;yes;300;rightarrow;357;false;focus;yes;304976;Chrome;112.0;Windows;10;undefined;undefined;1366 x 768;1366 x 768
H030;31;Vrouwelijk;Rechts;2;7;left;no;250;leftarrow;343;true;focus;yes;306089;Chrome;112.0;Windows;10;undefined;undefined;1366 x 768;1366 x 768
H030;31;Vrouwelijk;Rechts;2;8;right;no;250;rightarrow;455;true;focus;yes;307307;Chrome;112.0;Windows;10;undefined;undefined;1366 x 768;1366 x 768
H030;31;Vrouwelijk;Rechts;2;9;left;no;250;leftarrow;390;true;focus;yes;308467;Chrome;112.0;Windows;10;undefined;undefined;1366 x 768;1366 x 768
H030;31;Vrouwelijk;Rechts;2;10;left;yes;250;leftarrow;362;false;focus;yes;309599;Chrome;112.0;Windows;10;undefined;undefined;1366 x 768;1366 x 768
H030;31;Vrouwelijk;Rechts;2;11;right;no;200;rightarrow;398;true;focus;yes;310777;Chrome;112.0;Windows;10;undefined;undefined;1366 x 768;1366 x 768
H030;31;Vrouwelijk;Rechts;2;12;left;no;200;leftarrow;468;true;focus;yes;312024;Chrome;112.0;Windows;10;undefined;undefined;1366 x 768;1366 x 768
H030;31;Vrouwelijk;Rechts;2;13;left;no;200;leftarrow;526;true;focus;yes;313322;Chrome;112.0;Windows;10;undefined;undefined;1366 x 768;1366 x 768
H030;31;Vrouwelijk;Rechts;2;14;right;yes;200;undefined;null;true;focus;yes;315350;Chrome;112.0;Windows;10;undefined;undefined;1366 x 768;1366 x 768
H030;31;Vrouwelijk;Rechts;2;15;right;no;250;rightarrow;470;true;focus;yes;316598;Chrome;112.0;Windows;10;undefined;undefined;1366 x 768;1366 x 768
H030;31;Vrouwelijk;Rechts;2;16;right;no;250;rightarrow;408;true;focus;yes;317774;Chrome;112.0;Windows;10;undefined;undefined;1366 x 768;1366 x 768
H030;31;Vrouwelijk;Rechts;2;17;left;no;250;leftarrow;415;true;focus;yes;318966;Chrome;112.0;Windows;10;undefined;undefined;1366 x 768;1366 x 768
H030;31;Vrouwelijk;Rechts;2;18;right;no;250;rightarrow;377;true;focus;yes;320112;Chrome;112.0;Windows;10;undefined;undefined;1366 x 768;1366 x 768
H030;31;Vrouwelijk;Rechts;2;19;right;yes;250;undefined;null;true;focus;yes;322156;Chrome;112.0;Windows;10;undefined;undefined;1366 x 768;1366 x 768
H030;31;Vrouwelijk;Rechts;2;20;left;no;300;leftarrow;326;true;focus;yes;323260;Chrome;112.0;Windows;10;undefined;undefined;1366 x 768;1366 x 768
H030;31;Vrouwelijk;Rechts;2;21;left;no;300;leftarrow;356;true;focus;yes;324393;Chrome;112.0;Windows;10;undefined;undefined;1366 x 768;1366 x 768
H030;31;Vrouwelijk;Rechts;2;22;right;no;300;rightarrow;402;true;focus;yes;325567;Chrome;112.0;Windows;10;undefined;undefined;1366 x 768;1366 x 768
H030;31;Vrouwelijk;Rechts;2;23;left;yes;300;leftarrow;423;false;focus;yes;326764;Chrome;112.0;Windows;10;undefined;undefined;1366 x 768;1366 x 768
H030;31;Vrouwelijk;Rechts;2;24;right;no;250;rightarrow;316;true;focus;yes;327845;Chrome;112.0;Windows;10;undefined;undefined;1366 x 768;1366 x 768
H030;31;Vrouwelijk;Rechts;2;25;right;no;250;rightarrow;410;true;focus;yes;329027;Chrome;112.0;Windows;10;undefined;undefined;1366 x 768;1366 x 768
H030;31;Vrouwelijk;Rechts;2;26;left;yes;250;leftarrow;378;false;focus;yes;330168;Chrome;112.0;Windows;10;undefined;undefined;1366 x 768;1366 x 768
H030;31;Vrouwelijk;Rechts;2;27;right;yes;200;rightarrow;370;false;focus;yes;331299;Chrome;112.0;Windows;10;undefined;undefined;1366 x 768;1366 x 768
H030;31;Vrouwelijk;Rechts;2;28;right;no;150;rightarrow;489;true;focus;yes;332565;Chrome;112.0;Windows;10;undefined;undefined;1366 x 768;1366 x 768
H030;31;Vrouwelijk;Rechts;2;29;right;no;150;rightarrow;410;true;focus;yes;333746;Chrome;112.0;Windows;10;undefined;undefined;1366 x 768;1366 x 768
H030;31;Vrouwelijk;Rechts;2;30;left;no;150;leftarrow;432;true;focus;yes;334939;Chrome;112.0;Windows;10;undefined;undefined;1366 x 768;1366 x 768
H030;31;Vrouwelijk;Rechts;2;31;left;no;150;leftarrow;394;true;focus;yes;336111;Chrome;112.0;Windows;10;undefined;undefined;1366 x 768;1366 x 768
H030;31;Vrouwelijk;Rechts;2;32;left;no;150;leftarrow;334;true;focus;yes;337202;Chrome;112.0;Windows;10;undefined;undefined;1366 x 768;1366 x 768
H030;31;Vrouwelijk;Rechts;2;33;right;no;150;rightarrow;463;true;focus;yes;338446;Chrome;112.0;Windows;10;undefined;undefined;1366 x 768;1366 x 768
H030;31;Vrouwelijk;Rechts;2;34;left;no;150;leftarrow;475;true;focus;yes;339700;Chrome;112.0;Windows;10;undefined;undefined;1366 x 768;1366 x 768
H030;31;Vrouwelijk;Rechts;2;35;right;yes;150;undefined;null;true;focus;yes;341736;Chrome;112.0;Windows;10;undefined;undefined;1366 x 768;1366 x 768
H030;31;Vrouwelijk;Rechts;2;36;right;no;200;rightarrow;358;true;focus;yes;342874;Chrome;112.0;Windows;10;undefined;undefined;1366 x 768;1366 x 768
H030;31;Vrouwelijk;Rechts;2;37;left;no;200;leftarrow;381;true;focus;yes;344031;Chrome;112.0;Windows;10;undefined;undefined;1366 x 768;1366 x 768
H030;31;Vrouwelijk;Rechts;2;38;right;no;200;rightarrow;445;true;focus;yes;345239;Chrome;112.0;Windows;10;undefined;undefined;1366 x 768;1366 x 768
H030;31;Vrouwelijk;Rechts;2;39;left;no;200;leftarrow;443;true;focus;yes;346455;Chrome;112.0;Windows;10;undefined;undefined;1366 x 768;1366 x 768
H030;31;Vrouwelijk;Rechts;2;40;left;yes;200;undefined;null;true;focus;yes;348482;Chrome;112.0;Windows;10;undefined;undefined;1366 x 768;1366 x 768
H030;31;Vrouwelijk;Rechts;2;41;right;no;250;rightarrow;364;true;focus;yes;349618;Chrome;112.0;Windows;10;undefined;undefined;1366 x 768;1366 x 768
H030;31;Vrouwelijk;Rechts;2;42;left;no;250;leftarrow;377;true;focus;yes;350771;Chrome;112.0;Windows;10;undefined;undefined;1366 x 768;1366 x 768
H030;31;Vrouwelijk;Rechts;2;43;left;no;250;leftarrow;395;true;focus;yes;351933;Chrome;112.0;Windows;10;undefined;undefined;1366 x 768;1366 x 768
H030;31;Vrouwelijk;Rechts;2;44;left;yes;250;leftarrow;442;false;focus;yes;353150;Chrome;112.0;Windows;10;undefined;undefined;1366 x 768;1366 x 768
H030;31;Vrouwelijk;Rechts;2;45;right;yes;200;rightarrow;342;false;focus;yes;354255;Chrome;112.0;Windows;10;undefined;undefined;1366 x 768;1366 x 768
H030;31;Vrouwelijk;Rechts;2;46;left;no;150;leftarrow;535;true;focus;yes;355561;Chrome;112.0;Windows;10;undefined;undefined;1366 x 768;1366 x 768
H030;31;Vrouwelijk;Rechts;2;47;right;no;150;rightarrow;507;true;focus;yes;356838;Chrome;112.0;Windows;10;undefined;undefined;1366 x 768;1366 x 768
H030;31;Vrouwelijk;Rechts;2;48;right;no;150;rightarrow;1128;true;focus;yes;358750;Chrome;112.0;Windows;10;undefined;undefined;1366 x 768;1366 x 768
H030;31;Vrouwelijk;Rechts;2;49;left;no;150;leftarrow;426;true;focus;yes;359954;Chrome;112.0;Windows;10;undefined;undefined;1366 x 768;1366 x 768
H030;31;Vrouwelijk;Rechts;2;50;right;yes;150;undefined;null;true;focus;yes;361990;Chrome;112.0;Windows;10;undefined;undefined;1366 x 768;1366 x 768
H030;31;Vrouwelijk;Rechts;2;51;right;no;200;rightarrow;371;true;focus;yes;363137;Chrome;112.0;Windows;10;undefined;undefined;1366 x 768;1366 x 768
H030;31;Vrouwelijk;Rechts;2;52;right;no;200;rightarrow;423;true;focus;yes;364324;Chrome;112.0;Windows;10;undefined;undefined;1366 x 768;1366 x 768
H030;31;Vrouwelijk;Rechts;2;53;right;no;200;rightarrow;410;true;focus;yes;365496;Chrome;112.0;Windows;10;undefined;undefined;1366 x 768;1366 x 768
H030;31;Vrouwelijk;Rechts;2;54;left;no;200;leftarrow;482;true;focus;yes;366749;Chrome;112.0;Windows;10;undefined;undefined;1366 x 768;1366 x 768
H030;31;Vrouwelijk;Rechts;2;55;left;no;200;leftarrow;466;true;focus;yes;367973;Chrome;112.0;Windows;10;undefined;undefined;1366 x 768;1366 x 768
H030;31;Vrouwelijk;Rechts;2;56;left;yes;200;undefined;null;true;focus;yes;370003;Chrome;112.0;Windows;10;undefined;undefined;1366 x 768;1366 x 768
H030;31;Vrouwelijk;Rechts;2;57;left;no;250;leftarrow;353;true;focus;yes;371127;Chrome;112.0;Windows;10;undefined;undefined;1366 x 768;1366 x 768
H030;31;Vrouwelijk;Rechts;2;58;right;yes;250;rightarrow;418;false;focus;yes;372318;Chrome;112.0;Windows;10;undefined;undefined;1366 x 768;1366 x 768
H030;31;Vrouwelijk;Rechts;2;59;left;yes;200;undefined;null;true;focus;yes;374343;Chrome;112.0;Windows;10;undefined;undefined;1366 x 768;1366 x 768
H030;31;Vrouwelijk;Rechts;2;60;right;no;250;rightarrow;424;true;focus;yes;375547;Chrome;112.0;Windows;10;undefined;undefined;1366 x 768;1366 x 768
H030;31;Vrouwelijk;Rechts;2;61;left;no;250;leftarrow;491;true;focus;yes;376808;Chrome;112.0;Windows;10;undefined;undefined;1366 x 768;1366 x 768
H030;31;Vrouwelijk;Rechts;2;62;right;no;250;rightarrow;439;true;focus;yes;378018;Chrome;112.0;Windows;10;undefined;undefined;1366 x 768;1366 x 768
H030;31;Vrouwelijk;Rechts;2;63;right;no;250;rightarrow;516;true;focus;yes;379314;Chrome;112.0;Windows;10;undefined;undefined;1366 x 768;1366 x 768
H030;31;Vrouwelijk;Rechts;2;64;left;no;250;leftarrow;492;true;focus;yes;380565;Chrome;112.0;Windows;10;undefined;undefined;1366 x 768;1366 x 768
H030;31;Vrouwelijk;Rechts;2;65;right;no;250;rightarrow;494;true;focus;yes;381842;Chrome;112.0;Windows;10;undefined;undefined;1366 x 768;1366 x 768
H030;31;Vrouwelijk;Rechts;2;66;right;no;250;rightarrow;526;true;focus;yes;383148;Chrome;112.0;Windows;10;undefined;undefined;1366 x 768;1366 x 768
H030;31;Vrouwelijk;Rechts;2;67;left;yes;250;undefined;null;true;focus;yes;385182;Chrome;112.0;Windows;10;undefined;undefined;1366 x 768;1366 x 768
H030;31;Vrouwelijk;Rechts;2;68;left;no;300;leftarrow;431;true;focus;yes;386391;Chrome;112.0;Windows;10;undefined;undefined;1366 x 768;1366 x 768
H030;31;Vrouwelijk;Rechts;2;69;right;no;300;rightarrow;562;true;focus;yes;387722;Chrome;112.0;Windows;10;undefined;undefined;1366 x 768;1366 x 768
H030;31;Vrouwelijk;Rechts;2;70;right;yes;300;rightarrow;378;false;focus;yes;388868;Chrome;112.0;Windows;10;undefined;undefined;1366 x 768;1366 x 768
H030;31;Vrouwelijk;Rechts;2;71;left;no;250;leftarrow;509;true;focus;yes;390156;Chrome;112.0;Windows;10;undefined;undefined;1366 x 768;1366 x 768
H030;31;Vrouwelijk;Rechts;2;72;left;no;250;leftarrow;516;true;focus;yes;391441;Chrome;112.0;Windows;10;undefined;undefined;1366 x 768;1366 x 768
H030;31;Vrouwelijk;Rechts;2;73;right;no;250;rightarrow;435;true;focus;yes;392635;Chrome;112.0;Windows;10;undefined;undefined;1366 x 768;1366 x 768
H030;31;Vrouwelijk;Rechts;2;74;left;yes;250;undefined;null;true;focus;yes;394659;Chrome;112.0;Windows;10;undefined;undefined;1366 x 768;1366 x 768
H030;31;Vrouwelijk;Rechts;2;75;right;no;300;rightarrow;360;true;focus;yes;395788;Chrome;112.0;Windows;10;undefined;undefined;1366 x 768;1366 x 768
H030;31;Vrouwelijk;Rechts;2;76;left;no;300;leftarrow;476;true;focus;yes;397019;Chrome;112.0;Windows;10;undefined;undefined;1366 x 768;1366 x 768
H030;31;Vrouwelijk;Rechts;2;77;right;no;300;rightarrow;430;true;focus;yes;398227;Chrome;112.0;Windows;10;undefined;undefined;1366 x 768;1366 x 768
H030;31;Vrouwelijk;Rechts;2;78;left;no;300;leftarrow;447;true;focus;yes;399454;Chrome;112.0;Windows;10;undefined;undefined;1366 x 768;1366 x 768
H030;31;Vrouwelijk;Rechts;2;79;left;no;300;leftarrow;484;true;focus;yes;400703;Chrome;112.0;Windows;10;undefined;undefined;1366 x 768;1366 x 768
H030;31;Vrouwelijk;Rechts;2;80;right;yes;300;rightarrow;444;false;focus;yes;401926;Chrome;112.0;Windows;10;undefined;undefined;1366 x 768;1366 x 768
H030;31;Vrouwelijk;Rechts;2;81;left;no;250;leftarrow;457;true;focus;yes;403157;Chrome;112.0;Windows;10;undefined;undefined;1366 x 768;1366 x 768
H030;31;Vrouwelijk;Rechts;2;82;right;no;250;rightarrow;432;true;focus;yes;404362;Chrome;112.0;Windows;10;undefined;undefined;1366 x 768;1366 x 768
H030;31;Vrouwelijk;Rechts;2;83;right;no;250;rightarrow;428;true;focus;yes;405556;Chrome;112.0;Windows;10;undefined;undefined;1366 x 768;1366 x 768
H030;31;Vrouwelijk;Rechts;2;84;right;yes;250;undefined;null;true;focus;yes;407572;Chrome;112.0;Windows;10;undefined;undefined;1366 x 768;1366 x 768
H030;31;Vrouwelijk;Rechts;2;85;left;yes;300;leftarrow;333;false;focus;yes;408678;Chrome;112.0;Windows;10;undefined;undefined;1366 x 768;1366 x 768
H030;31;Vrouwelijk;Rechts;2;86;left;no;250;leftarrow;401;true;focus;yes;409841;Chrome;112.0;Windows;10;undefined;undefined;1366 x 768;1366 x 768
H030;31;Vrouwelijk;Rechts;2;87;right;no;250;rightarrow;491;true;focus;yes;411110;Chrome;112.0;Windows;10;undefined;undefined;1366 x 768;1366 x 768
H030;31;Vrouwelijk;Rechts;2;88;left;no;250;leftarrow;497;true;focus;yes;412390;Chrome;112.0;Windows;10;undefined;undefined;1366 x 768;1366 x 768
H030;31;Vrouwelijk;Rechts;2;89;left;yes;250;undefined;null;true;focus;yes;414415;Chrome;112.0;Windows;10;undefined;undefined;1366 x 768;1366 x 768
H030;31;Vrouwelijk;Rechts;2;90;right;no;300;rightarrow;401;true;focus;yes;415597;Chrome;112.0;Windows;10;undefined;undefined;1366 x 768;1366 x 768
H030;31;Vrouwelijk;Rechts;2;91;right;no;300;rightarrow;442;true;focus;yes;416803;Chrome;112.0;Windows;10;undefined;undefined;1366 x 768;1366 x 768
H030;31;Vrouwelijk;Rechts;2;92;left;no;300;leftarrow;362;true;focus;yes;417938;Chrome;112.0;Windows;10;undefined;undefined;1366 x 768;1366 x 768
H030;31;Vrouwelijk;Rechts;2;93;left;no;300;leftarrow;453;true;focus;yes;419168;Chrome;112.0;Windows;10;undefined;undefined;1366 x 768;1366 x 768
H030;31;Vrouwelijk;Rechts;2;94;right;yes;300;rightarrow;445;false;focus;yes;420392;Chrome;112.0;Windows;10;undefined;undefined;1366 x 768;1366 x 768
H030;31;Vrouwelijk;Rechts;2;95;right;no;250;rightarrow;535;true;focus;yes;421696;Chrome;112.0;Windows;10;undefined;undefined;1366 x 768;1366 x 768
H030;31;Vrouwelijk;Rechts;2;96;left;no;250;leftarrow;527;true;focus;yes;423003;Chrome;112.0;Windows;10;undefined;undefined;1366 x 768;1366 x 768
H030;31;Vrouwelijk;Rechts;2;97;left;yes;250;undefined;null;true;focus;yes;425024;Chrome;112.0;Windows;10;undefined;undefined;1366 x 768;1366 x 768
H030;31;Vrouwelijk;Rechts;2;98;right;no;300;rightarrow;374;true;focus;yes;426183;Chrome;112.0;Windows;10;undefined;undefined;1366 x 768;1366 x 768
H030;31;Vrouwelijk;Rechts;2;99;right;yes;300;rightarrow;446;false;focus;yes;427407;Chrome;112.0;Windows;10;undefined;undefined;1366 x 768;1366 x 768
H030;31;Vrouwelijk;Rechts;2;100;left;no;250;leftarrow;451;true;focus;yes;428629;Chrome;112.0;Windows;10;undefined;undefined;1366 x 768;1366 x 768
H030;31;Vrouwelijk;Rechts;2;101;right;no;250;rightarrow;409;true;focus;yes;429804;Chrome;112.0;Windows;10;undefined;undefined;1366 x 768;1366 x 768
H030;31;Vrouwelijk;Rechts;2;102;right;no;250;rightarrow;383;true;focus;yes;430964;Chrome;112.0;Windows;10;undefined;undefined;1366 x 768;1366 x 768
H030;31;Vrouwelijk;Rechts;2;103;left;no;250;leftarrow;524;true;focus;yes;432263;Chrome;112.0;Windows;10;undefined;undefined;1366 x 768;1366 x 768
H030;31;Vrouwelijk;Rechts;2;104;left;no;250;leftarrow;483;true;focus;yes;433517;Chrome;112.0;Windows;10;undefined;undefined;1366 x 768;1366 x 768
H030;31;Vrouwelijk;Rechts;2;105;right;no;250;rightarrow;456;true;focus;yes;434729;Chrome;112.0;Windows;10;undefined;undefined;1366 x 768;1366 x 768
H030;31;Vrouwelijk;Rechts;2;106;left;no;250;leftarrow;512;true;focus;yes;436010;Chrome;112.0;Windows;10;undefined;undefined;1366 x 768;1366 x 768
H030;31;Vrouwelijk;Rechts;2;107;left;yes;250;undefined;null;true;focus;yes;438046;Chrome;112.0;Windows;10;undefined;undefined;1366 x 768;1366 x 768
H030;31;Vrouwelijk;Rechts;2;108;left;no;300;leftarrow;304;true;focus;yes;439125;Chrome;112.0;Windows;10;undefined;undefined;1366 x 768;1366 x 768
H030;31;Vrouwelijk;Rechts;2;109;left;no;300;leftarrow;427;true;focus;yes;440322;Chrome;112.0;Windows;10;undefined;undefined;1366 x 768;1366 x 768
H030;31;Vrouwelijk;Rechts;2;110;right;no;300;rightarrow;508;true;focus;yes;441604;Chrome;112.0;Windows;10;undefined;undefined;1366 x 768;1366 x 768
H030;31;Vrouwelijk;Rechts;2;111;right;no;300;rightarrow;542;true;focus;yes;442919;Chrome;112.0;Windows;10;undefined;undefined;1366 x 768;1366 x 768
H030;31;Vrouwelijk;Rechts;2;112;right;yes;300;undefined;null;true;focus;yes;444955;Chrome;112.0;Windows;10;undefined;undefined;1366 x 768;1366 x 768
H030;31;Vrouwelijk;Rechts;2;113;left;no;350;leftarrow;322;true;focus;yes;446044;Chrome;112.0;Windows;10;undefined;undefined;1366 x 768;1366 x 768
H030;31;Vrouwelijk;Rechts;2;114;left;no;350;leftarrow;455;true;focus;yes;447273;Chrome;112.0;Windows;10;undefined;undefined;1366 x 768;1366 x 768
H030;31;Vrouwelijk;Rechts;2;115;left;yes;350;leftarrow;469;false;focus;yes;448516;Chrome;112.0;Windows;10;undefined;undefined;1366 x 768;1366 x 768
H030;31;Vrouwelijk;Rechts;2;116;right;no;300;rightarrow;484;true;focus;yes;449765;Chrome;112.0;Windows;10;undefined;undefined;1366 x 768;1366 x 768
H030;31;Vrouwelijk;Rechts;2;117;right;no;300;rightarrow;504;true;focus;yes;451046;Chrome;112.0;Windows;10;undefined;undefined;1366 x 768;1366 x 768
H030;31;Vrouwelijk;Rechts;2;118;left;no;300;leftarrow;544;true;focus;yes;452359;Chrome;112.0;Windows;10;undefined;undefined;1366 x 768;1366 x 768
H030;31;Vrouwelijk;Rechts;2;119;right;no;300;rightarrow;534;true;focus;yes;453673;Chrome;112.0;Windows;10;undefined;undefined;1366 x 768;1366 x 768
H030;31;Vrouwelijk;Rechts;2;120;right;yes;300;rightarrow;453;false;focus;yes;454900;Chrome;112.0;Windows;10;undefined;undefined;1366 x 768;1366 x 768
H030;31;Vrouwelijk;Rechts;2;121;right;no;250;rightarrow;513;true;focus;yes;456181;Chrome;112.0;Windows;10;undefined;undefined;1366 x 768;1366 x 768
H030;31;Vrouwelijk;Rechts;2;122;left;no;250;leftarrow;499;true;focus;yes;457461;Chrome;112.0;Windows;10;undefined;undefined;1366 x 768;1366 x 768
H030;31;Vrouwelijk;Rechts;2;123;left;yes;250;undefined;null;true;focus;yes;459482;Chrome;112.0;Windows;10;undefined;undefined;1366 x 768;1366 x 768
H030;31;Vrouwelijk;Rechts;2;124;right;no;300;rightarrow;369;true;focus;yes;460630;Chrome;112.0;Windows;10;undefined;undefined;1366 x 768;1366 x 768
H030;31;Vrouwelijk;Rechts;2;125;right;no;300;rightarrow;466;true;focus;yes;461866;Chrome;112.0;Windows;10;undefined;undefined;1366 x 768;1366 x 768
H030;31;Vrouwelijk;Rechts;2;126;left;no;300;leftarrow;544;true;focus;yes;463174;Chrome;112.0;Windows;10;undefined;undefined;1366 x 768;1366 x 768
H030;31;Vrouwelijk;Rechts;2;127;left;no;300;leftarrow;484;true;focus;yes;464433;Chrome;112.0;Windows;10;undefined;undefined;1366 x 768;1366 x 768
H030;31;Vrouwelijk;Rechts;2;128;right;yes;300;rightarrow;509;false;focus;yes;465718;Chrome;112.0;Windows;10;undefined;undefined;1366 x 768;1366 x 768
H030;31;Vrouwelijk;Rechts;3;1;right;no;250;rightarrow;457;true;focus;yes;485322;Chrome;112.0;Windows;10;undefined;undefined;1366 x 768;1366 x 768
H030;31;Vrouwelijk;Rechts;3;2;right;no;250;rightarrow;404;true;focus;yes;486494;Chrome;112.0;Windows;10;undefined;undefined;1366 x 768;1366 x 768
H030;31;Vrouwelijk;Rechts;3;3;left;no;250;leftarrow;386;true;focus;yes;487647;Chrome;112.0;Windows;10;undefined;undefined;1366 x 768;1366 x 768
H030;31;Vrouwelijk;Rechts;3;4;left;no;250;leftarrow;451;true;focus;yes;488874;Chrome;112.0;Windows;10;undefined;undefined;1366 x 768;1366 x 768
H030;31;Vrouwelijk;Rechts;3;5;left;yes;250;leftarrow;446;false;focus;yes;490100;Chrome;112.0;Windows;10;undefined;undefined;1366 x 768;1366 x 768
H030;31;Vrouwelijk;Rechts;3;6;left;no;200;leftarrow;534;true;focus;yes;491401;Chrome;112.0;Windows;10;undefined;undefined;1366 x 768;1366 x 768
H030;31;Vrouwelijk;Rechts;3;7;right;yes;200;undefined;null;true;focus;yes;493421;Chrome;112.0;Windows;10;undefined;undefined;1366 x 768;1366 x 768
H030;31;Vrouwelijk;Rechts;3;8;right;no;250;rightarrow;440;true;focus;yes;494639;Chrome;112.0;Windows;10;undefined;undefined;1366 x 768;1366 x 768
H030;31;Vrouwelijk;Rechts;3;9;right;no;250;rightarrow;493;true;focus;yes;495902;Chrome;112.0;Windows;10;undefined;undefined;1366 x 768;1366 x 768
H030;31;Vrouwelijk;Rechts;3;10;left;no;250;leftarrow;471;true;focus;yes;497149;Chrome;112.0;Windows;10;undefined;undefined;1366 x 768;1366 x 768
H030;31;Vrouwelijk;Rechts;3;11;left;no;250;leftarrow;576;true;focus;yes;498490;Chrome;112.0;Windows;10;undefined;undefined;1366 x 768;1366 x 768
H030;31;Vrouwelijk;Rechts;3;12;right;yes;250;undefined;null;true;focus;yes;500521;Chrome;112.0;Windows;10;undefined;undefined;1366 x 768;1366 x 768
H030;31;Vrouwelijk;Rechts;3;13;right;no;300;rightarrow;387;true;focus;yes;501675;Chrome;112.0;Windows;10;undefined;undefined;1366 x 768;1366 x 768
H030;31;Vrouwelijk;Rechts;3;14;left;yes;300;leftarrow;334;false;focus;yes;502790;Chrome;112.0;Windows;10;undefined;undefined;1366 x 768;1366 x 768
H030;31;Vrouwelijk;Rechts;3;15;left;no;250;leftarrow;585;true;focus;yes;504152;Chrome;112.0;Windows;10;undefined;undefined;1366 x 768;1366 x 768
H030;31;Vrouwelijk;Rechts;3;16;right;no;250;rightarrow;408;true;focus;yes;505321;Chrome;112.0;Windows;10;undefined;undefined;1366 x 768;1366 x 768
H030;31;Vrouwelijk;Rechts;3;17;right;no;250;rightarrow;470;true;focus;yes;506564;Chrome;112.0;Windows;10;undefined;undefined;1366 x 768;1366 x 768
H030;31;Vrouwelijk;Rechts;3;18;right;yes;250;rightarrow;418;false;focus;yes;507752;Chrome;112.0;Windows;10;undefined;undefined;1366 x 768;1366 x 768
H030;31;Vrouwelijk;Rechts;3;19;left;no;200;leftarrow;302;true;focus;yes;508822;Chrome;112.0;Windows;10;undefined;undefined;1366 x 768;1366 x 768
H030;31;Vrouwelijk;Rechts;3;20;left;no;200;leftarrow;407;true;focus;yes;510006;Chrome;112.0;Windows;10;undefined;undefined;1366 x 768;1366 x 768
H030;31;Vrouwelijk;Rechts;3;21;left;yes;200;undefined;null;true;focus;yes;512038;Chrome;112.0;Windows;10;undefined;undefined;1366 x 768;1366 x 768
H030;31;Vrouwelijk;Rechts;3;22;left;no;250;leftarrow;362;true;focus;yes;513178;Chrome;112.0;Windows;10;undefined;undefined;1366 x 768;1366 x 768
H030;31;Vrouwelijk;Rechts;3;23;right;no;250;rightarrow;408;true;focus;yes;514354;Chrome;112.0;Windows;10;undefined;undefined;1366 x 768;1366 x 768
H030;31;Vrouwelijk;Rechts;3;24;right;no;250;rightarrow;393;true;focus;yes;515523;Chrome;112.0;Windows;10;undefined;undefined;1366 x 768;1366 x 768
H030;31;Vrouwelijk;Rechts;3;25;left;no;250;leftarrow;410;true;focus;yes;516692;Chrome;112.0;Windows;10;undefined;undefined;1366 x 768;1366 x 768
H030;31;Vrouwelijk;Rechts;3;26;left;yes;250;leftarrow;427;false;focus;yes;517888;Chrome;112.0;Windows;10;undefined;undefined;1366 x 768;1366 x 768
H030;31;Vrouwelijk;Rechts;3;27;right;no;200;rightarrow;522;true;focus;yes;519178;Chrome;112.0;Windows;10;undefined;undefined;1366 x 768;1366 x 768
H030;31;Vrouwelijk;Rechts;3;28;right;no;200;rightarrow;471;true;focus;yes;520416;Chrome;112.0;Windows;10;undefined;undefined;1366 x 768;1366 x 768
H030;31;Vrouwelijk;Rechts;3;29;left;no;200;leftarrow;491;true;focus;yes;521683;Chrome;112.0;Windows;10;undefined;undefined;1366 x 768;1366 x 768
H030;31;Vrouwelijk;Rechts;3;30;right;yes;200;undefined;null;true;focus;yes;523713;Chrome;112.0;Windows;10;undefined;undefined;1366 x 768;1366 x 768
H030;31;Vrouwelijk;Rechts;3;31;right;no;250;rightarrow;386;true;focus;yes;524864;Chrome;112.0;Windows;10;undefined;undefined;1366 x 768;1366 x 768
H030;31;Vrouwelijk;Rechts;3;32;left;no;250;leftarrow;287;true;focus;yes;525919;Chrome;112.0;Windows;10;undefined;undefined;1366 x 768;1366 x 768
H030;31;Vrouwelijk;Rechts;3;33;left;no;250;leftarrow;369;true;focus;yes;527061;Chrome;112.0;Windows;10;undefined;undefined;1366 x 768;1366 x 768
H030;31;Vrouwelijk;Rechts;3;34;right;no;250;rightarrow;434;true;focus;yes;528271;Chrome;112.0;Windows;10;undefined;undefined;1366 x 768;1366 x 768
H030;31;Vrouwelijk;Rechts;3;35;right;no;250;rightarrow;381;true;focus;yes;529426;Chrome;112.0;Windows;10;undefined;undefined;1366 x 768;1366 x 768
H030;31;Vrouwelijk;Rechts;3;36;right;no;250;rightarrow;449;true;focus;yes;530636;Chrome;112.0;Windows;10;undefined;undefined;1366 x 768;1366 x 768
H030;31;Vrouwelijk;Rechts;3;37;left;no;250;leftarrow;288;true;focus;yes;531692;Chrome;112.0;Windows;10;undefined;undefined;1366 x 768;1366 x 768
H030;31;Vrouwelijk;Rechts;3;38;left;yes;250;undefined;null;true;focus;yes;533716;Chrome;112.0;Windows;10;undefined;undefined;1366 x 768;1366 x 768
H030;31;Vrouwelijk;Rechts;3;39;right;yes;300;rightarrow;324;false;focus;yes;534823;Chrome;112.0;Windows;10;undefined;undefined;1366 x 768;1366 x 768
H030;31;Vrouwelijk;Rechts;3;40;left;no;250;leftarrow;265;true;focus;yes;535858;Chrome;112.0;Windows;10;undefined;undefined;1366 x 768;1366 x 768
H030;31;Vrouwelijk;Rechts;3;41;right;no;250;rightarrow;351;true;focus;yes;536981;Chrome;112.0;Windows;10;undefined;undefined;1366 x 768;1366 x 768
H030;31;Vrouwelijk;Rechts;3;42;left;no;250;leftarrow;281;true;focus;yes;538030;Chrome;112.0;Windows;10;undefined;undefined;1366 x 768;1366 x 768
H030;31;Vrouwelijk;Rechts;3;43;left;yes;250;leftarrow;402;false;focus;yes;539190;Chrome;112.0;Windows;10;undefined;undefined;1366 x 768;1366 x 768
H030;31;Vrouwelijk;Rechts;3;44;right;no;200;rightarrow;341;true;focus;yes;540310;Chrome;112.0;Windows;10;undefined;undefined;1366 x 768;1366 x 768
H030;31;Vrouwelijk;Rechts;3;45;left;no;200;leftarrow;372;true;focus;yes;541451;Chrome;112.0;Windows;10;undefined;undefined;1366 x 768;1366 x 768
H030;31;Vrouwelijk;Rechts;3;46;right;no;200;rightarrow;536;true;focus;yes;542754;Chrome;112.0;Windows;10;undefined;undefined;1366 x 768;1366 x 768
H030;31;Vrouwelijk;Rechts;3;47;left;no;200;leftarrow;339;true;focus;yes;543869;Chrome;112.0;Windows;10;undefined;undefined;1366 x 768;1366 x 768
H030;31;Vrouwelijk;Rechts;3;48;right;yes;200;undefined;null;true;focus;yes;545906;Chrome;112.0;Windows;10;undefined;undefined;1366 x 768;1366 x 768
H030;31;Vrouwelijk;Rechts;3;49;left;yes;250;leftarrow;301;false;focus;yes;546978;Chrome;112.0;Windows;10;undefined;undefined;1366 x 768;1366 x 768
H030;31;Vrouwelijk;Rechts;3;50;right;no;200;rightarrow;409;true;focus;yes;548146;Chrome;112.0;Windows;10;undefined;undefined;1366 x 768;1366 x 768
H030;31;Vrouwelijk;Rechts;3;51;left;no;200;leftarrow;350;true;focus;yes;549266;Chrome;112.0;Windows;10;undefined;undefined;1366 x 768;1366 x 768
H030;31;Vrouwelijk;Rechts;3;52;left;no;200;leftarrow;370;true;focus;yes;550402;Chrome;112.0;Windows;10;undefined;undefined;1366 x 768;1366 x 768
H030;31;Vrouwelijk;Rechts;3;53;right;no;200;rightarrow;358;true;focus;yes;551526;Chrome;112.0;Windows;10;undefined;undefined;1366 x 768;1366 x 768
H030;31;Vrouwelijk;Rechts;3;54;right;no;200;leftarrow;292;false;focus;yes;552598;Chrome;112.0;Windows;10;undefined;undefined;1366 x 768;1366 x 768
H030;31;Vrouwelijk;Rechts;3;55;right;yes;200;rightarrow;303;false;focus;yes;553662;Chrome;112.0;Windows;10;undefined;undefined;1366 x 768;1366 x 768
H030;31;Vrouwelijk;Rechts;3;56;left;no;150;leftarrow;345;true;focus;yes;554773;Chrome;112.0;Windows;10;undefined;undefined;1366 x 768;1366 x 768
H030;31;Vrouwelijk;Rechts;3;57;right;no;150;rightarrow;330;true;focus;yes;555880;Chrome;112.0;Windows;10;undefined;undefined;1366 x 768;1366 x 768
H030;31;Vrouwelijk;Rechts;3;58;left;no;150;leftarrow;376;true;focus;yes;557035;Chrome;112.0;Windows;10;undefined;undefined;1366 x 768;1366 x 768
H030;31;Vrouwelijk;Rechts;3;59;right;no;150;rightarrow;414;true;focus;yes;558228;Chrome;112.0;Windows;10;undefined;undefined;1366 x 768;1366 x 768
H030;31;Vrouwelijk;Rechts;3;60;left;yes;150;leftarrow;366;false;focus;yes;559354;Chrome;112.0;Windows;10;undefined;undefined;1366 x 768;1366 x 768
H030;31;Vrouwelijk;Rechts;3;61;left;no;100;leftarrow;444;true;focus;yes;560566;Chrome;112.0;Windows;10;undefined;undefined;1366 x 768;1366 x 768
H030;31;Vrouwelijk;Rechts;3;62;right;yes;100;undefined;null;true;focus;yes;562600;Chrome;112.0;Windows;10;undefined;undefined;1366 x 768;1366 x 768
H030;31;Vrouwelijk;Rechts;3;63;left;no;150;leftarrow;377;true;focus;yes;563757;Chrome;112.0;Windows;10;undefined;undefined;1366 x 768;1366 x 768
H030;31;Vrouwelijk;Rechts;3;64;right;no;150;rightarrow;401;true;focus;yes;564931;Chrome;112.0;Windows;10;undefined;undefined;1366 x 768;1366 x 768
H030;31;Vrouwelijk;Rechts;3;65;right;no;150;rightarrow;502;true;focus;yes;566202;Chrome;112.0;Windows;10;undefined;undefined;1366 x 768;1366 x 768
H030;31;Vrouwelijk;Rechts;3;66;right;no;150;rightarrow;385;true;focus;yes;567351;Chrome;112.0;Windows;10;undefined;undefined;1366 x 768;1366 x 768
H030;31;Vrouwelijk;Rechts;3;67;left;yes;150;undefined;null;true;focus;yes;569379;Chrome;112.0;Windows;10;undefined;undefined;1366 x 768;1366 x 768
H030;31;Vrouwelijk;Rechts;3;68;right;no;200;rightarrow;369;true;focus;yes;570530;Chrome;112.0;Windows;10;undefined;undefined;1366 x 768;1366 x 768
H030;31;Vrouwelijk;Rechts;3;69;left;no;200;leftarrow;361;true;focus;yes;571669;Chrome;112.0;Windows;10;undefined;undefined;1366 x 768;1366 x 768
H030;31;Vrouwelijk;Rechts;3;70;right;yes;200;rightarrow;394;false;focus;yes;572840;Chrome;112.0;Windows;10;undefined;undefined;1366 x 768;1366 x 768
H030;31;Vrouwelijk;Rechts;3;71;left;no;150;leftarrow;361;true;focus;yes;573975;Chrome;112.0;Windows;10;undefined;undefined;1366 x 768;1366 x 768
H030;31;Vrouwelijk;Rechts;3;72;left;no;150;leftarrow;351;true;focus;yes;575098;Chrome;112.0;Windows;10;undefined;undefined;1366 x 768;1366 x 768
H030;31;Vrouwelijk;Rechts;3;73;right;no;150;rightarrow;381;true;focus;yes;576262;Chrome;112.0;Windows;10;undefined;undefined;1366 x 768;1366 x 768
H030;31;Vrouwelijk;Rechts;3;74;right;no;150;rightarrow;398;true;focus;yes;577427;Chrome;112.0;Windows;10;undefined;undefined;1366 x 768;1366 x 768
H030;31;Vrouwelijk;Rechts;3;75;right;yes;150;undefined;null;true;focus;yes;579470;Chrome;112.0;Windows;10;undefined;undefined;1366 x 768;1366 x 768
H030;31;Vrouwelijk;Rechts;3;76;right;no;200;rightarrow;403;true;focus;yes;580652;Chrome;112.0;Windows;10;undefined;undefined;1366 x 768;1366 x 768
H030;31;Vrouwelijk;Rechts;3;77;left;no;200;leftarrow;337;true;focus;yes;581760;Chrome;112.0;Windows;10;undefined;undefined;1366 x 768;1366 x 768
H030;31;Vrouwelijk;Rechts;3;78;left;no;200;leftarrow;357;true;focus;yes;582896;Chrome;112.0;Windows;10;undefined;undefined;1366 x 768;1366 x 768
H030;31;Vrouwelijk;Rechts;3;79;left;no;200;leftarrow;396;true;focus;yes;584072;Chrome;112.0;Windows;10;undefined;undefined;1366 x 768;1366 x 768
H030;31;Vrouwelijk;Rechts;3;80;left;yes;200;undefined;null;true;focus;yes;586086;Chrome;112.0;Windows;10;undefined;undefined;1366 x 768;1366 x 768
H030;31;Vrouwelijk;Rechts;3;81;left;no;250;leftarrow;358;true;focus;yes;587223;Chrome;112.0;Windows;10;undefined;undefined;1366 x 768;1366 x 768
H030;31;Vrouwelijk;Rechts;3;82;right;yes;250;rightarrow;388;false;focus;yes;588378;Chrome;112.0;Windows;10;undefined;undefined;1366 x 768;1366 x 768
H030;31;Vrouwelijk;Rechts;3;83;left;no;200;leftarrow;314;true;focus;yes;589460;Chrome;112.0;Windows;10;undefined;undefined;1366 x 768;1366 x 768
H030;31;Vrouwelijk;Rechts;3;84;left;yes;200;leftarrow;376;false;focus;yes;590615;Chrome;112.0;Windows;10;undefined;undefined;1366 x 768;1366 x 768
H030;31;Vrouwelijk;Rechts;3;85;left;no;150;leftarrow;386;true;focus;yes;591778;Chrome;112.0;Windows;10;undefined;undefined;1366 x 768;1366 x 768
H030;31;Vrouwelijk;Rechts;3;86;right;no;150;rightarrow;467;true;focus;yes;593025;Chrome;112.0;Windows;10;undefined;undefined;1366 x 768;1366 x 768
H030;31;Vrouwelijk;Rechts;3;87;right;no;150;rightarrow;475;true;focus;yes;594275;Chrome;112.0;Windows;10;undefined;undefined;1366 x 768;1366 x 768
H030;31;Vrouwelijk;Rechts;3;88;right;no;150;rightarrow;420;true;focus;yes;595464;Chrome;112.0;Windows;10;undefined;undefined;1366 x 768;1366 x 768
H030;31;Vrouwelijk;Rechts;3;89;right;yes;150;rightarrow;338;false;focus;yes;596583;Chrome;112.0;Windows;10;undefined;undefined;1366 x 768;1366 x 768
H030;31;Vrouwelijk;Rechts;3;90;right;no;100;rightarrow;440;true;focus;yes;597803;Chrome;112.0;Windows;10;undefined;undefined;1366 x 768;1366 x 768
H030;31;Vrouwelijk;Rechts;3;91;left;no;100;leftarrow;375;true;focus;yes;598957;Chrome;112.0;Windows;10;undefined;undefined;1366 x 768;1366 x 768
H030;31;Vrouwelijk;Rechts;3;92;right;no;100;rightarrow;555;true;focus;yes;600290;Chrome;112.0;Windows;10;undefined;undefined;1366 x 768;1366 x 768
H030;31;Vrouwelijk;Rechts;3;93;left;yes;100;undefined;null;true;focus;yes;602327;Chrome;112.0;Windows;10;undefined;undefined;1366 x 768;1366 x 768
H030;31;Vrouwelijk;Rechts;3;94;left;no;150;leftarrow;317;true;focus;yes;603423;Chrome;112.0;Windows;10;undefined;undefined;1366 x 768;1366 x 768
H030;31;Vrouwelijk;Rechts;3;95;left;no;150;leftarrow;356;true;focus;yes;604553;Chrome;112.0;Windows;10;undefined;undefined;1366 x 768;1366 x 768
H030;31;Vrouwelijk;Rechts;3;96;right;no;150;rightarrow;487;true;focus;yes;605819;Chrome;112.0;Windows;10;undefined;undefined;1366 x 768;1366 x 768
H030;31;Vrouwelijk;Rechts;3;97;right;yes;150;undefined;null;true;focus;yes;607847;Chrome;112.0;Windows;10;undefined;undefined;1366 x 768;1366 x 768
H030;31;Vrouwelijk;Rechts;3;98;right;no;200;rightarrow;410;true;focus;yes;609036;Chrome;112.0;Windows;10;undefined;undefined;1366 x 768;1366 x 768
H030;31;Vrouwelijk;Rechts;3;99;right;no;200;rightarrow;344;true;focus;yes;610153;Chrome;112.0;Windows;10;undefined;undefined;1366 x 768;1366 x 768
H030;31;Vrouwelijk;Rechts;3;100;left;no;200;leftarrow;336;true;focus;yes;611266;Chrome;112.0;Windows;10;undefined;undefined;1366 x 768;1366 x 768
H030;31;Vrouwelijk;Rechts;3;101;left;no;200;leftarrow;288;true;focus;yes;612312;Chrome;112.0;Windows;10;undefined;undefined;1366 x 768;1366 x 768
H030;31;Vrouwelijk;Rechts;3;102;right;no;200;rightarrow;386;true;focus;yes;613471;Chrome;112.0;Windows;10;undefined;undefined;1366 x 768;1366 x 768
H030;31;Vrouwelijk;Rechts;3;103;left;no;200;leftarrow;333;true;focus;yes;614571;Chrome;112.0;Windows;10;undefined;undefined;1366 x 768;1366 x 768
H030;31;Vrouwelijk;Rechts;3;104;left;yes;200;leftarrow;331;false;focus;yes;615679;Chrome;112.0;Windows;10;undefined;undefined;1366 x 768;1366 x 768
H030;31;Vrouwelijk;Rechts;3;105;right;no;150;rightarrow;302;true;focus;yes;616751;Chrome;112.0;Windows;10;undefined;undefined;1366 x 768;1366 x 768
H030;31;Vrouwelijk;Rechts;3;106;right;yes;150;rightarrow;332;false;focus;yes;617852;Chrome;112.0;Windows;10;undefined;undefined;1366 x 768;1366 x 768
H030;31;Vrouwelijk;Rechts;3;107;left;yes;100;leftarrow;307;false;focus;yes;618925;Chrome;112.0;Windows;10;undefined;undefined;1366 x 768;1366 x 768
H030;31;Vrouwelijk;Rechts;3;108;right;no;50;rightarrow;417;true;focus;yes;620113;Chrome;112.0;Windows;10;undefined;undefined;1366 x 768;1366 x 768
H030;31;Vrouwelijk;Rechts;3;109;left;no;50;leftarrow;354;true;focus;yes;621252;Chrome;112.0;Windows;10;undefined;undefined;1366 x 768;1366 x 768
H030;31;Vrouwelijk;Rechts;3;110;left;no;50;leftarrow;353;true;focus;yes;622375;Chrome;112.0;Windows;10;undefined;undefined;1366 x 768;1366 x 768
H030;31;Vrouwelijk;Rechts;3;111;right;no;50;rightarrow;486;true;focus;yes;623632;Chrome;112.0;Windows;10;undefined;undefined;1366 x 768;1366 x 768
H030;31;Vrouwelijk;Rechts;3;112;left;no;50;leftarrow;343;true;focus;yes;624739;Chrome;112.0;Windows;10;undefined;undefined;1366 x 768;1366 x 768
H030;31;Vrouwelijk;Rechts;3;113;right;yes;50;undefined;null;true;focus;yes;626757;Chrome;112.0;Windows;10;undefined;undefined;1366 x 768;1366 x 768
H030;31;Vrouwelijk;Rechts;3;114;left;yes;100;undefined;null;true;focus;yes;628779;Chrome;112.0;Windows;10;undefined;undefined;1366 x 768;1366 x 768
H030;31;Vrouwelijk;Rechts;3;115;left;no;150;leftarrow;371;true;focus;yes;629906;Chrome;112.0;Windows;10;undefined;undefined;1366 x 768;1366 x 768
H030;31;Vrouwelijk;Rechts;3;116;right;no;150;rightarrow;360;true;focus;yes;631040;Chrome;112.0;Windows;10;undefined;undefined;1366 x 768;1366 x 768
H030;31;Vrouwelijk;Rechts;3;117;right;no;150;rightarrow;349;true;focus;yes;632165;Chrome;112.0;Windows;10;undefined;undefined;1366 x 768;1366 x 768
H030;31;Vrouwelijk;Rechts;3;118;right;no;150;rightarrow;384;true;focus;yes;633323;Chrome;112.0;Windows;10;undefined;undefined;1366 x 768;1366 x 768
H030;31;Vrouwelijk;Rechts;3;119;left;no;150;leftarrow;436;true;focus;yes;634539;Chrome;112.0;Windows;10;undefined;undefined;1366 x 768;1366 x 768
H030;31;Vrouwelijk;Rechts;3;120;left;no;150;leftarrow;376;true;focus;yes;635691;Chrome;112.0;Windows;10;undefined;undefined;1366 x 768;1366 x 768
H030;31;Vrouwelijk;Rechts;3;121;right;no;150;rightarrow;400;true;focus;yes;636860;Chrome;112.0;Windows;10;undefined;undefined;1366 x 768;1366 x 768
H030;31;Vrouwelijk;Rechts;3;122;left;no;150;leftarrow;323;true;focus;yes;637966;Chrome;112.0;Windows;10;undefined;undefined;1366 x 768;1366 x 768
H030;31;Vrouwelijk;Rechts;3;123;left;no;150;leftarrow;373;true;focus;yes;639107;Chrome;112.0;Windows;10;undefined;undefined;1366 x 768;1366 x 768
H030;31;Vrouwelijk;Rechts;3;124;right;no;150;rightarrow;446;true;focus;yes;640331;Chrome;112.0;Windows;10;undefined;undefined;1366 x 768;1366 x 768
H030;31;Vrouwelijk;Rechts;3;125;left;yes;150;undefined;null;true;focus;yes;642360;Chrome;112.0;Windows;10;undefined;undefined;1366 x 768;1366 x 768
H030;31;Vrouwelijk;Rechts;3;126;right;no;200;rightarrow;371;true;focus;yes;643506;Chrome;112.0;Windows;10;undefined;undefined;1366 x 768;1366 x 768
H030;31;Vrouwelijk;Rechts;3;127;right;yes;200;rightarrow;482;false;focus;yes;644755;Chrome;112.0;Windows;10;undefined;undefined;1366 x 768;1366 x 768
H030;31;Vrouwelijk;Rechts;3;128;left;no;150;leftarrow;339;true;focus;yes;645871;Chrome;112.0;Windows;10;undefined;undefined;1366 x 768;1366 x 768
H030;31;Vrouwelijk;Rechts;4;1;left;no;150;leftarrow;348;true;focus;yes;665297;Chrome;112.0;Windows;10;undefined;undefined;1366 x 768;1366 x 768
H030;31;Vrouwelijk;Rechts;4;2;left;yes;150;leftarrow;317;false;focus;yes;666383;Chrome;112.0;Windows;10;undefined;undefined;1366 x 768;1366 x 768
H030;31;Vrouwelijk;Rechts;4;3;right;no;100;rightarrow;819;true;focus;yes;667969;Chrome;112.0;Windows;10;undefined;undefined;1366 x 768;1366 x 768
H030;31;Vrouwelijk;Rechts;4;4;right;yes;100;undefined;null;true;focus;yes;669993;Chrome;112.0;Windows;10;undefined;undefined;1366 x 768;1366 x 768
H030;31;Vrouwelijk;Rechts;4;5;right;no;150;rightarrow;446;true;focus;yes;671217;Chrome;112.0;Windows;10;undefined;undefined;1366 x 768;1366 x 768
H030;31;Vrouwelijk;Rechts;4;6;left;no;150;leftarrow;478;true;focus;yes;672456;Chrome;112.0;Windows;10;undefined;undefined;1366 x 768;1366 x 768
H030;31;Vrouwelijk;Rechts;4;7;right;no;150;rightarrow;398;true;focus;yes;673625;Chrome;112.0;Windows;10;undefined;undefined;1366 x 768;1366 x 768
H030;31;Vrouwelijk;Rechts;4;8;left;no;150;leftarrow;380;true;focus;yes;674770;Chrome;112.0;Windows;10;undefined;undefined;1366 x 768;1366 x 768
H030;31;Vrouwelijk;Rechts;4;9;left;yes;150;undefined;null;true;focus;yes;676791;Chrome;112.0;Windows;10;undefined;undefined;1366 x 768;1366 x 768
H030;31;Vrouwelijk;Rechts;4;10;right;yes;200;rightarrow;369;false;focus;yes;677926;Chrome;112.0;Windows;10;undefined;undefined;1366 x 768;1366 x 768
H030;31;Vrouwelijk;Rechts;4;11;right;no;150;rightarrow;423;true;focus;yes;679129;Chrome;112.0;Windows;10;undefined;undefined;1366 x 768;1366 x 768
H030;31;Vrouwelijk;Rechts;4;12;left;no;150;leftarrow;343;true;focus;yes;680249;Chrome;112.0;Windows;10;undefined;undefined;1366 x 768;1366 x 768
H030;31;Vrouwelijk;Rechts;4;13;left;no;150;leftarrow;408;true;focus;yes;681415;Chrome;112.0;Windows;10;undefined;undefined;1366 x 768;1366 x 768
H030;31;Vrouwelijk;Rechts;4;14;right;no;150;rightarrow;387;true;focus;yes;682563;Chrome;112.0;Windows;10;undefined;undefined;1366 x 768;1366 x 768
H030;31;Vrouwelijk;Rechts;4;15;right;no;150;rightarrow;348;true;focus;yes;683678;Chrome;112.0;Windows;10;undefined;undefined;1366 x 768;1366 x 768
H030;31;Vrouwelijk;Rechts;4;16;left;no;150;leftarrow;412;true;focus;yes;684871;Chrome;112.0;Windows;10;undefined;undefined;1366 x 768;1366 x 768
H030;31;Vrouwelijk;Rechts;4;17;left;no;150;leftarrow;318;true;focus;yes;685965;Chrome;112.0;Windows;10;undefined;undefined;1366 x 768;1366 x 768
H030;31;Vrouwelijk;Rechts;4;18;left;no;150;leftarrow;383;true;focus;yes;687122;Chrome;112.0;Windows;10;undefined;undefined;1366 x 768;1366 x 768
H030;31;Vrouwelijk;Rechts;4;19;right;no;150;rightarrow;363;true;focus;yes;688261;Chrome;112.0;Windows;10;undefined;undefined;1366 x 768;1366 x 768
H030;31;Vrouwelijk;Rechts;4;20;right;no;150;rightarrow;309;true;focus;yes;689339;Chrome;112.0;Windows;10;undefined;undefined;1366 x 768;1366 x 768
H030;31;Vrouwelijk;Rechts;4;21;left;no;150;leftarrow;382;true;focus;yes;690489;Chrome;112.0;Windows;10;undefined;undefined;1366 x 768;1366 x 768
H030;31;Vrouwelijk;Rechts;4;22;right;no;150;rightarrow;471;true;focus;yes;691727;Chrome;112.0;Windows;10;undefined;undefined;1366 x 768;1366 x 768
H030;31;Vrouwelijk;Rechts;4;23;left;yes;150;undefined;null;true;focus;yes;693757;Chrome;112.0;Windows;10;undefined;undefined;1366 x 768;1366 x 768
H030;31;Vrouwelijk;Rechts;4;24;right;yes;200;undefined;null;true;focus;yes;695800;Chrome;112.0;Windows;10;undefined;undefined;1366 x 768;1366 x 768
H030;31;Vrouwelijk;Rechts;4;25;right;no;250;rightarrow;381;true;focus;yes;696960;Chrome;112.0;Windows;10;undefined;undefined;1366 x 768;1366 x 768
H030;31;Vrouwelijk;Rechts;4;26;left;no;250;leftarrow;398;true;focus;yes;698130;Chrome;112.0;Windows;10;undefined;undefined;1366 x 768;1366 x 768
H030;31;Vrouwelijk;Rechts;4;27;right;no;250;rightarrow;367;true;focus;yes;699254;Chrome;112.0;Windows;10;undefined;undefined;1366 x 768;1366 x 768
H030;31;Vrouwelijk;Rechts;4;28;right;no;250;rightarrow;354;true;focus;yes;700370;Chrome;112.0;Windows;10;undefined;undefined;1366 x 768;1366 x 768
H030;31;Vrouwelijk;Rechts;4;29;left;no;250;leftarrow;344;true;focus;yes;701483;Chrome;112.0;Windows;10;undefined;undefined;1366 x 768;1366 x 768
H030;31;Vrouwelijk;Rechts;4;30;right;yes;250;rightarrow;386;false;focus;yes;702648;Chrome;112.0;Windows;10;undefined;undefined;1366 x 768;1366 x 768
H030;31;Vrouwelijk;Rechts;4;31;left;no;200;leftarrow;399;true;focus;yes;703815;Chrome;112.0;Windows;10;undefined;undefined;1366 x 768;1366 x 768
H030;31;Vrouwelijk;Rechts;4;32;left;yes;200;leftarrow;382;false;focus;yes;704973;Chrome;112.0;Windows;10;undefined;undefined;1366 x 768;1366 x 768
H030;31;Vrouwelijk;Rechts;4;33;right;no;150;rightarrow;349;true;focus;yes;706095;Chrome;112.0;Windows;10;undefined;undefined;1366 x 768;1366 x 768
H030;31;Vrouwelijk;Rechts;4;34;left;no;150;leftarrow;395;true;focus;yes;707255;Chrome;112.0;Windows;10;undefined;undefined;1366 x 768;1366 x 768
H030;31;Vrouwelijk;Rechts;4;35;right;no;150;rightarrow;380;true;focus;yes;708404;Chrome;112.0;Windows;10;undefined;undefined;1366 x 768;1366 x 768
H030;31;Vrouwelijk;Rechts;4;38;left;yes;200;leftarrow;398;false;focus;yes;712687;Chrome;112.0;Windows;10;undefined;undefined;1366 x 768;1366 x 768
H030;31;Vrouwelijk;Rechts;4;36;right;yes;150;undefined;null;true;focus;yes;710438;Chrome;112.0;Windows;10;undefined;undefined;1366 x 768;1366 x 768
H030;31;Vrouwelijk;Rechts;4;41;left;no;150;leftarrow;388;true;focus;yes;716087;Chrome;112.0;Windows;10;undefined;undefined;1366 x 768;1366 x 768
H030;31;Vrouwelijk;Rechts;4;37;right;no;200;rightarrow;323;true;focus;yes;711530;Chrome;112.0;Windows;10;undefined;undefined;1366 x 768;1366 x 768
H030;31;Vrouwelijk;Rechts;4;43;right;no;200;rightarrow;341;true;focus;yes;719227;Chrome;112.0;Windows;10;undefined;undefined;1366 x 768;1366 x 768
H030;31;Vrouwelijk;Rechts;4;42;left;yes;150;undefined;null;true;focus;yes;718118;Chrome;112.0;Windows;10;undefined;undefined;1366 x 768;1366 x 768
H030;31;Vrouwelijk;Rechts;4;44;right;no;200;rightarrow;398;true;focus;yes;720407;Chrome;112.0;Windows;10;undefined;undefined;1366 x 768;1366 x 768
H030;31;Vrouwelijk;Rechts;4;45;right;no;200;rightarrow;391;true;focus;yes;721576;Chrome;112.0;Windows;10;undefined;undefined;1366 x 768;1366 x 768
H030;31;Vrouwelijk;Rechts;4;47;left;no;200;leftarrow;365;true;focus;yes;723903;Chrome;112.0;Windows;10;undefined;undefined;1366 x 768;1366 x 768
H030;31;Vrouwelijk;Rechts;4;46;left;no;200;leftarrow;412;true;focus;yes;722761;Chrome;112.0;Windows;10;undefined;undefined;1366 x 768;1366 x 768
H030;31;Vrouwelijk;Rechts;4;39;left;no;150;leftarrow;380;true;focus;yes;713830;Chrome;112.0;Windows;10;undefined;undefined;1366 x 768;1366 x 768
H030;31;Vrouwelijk;Rechts;4;40;left;no;150;leftarrow;325;true;focus;yes;714929;Chrome;112.0;Windows;10;undefined;undefined;1366 x 768;1366 x 768
H030;31;Vrouwelijk;Rechts;4;48;right;yes;200;undefined;null;true;focus;yes;725927;Chrome;112.0;Windows;10;undefined;undefined;1366 x 768;1366 x 768
H030;31;Vrouwelijk;Rechts;4;49;right;no;250;rightarrow;340;true;focus;yes;727047;Chrome;112.0;Windows;10;undefined;undefined;1366 x 768;1366 x 768
H030;31;Vrouwelijk;Rechts;4;50;right;no;250;rightarrow;309;true;focus;yes;728124;Chrome;112.0;Windows;10;undefined;undefined;1366 x 768;1366 x 768
H030;31;Vrouwelijk;Rechts;4;51;left;no;250;leftarrow;333;true;focus;yes;729228;Chrome;112.0;Windows;10;undefined;undefined;1366 x 768;1366 x 768
H030;31;Vrouwelijk;Rechts;4;52;right;yes;250;rightarrow;405;false;focus;yes;730389;Chrome;112.0;Windows;10;undefined;undefined;1366 x 768;1366 x 768
H030;31;Vrouwelijk;Rechts;4;53;right;no;200;rightarrow;405;true;focus;yes;731557;Chrome;112.0;Windows;10;undefined;undefined;1366 x 768;1366 x 768
H030;31;Vrouwelijk;Rechts;4;54;left;yes;200;leftarrow;363;false;focus;yes;732696;Chrome;112.0;Windows;10;undefined;undefined;1366 x 768;1366 x 768
H030;31;Vrouwelijk;Rechts;4;55;left;no;150;leftarrow;367;true;focus;yes;733833;Chrome;112.0;Windows;10;undefined;undefined;1366 x 768;1366 x 768
H030;31;Vrouwelijk;Rechts;4;56;left;no;150;leftarrow;425;true;focus;yes;735027;Chrome;112.0;Windows;10;undefined;undefined;1366 x 768;1366 x 768
H030;31;Vrouwelijk;Rechts;4;57;right;no;150;rightarrow;453;true;focus;yes;736252;Chrome;112.0;Windows;10;undefined;undefined;1366 x 768;1366 x 768
H030;31;Vrouwelijk;Rechts;4;58;right;yes;150;undefined;null;true;focus;yes;738289;Chrome;112.0;Windows;10;undefined;undefined;1366 x 768;1366 x 768
H030;31;Vrouwelijk;Rechts;4;59;right;no;200;rightarrow;418;true;focus;yes;739478;Chrome;112.0;Windows;10;undefined;undefined;1366 x 768;1366 x 768
H030;31;Vrouwelijk;Rechts;4;60;left;yes;200;leftarrow;335;false;focus;yes;740594;Chrome;112.0;Windows;10;undefined;undefined;1366 x 768;1366 x 768
H030;31;Vrouwelijk;Rechts;4;61;left;no;150;leftarrow;374;true;focus;yes;741733;Chrome;112.0;Windows;10;undefined;undefined;1366 x 768;1366 x 768
H030;31;Vrouwelijk;Rechts;4;62;left;no;150;leftarrow;401;true;focus;yes;742904;Chrome;112.0;Windows;10;undefined;undefined;1366 x 768;1366 x 768
H030;31;Vrouwelijk;Rechts;4;63;left;no;150;leftarrow;469;true;focus;yes;744147;Chrome;112.0;Windows;10;undefined;undefined;1366 x 768;1366 x 768
H030;31;Vrouwelijk;Rechts;4;64;right;no;150;rightarrow;441;true;focus;yes;745364;Chrome;112.0;Windows;10;undefined;undefined;1366 x 768;1366 x 768
H030;31;Vrouwelijk;Rechts;4;65;right;no;150;rightarrow;430;true;focus;yes;746565;Chrome;112.0;Windows;10;undefined;undefined;1366 x 768;1366 x 768
H030;31;Vrouwelijk;Rechts;4;66;left;yes;150;undefined;null;true;focus;yes;748603;Chrome;112.0;Windows;10;undefined;undefined;1366 x 768;1366 x 768
H030;31;Vrouwelijk;Rechts;4;67;left;no;200;leftarrow;314;true;focus;yes;749696;Chrome;112.0;Windows;10;undefined;undefined;1366 x 768;1366 x 768
H030;31;Vrouwelijk;Rechts;4;68;right;no;200;rightarrow;391;true;focus;yes;750871;Chrome;112.0;Windows;10;undefined;undefined;1366 x 768;1366 x 768
H030;31;Vrouwelijk;Rechts;4;69;right;no;200;rightarrow;365;true;focus;yes;752006;Chrome;112.0;Windows;10;undefined;undefined;1366 x 768;1366 x 768
H030;31;Vrouwelijk;Rechts;4;70;left;no;200;leftarrow;400;true;focus;yes;753175;Chrome;112.0;Windows;10;undefined;undefined;1366 x 768;1366 x 768
H030;31;Vrouwelijk;Rechts;4;71;left;no;200;leftarrow;433;true;focus;yes;754372;Chrome;112.0;Windows;10;undefined;undefined;1366 x 768;1366 x 768
H030;31;Vrouwelijk;Rechts;4;72;right;yes;200;undefined;null;true;focus;yes;756404;Chrome;112.0;Windows;10;undefined;undefined;1366 x 768;1366 x 768
H030;31;Vrouwelijk;Rechts;4;73;right;no;250;rightarrow;306;true;focus;yes;757476;Chrome;112.0;Windows;10;undefined;undefined;1366 x 768;1366 x 768
H030;31;Vrouwelijk;Rechts;4;74;left;no;250;leftarrow;354;true;focus;yes;758603;Chrome;112.0;Windows;10;undefined;undefined;1366 x 768;1366 x 768
H030;31;Vrouwelijk;Rechts;4;75;right;no;250;rightarrow;356;true;focus;yes;759727;Chrome;112.0;Windows;10;undefined;undefined;1366 x 768;1366 x 768
H030;31;Vrouwelijk;Rechts;4;76;left;no;250;leftarrow;327;true;focus;yes;760821;Chrome;112.0;Windows;10;undefined;undefined;1366 x 768;1366 x 768
H030;31;Vrouwelijk;Rechts;4;77;right;yes;250;rightarrow;386;false;focus;yes;761979;Chrome;112.0;Windows;10;undefined;undefined;1366 x 768;1366 x 768
H030;31;Vrouwelijk;Rechts;4;78;left;yes;200;undefined;null;true;focus;yes;763998;Chrome;112.0;Windows;10;undefined;undefined;1366 x 768;1366 x 768
H030;31;Vrouwelijk;Rechts;4;79;right;no;250;rightarrow;386;true;focus;yes;765164;Chrome;112.0;Windows;10;undefined;undefined;1366 x 768;1366 x 768
H030;31;Vrouwelijk;Rechts;4;80;left;no;250;leftarrow;332;true;focus;yes;766266;Chrome;112.0;Windows;10;undefined;undefined;1366 x 768;1366 x 768
H030;31;Vrouwelijk;Rechts;4;81;right;yes;250;rightarrow;371;false;focus;yes;767411;Chrome;112.0;Windows;10;undefined;undefined;1366 x 768;1366 x 768
H030;31;Vrouwelijk;Rechts;4;82;left;no;200;leftarrow;305;true;focus;yes;768473;Chrome;112.0;Windows;10;undefined;undefined;1366 x 768;1366 x 768
H030;31;Vrouwelijk;Rechts;4;83;right;no;200;rightarrow;404;true;focus;yes;769649;Chrome;112.0;Windows;10;undefined;undefined;1366 x 768;1366 x 768
H030;31;Vrouwelijk;Rechts;4;84;right;no;200;rightarrow;381;true;focus;yes;770814;Chrome;112.0;Windows;10;undefined;undefined;1366 x 768;1366 x 768
H030;31;Vrouwelijk;Rechts;4;85;right;no;200;rightarrow;307;true;focus;yes;771897;Chrome;112.0;Windows;10;undefined;undefined;1366 x 768;1366 x 768
H030;31;Vrouwelijk;Rechts;4;86;left;yes;200;leftarrow;372;false;focus;yes;773034;Chrome;112.0;Windows;10;undefined;undefined;1366 x 768;1366 x 768
H030;31;Vrouwelijk;Rechts;4;87;left;no;150;leftarrow;293;true;focus;yes;774100;Chrome;112.0;Windows;10;undefined;undefined;1366 x 768;1366 x 768
H030;31;Vrouwelijk;Rechts;4;88;left;no;150;leftarrow;353;true;focus;yes;775237;Chrome;112.0;Windows;10;undefined;undefined;1366 x 768;1366 x 768
H030;31;Vrouwelijk;Rechts;4;89;left;no;150;leftarrow;381;true;focus;yes;776388;Chrome;112.0;Windows;10;undefined;undefined;1366 x 768;1366 x 768
H030;31;Vrouwelijk;Rechts;4;90;right;no;150;rightarrow;438;true;focus;yes;777608;Chrome;112.0;Windows;10;undefined;undefined;1366 x 768;1366 x 768
H030;31;Vrouwelijk;Rechts;4;91;left;no;150;leftarrow;436;true;focus;yes;778830;Chrome;112.0;Windows;10;undefined;undefined;1366 x 768;1366 x 768
H030;31;Vrouwelijk;Rechts;4;92;right;no;150;rightarrow;472;true;focus;yes;780081;Chrome;112.0;Windows;10;undefined;undefined;1366 x 768;1366 x 768
H030;31;Vrouwelijk;Rechts;4;93;left;yes;150;undefined;null;true;focus;yes;782109;Chrome;112.0;Windows;10;undefined;undefined;1366 x 768;1366 x 768
H030;31;Vrouwelijk;Rechts;4;94;right;no;200;rightarrow;377;true;focus;yes;783255;Chrome;112.0;Windows;10;undefined;undefined;1366 x 768;1366 x 768
H030;31;Vrouwelijk;Rechts;4;95;right;yes;200;rightarrow;341;false;focus;yes;784361;Chrome;112.0;Windows;10;undefined;undefined;1366 x 768;1366 x 768
H030;31;Vrouwelijk;Rechts;4;96;left;no;150;leftarrow;335;true;focus;yes;785463;Chrome;112.0;Windows;10;undefined;undefined;1366 x 768;1366 x 768
H030;31;Vrouwelijk;Rechts;4;97;left;yes;150;undefined;null;true;focus;yes;787491;Chrome;112.0;Windows;10;undefined;undefined;1366 x 768;1366 x 768
H030;31;Vrouwelijk;Rechts;4;98;right;no;200;rightarrow;388;true;focus;yes;788649;Chrome;112.0;Windows;10;undefined;undefined;1366 x 768;1366 x 768
H030;31;Vrouwelijk;Rechts;4;99;right;yes;200;rightarrow;347;false;focus;yes;789765;Chrome;112.0;Windows;10;undefined;undefined;1366 x 768;1366 x 768
H030;31;Vrouwelijk;Rechts;4;100;right;no;150;rightarrow;430;true;focus;yes;790971;Chrome;112.0;Windows;10;undefined;undefined;1366 x 768;1366 x 768
H030;31;Vrouwelijk;Rechts;4;101;left;no;150;leftarrow;458;true;focus;yes;792199;Chrome;112.0;Windows;10;undefined;undefined;1366 x 768;1366 x 768
H030;31;Vrouwelijk;Rechts;4;102;right;no;150;rightarrow;420;true;focus;yes;793394;Chrome;112.0;Windows;10;undefined;undefined;1366 x 768;1366 x 768
H030;31;Vrouwelijk;Rechts;4;103;left;no;150;leftarrow;366;true;focus;yes;794542;Chrome;112.0;Windows;10;undefined;undefined;1366 x 768;1366 x 768
H030;31;Vrouwelijk;Rechts;4;104;left;no;150;leftarrow;417;true;focus;yes;795729;Chrome;112.0;Windows;10;undefined;undefined;1366 x 768;1366 x 768
H030;31;Vrouwelijk;Rechts;4;105;right;no;150;rightarrow;344;true;focus;yes;796835;Chrome;112.0;Windows;10;undefined;undefined;1366 x 768;1366 x 768
H030;31;Vrouwelijk;Rechts;4;106;right;no;150;rightarrow;419;true;focus;yes;798030;Chrome;112.0;Windows;10;undefined;undefined;1366 x 768;1366 x 768
H030;31;Vrouwelijk;Rechts;4;107;left;yes;150;undefined;null;true;focus;yes;800063;Chrome;112.0;Windows;10;undefined;undefined;1366 x 768;1366 x 768
H030;31;Vrouwelijk;Rechts;4;108;left;no;200;leftarrow;336;true;focus;yes;801176;Chrome;112.0;Windows;10;undefined;undefined;1366 x 768;1366 x 768
H030;31;Vrouwelijk;Rechts;4;109;left;no;200;leftarrow;394;true;focus;yes;802347;Chrome;112.0;Windows;10;undefined;undefined;1366 x 768;1366 x 768
H030;31;Vrouwelijk;Rechts;4;110;right;yes;200;undefined;null;true;focus;yes;804368;Chrome;112.0;Windows;10;undefined;undefined;1366 x 768;1366 x 768
H030;31;Vrouwelijk;Rechts;4;111;right;no;250;rightarrow;352;true;focus;yes;805491;Chrome;112.0;Windows;10;undefined;undefined;1366 x 768;1366 x 768
H030;31;Vrouwelijk;Rechts;4;112;left;no;250;leftarrow;350;true;focus;yes;806610;Chrome;112.0;Windows;10;undefined;undefined;1366 x 768;1366 x 768
H030;31;Vrouwelijk;Rechts;4;113;left;no;250;leftarrow;355;true;focus;yes;807731;Chrome;112.0;Windows;10;undefined;undefined;1366 x 768;1366 x 768
H030;31;Vrouwelijk;Rechts;4;114;left;no;250;leftarrow;338;true;focus;yes;808838;Chrome;112.0;Windows;10;undefined;undefined;1366 x 768;1366 x 768
H030;31;Vrouwelijk;Rechts;4;115;right;no;250;rightarrow;405;true;focus;yes;810024;Chrome;112.0;Windows;10;undefined;undefined;1366 x 768;1366 x 768
H030;31;Vrouwelijk;Rechts;4;116;left;yes;250;undefined;null;true;focus;yes;812052;Chrome;112.0;Windows;10;undefined;undefined;1366 x 768;1366 x 768
H030;31;Vrouwelijk;Rechts;4;117;right;no;300;rightarrow;384;true;focus;yes;813204;Chrome;112.0;Windows;10;undefined;undefined;1366 x 768;1366 x 768
H030;31;Vrouwelijk;Rechts;4;118;left;no;300;leftarrow;347;true;focus;yes;814311;Chrome;112.0;Windows;10;undefined;undefined;1366 x 768;1366 x 768
H030;31;Vrouwelijk;Rechts;4;119;right;yes;300;rightarrow;420;false;focus;yes;815499;Chrome;112.0;Windows;10;undefined;undefined;1366 x 768;1366 x 768
H030;31;Vrouwelijk;Rechts;4;120;right;no;250;rightarrow;595;true;focus;yes;816855;Chrome;112.0;Windows;10;undefined;undefined;1366 x 768;1366 x 768
H030;31;Vrouwelijk;Rechts;4;121;right;yes;250;rightarrow;389;false;focus;yes;818014;Chrome;112.0;Windows;10;undefined;undefined;1366 x 768;1366 x 768
H030;31;Vrouwelijk;Rechts;4;122;left;no;200;leftarrow;312;true;focus;yes;819109;Chrome;112.0;Windows;10;undefined;undefined;1366 x 768;1366 x 768
H030;31;Vrouwelijk;Rechts;4;123;right;no;200;rightarrow;303;true;focus;yes;820189;Chrome;112.0;Windows;10;undefined;undefined;1366 x 768;1366 x 768
H030;31;Vrouwelijk;Rechts;4;124;left;no;200;leftarrow;366;true;focus;yes;821317;Chrome;112.0;Windows;10;undefined;undefined;1366 x 768;1366 x 768
H030;31;Vrouwelijk;Rechts;4;125;left;no;200;leftarrow;333;true;focus;yes;822421;Chrome;112.0;Windows;10;undefined;undefined;1366 x 768;1366 x 768
H030;31;Vrouwelijk;Rechts;4;126;right;no;200;rightarrow;389;true;focus;yes;823585;Chrome;112.0;Windows;10;undefined;undefined;1366 x 768;1366 x 768
H030;31;Vrouwelijk;Rechts;4;127;right;no;200;rightarrow;399;true;focus;yes;824760;Chrome;112.0;Windows;10;undefined;undefined;1366 x 768;1366 x 768
H030;31;Vrouwelijk;Rechts;4;128;left;yes;200;leftarrow;349;false;focus;yes;825892;Chrome;112.0;Windows;10;undefined;undefined;1366 x 768;1366 x 768
H030;31;Vrouwelijk;Rechts;5;1;left;no;150;leftarrow;338;true;focus;yes;849192;Chrome;112.0;Windows;10;undefined;undefined;1366 x 768;1366 x 768
H030;31;Vrouwelijk;Rechts;5;2;right;no;150;rightarrow;409;true;focus;yes;850373;Chrome;112.0;Windows;10;undefined;undefined;1366 x 768;1366 x 768
H030;31;Vrouwelijk;Rechts;5;3;left;yes;150;leftarrow;330;false;focus;yes;851467;Chrome;112.0;Windows;10;undefined;undefined;1366 x 768;1366 x 768
H030;31;Vrouwelijk;Rechts;5;4;right;no;100;rightarrow;382;true;focus;yes;852624;Chrome;112.0;Windows;10;undefined;undefined;1366 x 768;1366 x 768
H030;31;Vrouwelijk;Rechts;5;5;right;yes;100;undefined;null;true;focus;yes;854667;Chrome;112.0;Windows;10;undefined;undefined;1366 x 768;1366 x 768
H030;31;Vrouwelijk;Rechts;5;6;left;no;150;leftarrow;332;true;focus;yes;855778;Chrome;112.0;Windows;10;undefined;undefined;1366 x 768;1366 x 768
H030;31;Vrouwelijk;Rechts;5;7;left;no;150;leftarrow;367;true;focus;yes;856917;Chrome;112.0;Windows;10;undefined;undefined;1366 x 768;1366 x 768
H030;31;Vrouwelijk;Rechts;5;8;right;no;150;rightarrow;390;true;focus;yes;858077;Chrome;112.0;Windows;10;undefined;undefined;1366 x 768;1366 x 768
H030;31;Vrouwelijk;Rechts;5;9;right;no;150;rightarrow;396;true;focus;yes;859246;Chrome;112.0;Windows;10;undefined;undefined;1366 x 768;1366 x 768
H030;31;Vrouwelijk;Rechts;5;10;right;no;150;rightarrow;356;true;focus;yes;860362;Chrome;112.0;Windows;10;undefined;undefined;1366 x 768;1366 x 768
H030;31;Vrouwelijk;Rechts;5;11;left;no;150;leftarrow;323;true;focus;yes;861443;Chrome;112.0;Windows;10;undefined;undefined;1366 x 768;1366 x 768
H030;31;Vrouwelijk;Rechts;5;12;left;no;150;leftarrow;352;true;focus;yes;862573;Chrome;112.0;Windows;10;undefined;undefined;1366 x 768;1366 x 768
H030;31;Vrouwelijk;Rechts;5;13;left;no;150;leftarrow;364;true;focus;yes;863711;Chrome;112.0;Windows;10;undefined;undefined;1366 x 768;1366 x 768
H030;31;Vrouwelijk;Rechts;5;14;left;yes;150;undefined;null;true;focus;yes;865736;Chrome;112.0;Windows;10;undefined;undefined;1366 x 768;1366 x 768
H030;31;Vrouwelijk;Rechts;5;15;right;no;200;rightarrow;385;true;focus;yes;866898;Chrome;112.0;Windows;10;undefined;undefined;1366 x 768;1366 x 768
H030;31;Vrouwelijk;Rechts;5;16;right;yes;200;rightarrow;353;false;focus;yes;868026;Chrome;112.0;Windows;10;undefined;undefined;1366 x 768;1366 x 768
H030;31;Vrouwelijk;Rechts;5;17;left;no;150;leftarrow;390;true;focus;yes;869194;Chrome;112.0;Windows;10;undefined;undefined;1366 x 768;1366 x 768
H030;31;Vrouwelijk;Rechts;5;18;right;yes;150;undefined;null;true;focus;yes;871218;Chrome;112.0;Windows;10;undefined;undefined;1366 x 768;1366 x 768
H030;31;Vrouwelijk;Rechts;5;19;right;no;200;rightarrow;375;true;focus;yes;872360;Chrome;112.0;Windows;10;undefined;undefined;1366 x 768;1366 x 768
H030;31;Vrouwelijk;Rechts;5;20;right;no;200;rightarrow;393;true;focus;yes;873533;Chrome;112.0;Windows;10;undefined;undefined;1366 x 768;1366 x 768
H030;31;Vrouwelijk;Rechts;5;21;left;no;200;leftarrow;402;true;focus;yes;874697;Chrome;112.0;Windows;10;undefined;undefined;1366 x 768;1366 x 768
H030;31;Vrouwelijk;Rechts;5;22;left;no;200;leftarrow;342;true;focus;yes;875807;Chrome;112.0;Windows;10;undefined;undefined;1366 x 768;1366 x 768
H030;31;Vrouwelijk;Rechts;5;23;left;yes;200;leftarrow;407;false;focus;yes;877001;Chrome;112.0;Windows;10;undefined;undefined;1366 x 768;1366 x 768
H030;31;Vrouwelijk;Rechts;5;24;right;no;150;rightarrow;268;true;focus;yes;878047;Chrome;112.0;Windows;10;undefined;undefined;1366 x 768;1366 x 768
H030;31;Vrouwelijk;Rechts;5;25;left;yes;150;undefined;null;true;focus;yes;880078;Chrome;112.0;Windows;10;undefined;undefined;1366 x 768;1366 x 768
H030;31;Vrouwelijk;Rechts;5;26;right;yes;200;rightarrow;375;false;focus;yes;881230;Chrome;112.0;Windows;10;undefined;undefined;1366 x 768;1366 x 768
H030;31;Vrouwelijk;Rechts;5;27;right;no;150;rightarrow;436;true;focus;yes;882432;Chrome;112.0;Windows;10;undefined;undefined;1366 x 768;1366 x 768
H030;31;Vrouwelijk;Rechts;5;28;left;no;150;leftarrow;368;true;focus;yes;883582;Chrome;112.0;Windows;10;undefined;undefined;1366 x 768;1366 x 768
H030;31;Vrouwelijk;Rechts;5;29;left;no;150;leftarrow;394;true;focus;yes;884760;Chrome;112.0;Windows;10;undefined;undefined;1366 x 768;1366 x 768
H030;31;Vrouwelijk;Rechts;5;30;right;no;150;rightarrow;395;true;focus;yes;885930;Chrome;112.0;Windows;10;undefined;undefined;1366 x 768;1366 x 768
H030;31;Vrouwelijk;Rechts;5;31;left;no;150;leftarrow;333;true;focus;yes;887025;Chrome;112.0;Windows;10;undefined;undefined;1366 x 768;1366 x 768
H030;31;Vrouwelijk;Rechts;5;32;right;no;150;rightarrow;382;true;focus;yes;888167;Chrome;112.0;Windows;10;undefined;undefined;1366 x 768;1366 x 768
H030;31;Vrouwelijk;Rechts;5;33;left;no;150;leftarrow;451;true;focus;yes;889400;Chrome;112.0;Windows;10;undefined;undefined;1366 x 768;1366 x 768
H030;31;Vrouwelijk;Rechts;5;34;right;no;150;rightarrow;295;true;focus;yes;890466;Chrome;112.0;Windows;10;undefined;undefined;1366 x 768;1366 x 768
H030;31;Vrouwelijk;Rechts;5;35;right;no;150;rightarrow;359;true;focus;yes;891596;Chrome;112.0;Windows;10;undefined;undefined;1366 x 768;1366 x 768
H030;31;Vrouwelijk;Rechts;5;36;left;no;150;leftarrow;354;true;focus;yes;892722;Chrome;112.0;Windows;10;undefined;undefined;1366 x 768;1366 x 768
H030;31;Vrouwelijk;Rechts;5;37;right;yes;150;undefined;null;true;focus;yes;894769;Chrome;112.0;Windows;10;undefined;undefined;1366 x 768;1366 x 768
H030;31;Vrouwelijk;Rechts;5;38;right;no;200;rightarrow;405;true;focus;yes;895955;Chrome;112.0;Windows;10;undefined;undefined;1366 x 768;1366 x 768
H030;31;Vrouwelijk;Rechts;5;39;left;no;200;leftarrow;414;true;focus;yes;897144;Chrome;112.0;Windows;10;undefined;undefined;1366 x 768;1366 x 768
H030;31;Vrouwelijk;Rechts;5;40;left;yes;200;leftarrow;295;false;focus;yes;898215;Chrome;112.0;Windows;10;undefined;undefined;1366 x 768;1366 x 768
H030;31;Vrouwelijk;Rechts;5;41;right;yes;150;undefined;null;true;focus;yes;900256;Chrome;112.0;Windows;10;undefined;undefined;1366 x 768;1366 x 768
H030;31;Vrouwelijk;Rechts;5;42;right;no;200;rightarrow;291;true;focus;yes;901327;Chrome;112.0;Windows;10;undefined;undefined;1366 x 768;1366 x 768
H030;31;Vrouwelijk;Rechts;5;43;right;no;200;rightarrow;345;true;focus;yes;902441;Chrome;112.0;Windows;10;undefined;undefined;1366 x 768;1366 x 768
H030;31;Vrouwelijk;Rechts;5;44;right;no;200;rightarrow;379;true;focus;yes;903594;Chrome;112.0;Windows;10;undefined;undefined;1366 x 768;1366 x 768
H030;31;Vrouwelijk;Rechts;5;45;left;yes;200;undefined;null;true;focus;yes;905632;Chrome;112.0;Windows;10;undefined;undefined;1366 x 768;1366 x 768
H030;31;Vrouwelijk;Rechts;5;46;left;no;250;leftarrow;654;true;focus;yes;907055;Chrome;112.0;Windows;10;undefined;undefined;1366 x 768;1366 x 768
H030;31;Vrouwelijk;Rechts;5;47;left;no;250;leftarrow;493;true;focus;yes;908308;Chrome;112.0;Windows;10;undefined;undefined;1366 x 768;1366 x 768
H030;31;Vrouwelijk;Rechts;5;48;left;no;250;leftarrow;312;true;focus;yes;909396;Chrome;112.0;Windows;10;undefined;undefined;1366 x 768;1366 x 768
H030;31;Vrouwelijk;Rechts;5;49;left;no;250;leftarrow;405;true;focus;yes;910578;Chrome;112.0;Windows;10;undefined;undefined;1366 x 768;1366 x 768
H030;31;Vrouwelijk;Rechts;5;50;right;no;250;rightarrow;405;true;focus;yes;911765;Chrome;112.0;Windows;10;undefined;undefined;1366 x 768;1366 x 768
H030;31;Vrouwelijk;Rechts;5;51;left;yes;250;leftarrow;359;false;focus;yes;912894;Chrome;112.0;Windows;10;undefined;undefined;1366 x 768;1366 x 768
H030;31;Vrouwelijk;Rechts;5;52;right;yes;200;undefined;null;true;focus;yes;914941;Chrome;112.0;Windows;10;undefined;undefined;1366 x 768;1366 x 768
H030;31;Vrouwelijk;Rechts;5;53;left;no;250;leftarrow;320;true;focus;yes;916041;Chrome;112.0;Windows;10;undefined;undefined;1366 x 768;1366 x 768
H030;31;Vrouwelijk;Rechts;5;54;left;no;250;leftarrow;318;true;focus;yes;917132;Chrome;112.0;Windows;10;undefined;undefined;1366 x 768;1366 x 768
H030;31;Vrouwelijk;Rechts;5;55;right;no;250;rightarrow;616;true;focus;yes;918519;Chrome;112.0;Windows;10;undefined;undefined;1366 x 768;1366 x 768
H030;31;Vrouwelijk;Rechts;5;56;right;no;250;rightarrow;416;true;focus;yes;919709;Chrome;112.0;Windows;10;undefined;undefined;1366 x 768;1366 x 768
H030;31;Vrouwelijk;Rechts;5;57;right;no;250;rightarrow;385;true;focus;yes;920869;Chrome;112.0;Windows;10;undefined;undefined;1366 x 768;1366 x 768
H030;31;Vrouwelijk;Rechts;5;58;left;no;250;leftarrow;377;true;focus;yes;922031;Chrome;112.0;Windows;10;undefined;undefined;1366 x 768;1366 x 768
H030;31;Vrouwelijk;Rechts;5;59;left;no;250;leftarrow;394;true;focus;yes;923199;Chrome;112.0;Windows;10;undefined;undefined;1366 x 768;1366 x 768
H030;31;Vrouwelijk;Rechts;5;60;left;yes;250;leftarrow;378;false;focus;yes;924348;Chrome;112.0;Windows;10;undefined;undefined;1366 x 768;1366 x 768
H030;31;Vrouwelijk;Rechts;5;61;right;no;200;rightarrow;412;true;focus;yes;925528;Chrome;112.0;Windows;10;undefined;undefined;1366 x 768;1366 x 768
H030;31;Vrouwelijk;Rechts;5;62;left;no;200;leftarrow;391;true;focus;yes;926698;Chrome;112.0;Windows;10;undefined;undefined;1366 x 768;1366 x 768
H030;31;Vrouwelijk;Rechts;5;63;right;no;200;rightarrow;430;true;focus;yes;927901;Chrome;112.0;Windows;10;undefined;undefined;1366 x 768;1366 x 768
H030;31;Vrouwelijk;Rechts;5;64;right;yes;200;undefined;null;true;focus;yes;929923;Chrome;112.0;Windows;10;undefined;undefined;1366 x 768;1366 x 768
H030;31;Vrouwelijk;Rechts;5;65;right;no;250;undefined;null;false;focus;yes;931966;Chrome;112.0;Windows;10;undefined;undefined;1366 x 768;1366 x 768
H030;31;Vrouwelijk;Rechts;5;66;right;no;250;rightarrow;320;true;focus;yes;933066;Chrome;112.0;Windows;10;undefined;undefined;1366 x 768;1366 x 768
H030;31;Vrouwelijk;Rechts;5;67;right;no;250;rightarrow;338;true;focus;yes;934179;Chrome;112.0;Windows;10;undefined;undefined;1366 x 768;1366 x 768
H030;31;Vrouwelijk;Rechts;5;68;left;yes;250;leftarrow;412;false;focus;yes;935374;Chrome;112.0;Windows;10;undefined;undefined;1366 x 768;1366 x 768
H030;31;Vrouwelijk;Rechts;5;69;right;yes;200;leftarrow;332;false;focus;yes;936478;Chrome;112.0;Windows;10;undefined;undefined;1366 x 768;1366 x 768
H030;31;Vrouwelijk;Rechts;5;70;left;no;150;leftarrow;358;true;focus;yes;937615;Chrome;112.0;Windows;10;undefined;undefined;1366 x 768;1366 x 768
H030;31;Vrouwelijk;Rechts;5;71;left;no;150;leftarrow;285;true;focus;yes;938676;Chrome;112.0;Windows;10;undefined;undefined;1366 x 768;1366 x 768
H030;31;Vrouwelijk;Rechts;5;72;left;no;150;leftarrow;341;true;focus;yes;939796;Chrome;112.0;Windows;10;undefined;undefined;1366 x 768;1366 x 768
H030;31;Vrouwelijk;Rechts;5;73;right;no;150;leftarrow;270;false;focus;yes;940834;Chrome;112.0;Windows;10;undefined;undefined;1366 x 768;1366 x 768
H030;31;Vrouwelijk;Rechts;5;74;left;yes;150;rightarrow;290;false;focus;yes;941895;Chrome;112.0;Windows;10;undefined;undefined;1366 x 768;1366 x 768
H030;31;Vrouwelijk;Rechts;5;75;left;no;100;leftarrow;307;true;focus;yes;942982;Chrome;112.0;Windows;10;undefined;undefined;1366 x 768;1366 x 768
H030;31;Vrouwelijk;Rechts;5;76;left;no;100;leftarrow;325;true;focus;yes;944091;Chrome;112.0;Windows;10;undefined;undefined;1366 x 768;1366 x 768
H030;31;Vrouwelijk;Rechts;5;77;right;no;100;rightarrow;448;true;focus;yes;945298;Chrome;112.0;Windows;10;undefined;undefined;1366 x 768;1366 x 768
H030;31;Vrouwelijk;Rechts;5;78;left;no;100;leftarrow;331;true;focus;yes;946393;Chrome;112.0;Windows;10;undefined;undefined;1366 x 768;1366 x 768
H030;31;Vrouwelijk;Rechts;5;79;right;no;100;rightarrow;397;true;focus;yes;947568;Chrome;112.0;Windows;10;undefined;undefined;1366 x 768;1366 x 768
H030;31;Vrouwelijk;Rechts;5;80;right;yes;100;undefined;null;true;focus;yes;949613;Chrome;112.0;Windows;10;undefined;undefined;1366 x 768;1366 x 768
H030;31;Vrouwelijk;Rechts;5;81;right;yes;150;rightarrow;327;false;focus;yes;950721;Chrome;112.0;Windows;10;undefined;undefined;1366 x 768;1366 x 768
H030;31;Vrouwelijk;Rechts;5;82;right;no;100;rightarrow;356;true;focus;yes;951857;Chrome;112.0;Windows;10;undefined;undefined;1366 x 768;1366 x 768
H030;31;Vrouwelijk;Rechts;5;83;right;no;100;rightarrow;361;true;focus;yes;952996;Chrome;112.0;Windows;10;undefined;undefined;1366 x 768;1366 x 768
H030;31;Vrouwelijk;Rechts;5;84;left;no;100;leftarrow;296;true;focus;yes;954068;Chrome;112.0;Windows;10;undefined;undefined;1366 x 768;1366 x 768
H030;31;Vrouwelijk;Rechts;5;85;right;no;100;rightarrow;396;true;focus;yes;955229;Chrome;112.0;Windows;10;undefined;undefined;1366 x 768;1366 x 768
H030;31;Vrouwelijk;Rechts;5;86;left;no;100;leftarrow;314;true;focus;yes;956310;Chrome;112.0;Windows;10;undefined;undefined;1366 x 768;1366 x 768
H030;31;Vrouwelijk;Rechts;5;87;left;no;100;leftarrow;407;true;focus;yes;957495;Chrome;112.0;Windows;10;undefined;undefined;1366 x 768;1366 x 768
H030;31;Vrouwelijk;Rechts;5;88;left;yes;100;undefined;null;true;focus;yes;959530;Chrome;112.0;Windows;10;undefined;undefined;1366 x 768;1366 x 768
H030;31;Vrouwelijk;Rechts;5;89;left;no;150;leftarrow;321;true;focus;yes;960618;Chrome;112.0;Windows;10;undefined;undefined;1366 x 768;1366 x 768
H030;31;Vrouwelijk;Rechts;5;90;right;no;150;rightarrow;365;true;focus;yes;961762;Chrome;112.0;Windows;10;undefined;undefined;1366 x 768;1366 x 768
H030;31;Vrouwelijk;Rechts;5;91;right;no;150;rightarrow;366;true;focus;yes;962913;Chrome;112.0;Windows;10;undefined;undefined;1366 x 768;1366 x 768
H030;31;Vrouwelijk;Rechts;5;92;left;yes;150;leftarrow;311;false;focus;yes;963983;Chrome;112.0;Windows;10;undefined;undefined;1366 x 768;1366 x 768
H030;31;Vrouwelijk;Rechts;5;93;right;no;100;rightarrow;432;true;focus;yes;965194;Chrome;112.0;Windows;10;undefined;undefined;1366 x 768;1366 x 768
H030;31;Vrouwelijk;Rechts;5;94;left;no;100;leftarrow;307;true;focus;yes;966272;Chrome;112.0;Windows;10;undefined;undefined;1366 x 768;1366 x 768
H030;31;Vrouwelijk;Rechts;5;95;left;no;100;leftarrow;298;true;focus;yes;967330;Chrome;112.0;Windows;10;undefined;undefined;1366 x 768;1366 x 768
H030;31;Vrouwelijk;Rechts;5;96;right;yes;100;rightarrow;377;false;focus;yes;968486;Chrome;112.0;Windows;10;undefined;undefined;1366 x 768;1366 x 768
H030;31;Vrouwelijk;Rechts;5;97;right;yes;50;undefined;null;true;focus;yes;970521;Chrome;112.0;Windows;10;undefined;undefined;1366 x 768;1366 x 768
H030;31;Vrouwelijk;Rechts;5;98;left;no;100;leftarrow;370;true;focus;yes;971672;Chrome;112.0;Windows;10;undefined;undefined;1366 x 768;1366 x 768
H030;31;Vrouwelijk;Rechts;5;99;left;yes;100;leftarrow;373;false;focus;yes;972821;Chrome;112.0;Windows;10;undefined;undefined;1366 x 768;1366 x 768
H030;31;Vrouwelijk;Rechts;5;100;left;no;50;leftarrow;338;true;focus;yes;973935;Chrome;112.0;Windows;10;undefined;undefined;1366 x 768;1366 x 768
H030;31;Vrouwelijk;Rechts;5;101;left;no;50;leftarrow;314;true;focus;yes;975021;Chrome;112.0;Windows;10;undefined;undefined;1366 x 768;1366 x 768
H030;31;Vrouwelijk;Rechts;5;102;right;no;50;rightarrow;367;true;focus;yes;976170;Chrome;112.0;Windows;10;undefined;undefined;1366 x 768;1366 x 768
H030;31;Vrouwelijk;Rechts;5;103;right;no;50;rightarrow;383;true;focus;yes;977333;Chrome;112.0;Windows;10;undefined;undefined;1366 x 768;1366 x 768
H030;31;Vrouwelijk;Rechts;5;104;right;no;50;rightarrow;382;true;focus;yes;978501;Chrome;112.0;Windows;10;undefined;undefined;1366 x 768;1366 x 768
H030;31;Vrouwelijk;Rechts;5;105;left;yes;50;undefined;null;true;focus;yes;980534;Chrome;112.0;Windows;10;undefined;undefined;1366 x 768;1366 x 768
H030;31;Vrouwelijk;Rechts;5;106;left;no;100;leftarrow;307;true;focus;yes;981611;Chrome;112.0;Windows;10;undefined;undefined;1366 x 768;1366 x 768
H030;31;Vrouwelijk;Rechts;5;107;left;no;100;leftarrow;331;true;focus;yes;982723;Chrome;112.0;Windows;10;undefined;undefined;1366 x 768;1366 x 768
H030;31;Vrouwelijk;Rechts;5;108;right;no;100;rightarrow;356;true;focus;yes;983862;Chrome;112.0;Windows;10;undefined;undefined;1366 x 768;1366 x 768
H030;31;Vrouwelijk;Rechts;5;109;right;no;100;rightarrow;323;true;focus;yes;984952;Chrome;112.0;Windows;10;undefined;undefined;1366 x 768;1366 x 768
H030;31;Vrouwelijk;Rechts;5;110;right;yes;100;undefined;null;true;focus;yes;986988;Chrome;112.0;Windows;10;undefined;undefined;1366 x 768;1366 x 768
H030;31;Vrouwelijk;Rechts;5;111;right;no;150;rightarrow;362;true;focus;yes;988117;Chrome;112.0;Windows;10;undefined;undefined;1366 x 768;1366 x 768
H030;31;Vrouwelijk;Rechts;5;112;left;no;150;leftarrow;332;true;focus;yes;989225;Chrome;112.0;Windows;10;undefined;undefined;1366 x 768;1366 x 768
H030;31;Vrouwelijk;Rechts;5;113;right;no;150;rightarrow;371;true;focus;yes;990366;Chrome;112.0;Windows;10;undefined;undefined;1366 x 768;1366 x 768
H030;31;Vrouwelijk;Rechts;5;114;left;no;150;leftarrow;337;true;focus;yes;991486;Chrome;112.0;Windows;10;undefined;undefined;1366 x 768;1366 x 768
H030;31;Vrouwelijk;Rechts;5;115;right;no;150;rightarrow;309;true;focus;yes;992556;Chrome;112.0;Windows;10;undefined;undefined;1366 x 768;1366 x 768
H030;31;Vrouwelijk;Rechts;5;116;left;yes;150;leftarrow;321;false;focus;yes;993645;Chrome;112.0;Windows;10;undefined;undefined;1366 x 768;1366 x 768
H030;31;Vrouwelijk;Rechts;5;117;left;no;100;leftarrow;315;true;focus;yes;994740;Chrome;112.0;Windows;10;undefined;undefined;1366 x 768;1366 x 768
H030;31;Vrouwelijk;Rechts;5;118;right;no;100;rightarrow;329;true;focus;yes;995851;Chrome;112.0;Windows;10;undefined;undefined;1366 x 768;1366 x 768
H030;31;Vrouwelijk;Rechts;5;119;right;yes;100;undefined;null;true;focus;yes;997886;Chrome;112.0;Windows;10;undefined;undefined;1366 x 768;1366 x 768
H030;31;Vrouwelijk;Rechts;5;120;left;no;150;leftarrow;340;true;focus;yes;999009;Chrome;112.0;Windows;10;undefined;undefined;1366 x 768;1366 x 768
H030;31;Vrouwelijk;Rechts;5;121;left;no;150;leftarrow;292;true;focus;yes;1000077;Chrome;112.0;Windows;10;undefined;undefined;1366 x 768;1366 x 768
H030;31;Vrouwelijk;Rechts;5;122;left;no;150;leftarrow;331;true;focus;yes;1001165;Chrome;112.0;Windows;10;undefined;undefined;1366 x 768;1366 x 768
H030;31;Vrouwelijk;Rechts;5;123;right;no;150;rightarrow;432;true;focus;yes;1002379;Chrome;112.0;Windows;10;undefined;undefined;1366 x 768;1366 x 768
H030;31;Vrouwelijk;Rechts;5;124;right;no;150;rightarrow;391;true;focus;yes;1003527;Chrome;112.0;Windows;10;undefined;undefined;1366 x 768;1366 x 768
H030;31;Vrouwelijk;Rechts;5;125;right;no;150;rightarrow;379;true;focus;yes;1004671;Chrome;112.0;Windows;10;undefined;undefined;1366 x 768;1366 x 768
H030;31;Vrouwelijk;Rechts;5;126;right;yes;150;undefined;null;true;focus;yes;1006698;Chrome;112.0;Windows;10;undefined;undefined;1366 x 768;1366 x 768
H030;31;Vrouwelijk;Rechts;5;127;left;yes;200;leftarrow;336;false;focus;yes;1007817;Chrome;112.0;Windows;10;undefined;undefined;1366 x 768;1366 x 768
H030;31;Vrouwelijk;Rechts;5;128;left;no;150;leftarrow;359;true;focus;yes;1008948;Chrome;112.0;Windows;10;undefined;undefined;1366 x 768;1366 x 768
H030;31;Vrouwelijk;Rechts;6;1;left;yes;150;leftarrow;479;false;focus;yes;1028327;Chrome;112.0;Windows;10;undefined;undefined;1366 x 768;1366 x 768
H030;31;Vrouwelijk;Rechts;6;2;left;no;100;leftarrow;317;true;focus;yes;1029414;Chrome;112.0;Windows;10;undefined;undefined;1366 x 768;1366 x 768
H030;31;Vrouwelijk;Rechts;6;3;left;no;100;leftarrow;349;true;focus;yes;1030549;Chrome;112.0;Windows;10;undefined;undefined;1366 x 768;1366 x 768
H030;31;Vrouwelijk;Rechts;6;4;right;no;100;rightarrow;462;true;focus;yes;1031777;Chrome;112.0;Windows;10;undefined;undefined;1366 x 768;1366 x 768
H030;31;Vrouwelijk;Rechts;6;5;right;no;100;rightarrow;405;true;focus;yes;1032959;Chrome;112.0;Windows;10;undefined;undefined;1366 x 768;1366 x 768
H030;31;Vrouwelijk;Rechts;6;6;left;no;100;leftarrow;487;true;focus;yes;1034215;Chrome;112.0;Windows;10;undefined;undefined;1366 x 768;1366 x 768
H030;31;Vrouwelijk;Rechts;6;7;right;no;100;rightarrow;377;true;focus;yes;1035368;Chrome;112.0;Windows;10;undefined;undefined;1366 x 768;1366 x 768
H030;31;Vrouwelijk;Rechts;6;8;right;yes;100;undefined;null;true;focus;yes;1037396;Chrome;112.0;Windows;10;undefined;undefined;1366 x 768;1366 x 768
H030;31;Vrouwelijk;Rechts;6;9;left;yes;150;leftarrow;317;false;focus;yes;1038483;Chrome;112.0;Windows;10;undefined;undefined;1366 x 768;1366 x 768
H030;31;Vrouwelijk;Rechts;6;10;right;no;100;rightarrow;346;true;focus;yes;1039604;Chrome;112.0;Windows;10;undefined;undefined;1366 x 768;1366 x 768
H030;31;Vrouwelijk;Rechts;6;11;right;yes;100;rightarrow;312;false;focus;yes;1040676;Chrome;112.0;Windows;10;undefined;undefined;1366 x 768;1366 x 768
H030;31;Vrouwelijk;Rechts;6;12;left;no;50;leftarrow;277;true;focus;yes;1041723;Chrome;112.0;Windows;10;undefined;undefined;1366 x 768;1366 x 768
H030;31;Vrouwelijk;Rechts;6;13;left;no;50;leftarrow;317;true;focus;yes;1042799;Chrome;112.0;Windows;10;undefined;undefined;1366 x 768;1366 x 768
H030;31;Vrouwelijk;Rechts;6;14;right;no;50;rightarrow;390;true;focus;yes;1043957;Chrome;112.0;Windows;10;undefined;undefined;1366 x 768;1366 x 768
H030;31;Vrouwelijk;Rechts;6;15;right;no;50;rightarrow;326;true;focus;yes;1045052;Chrome;112.0;Windows;10;undefined;undefined;1366 x 768;1366 x 768
H030;31;Vrouwelijk;Rechts;6;16;left;no;50;leftarrow;422;true;focus;yes;1046255;Chrome;112.0;Windows;10;undefined;undefined;1366 x 768;1366 x 768
H030;31;Vrouwelijk;Rechts;6;17;left;no;50;leftarrow;530;true;focus;yes;1047566;Chrome;112.0;Windows;10;undefined;undefined;1366 x 768;1366 x 768
H030;31;Vrouwelijk;Rechts;6;18;left;yes;50;undefined;null;true;focus;yes;1049582;Chrome;112.0;Windows;10;undefined;undefined;1366 x 768;1366 x 768
H030;31;Vrouwelijk;Rechts;6;19;left;no;100;leftarrow;306;true;focus;yes;1050668;Chrome;112.0;Windows;10;undefined;undefined;1366 x 768;1366 x 768
H030;31;Vrouwelijk;Rechts;6;20;right;no;100;rightarrow;426;true;focus;yes;1051866;Chrome;112.0;Windows;10;undefined;undefined;1366 x 768;1366 x 768
H030;31;Vrouwelijk;Rechts;6;21;right;no;100;rightarrow;456;true;focus;yes;1053093;Chrome;112.0;Windows;10;undefined;undefined;1366 x 768;1366 x 768
H030;31;Vrouwelijk;Rechts;6;22;right;yes;100;undefined;null;true;focus;yes;1055132;Chrome;112.0;Windows;10;undefined;undefined;1366 x 768;1366 x 768
H030;31;Vrouwelijk;Rechts;6;23;left;no;150;leftarrow;292;true;focus;yes;1056203;Chrome;112.0;Windows;10;undefined;undefined;1366 x 768;1366 x 768
H030;31;Vrouwelijk;Rechts;6;24;right;no;150;rightarrow;379;true;focus;yes;1057353;Chrome;112.0;Windows;10;undefined;undefined;1366 x 768;1366 x 768
H030;31;Vrouwelijk;Rechts;6;25;right;no;150;rightarrow;329;true;focus;yes;1058440;Chrome;112.0;Windows;10;undefined;undefined;1366 x 768;1366 x 768
H030;31;Vrouwelijk;Rechts;6;26;left;no;150;leftarrow;349;true;focus;yes;1059571;Chrome;112.0;Windows;10;undefined;undefined;1366 x 768;1366 x 768
H030;31;Vrouwelijk;Rechts;6;27;left;no;150;leftarrow;561;true;focus;yes;1060892;Chrome;112.0;Windows;10;undefined;undefined;1366 x 768;1366 x 768
H030;31;Vrouwelijk;Rechts;6;28;right;yes;150;rightarrow;297;false;focus;yes;1061966;Chrome;112.0;Windows;10;undefined;undefined;1366 x 768;1366 x 768
