participantID;age;gender;handedness;block_i;trial_i;stim;signal;SSD;response;rt;correct;focus;Fullscreen;time_elapsed;browser_name;browser_version;os_name;os_version;tablet;mobile;screen_resolution;window_resolution
H044;25;Mannelijk;Rechts;0;1;left;no;200;leftarrow;516;true;focus;yes;220067;Chrome;112.0;Windows;10;undefined;undefined;1366 x 768;1366 x 768
H044;25;Mannelijk;Rechts;0;2;right;yes;200;rightarrow;349;false;focus;yes;221948;Chrome;112.0;Windows;10;undefined;undefined;1366 x 768;1366 x 768
H044;25;Mannelijk;Rechts;0;3;right;no;150;rightarrow;440;true;focus;yes;223939;Chrome;112.0;Windows;10;undefined;undefined;1366 x 768;1366 x 768
H044;25;Mannelijk;Rechts;0;4;left;no;150;leftarrow;322;true;focus;yes;225802;Chrome;112.0;Windows;10;undefined;undefined;1366 x 768;1366 x 768
H044;25;Mannelijk;Rechts;0;5;right;no;150;rightarrow;315;true;focus;yes;227644;Chrome;112.0;Windows;10;undefined;undefined;1366 x 768;1366 x 768
H044;25;Mannelijk;Rechts;0;6;left;no;150;leftarrow;310;true;focus;yes;229505;Chrome;112.0;Windows;10;undefined;undefined;1366 x 768;1366 x 768
H044;25;Mannelijk;Rechts;0;7;right;no;150;rightarrow;316;true;focus;yes;231362;Chrome;112.0;Windows;10;undefined;undefined;1366 x 768;1366 x 768
H044;25;Mannelijk;Rechts;0;8;left;yes;150;leftarrow;504;false;focus;yes;233416;Chrome;112.0;Windows;10;undefined;undefined;1366 x 768;1366 x 768
H044;25;Mannelijk;Rechts;1;1;right;no;100;rightarrow;500;true;focus;yes;254208;Chrome;112.0;Windows;10;undefined;undefined;1366 x 768;1366 x 768
H044;25;Mannelijk;Rechts;1;2;right;no;100;rightarrow;440;true;focus;yes;255430;Chrome;112.0;Windows;10;undefined;undefined;1366 x 768;1366 x 768
H044;25;Mannelijk;Rechts;1;3;left;no;100;leftarrow;382;true;focus;yes;256588;Chrome;112.0;Windows;10;undefined;undefined;1366 x 768;1366 x 768
H044;25;Mannelijk;Rechts;1;4;left;yes;100;undefined;null;true;focus;yes;258630;Chrome;112.0;Windows;10;undefined;undefined;1366 x 768;1366 x 768
H044;25;Mannelijk;Rechts;1;5;left;no;150;leftarrow;433;true;focus;yes;259839;Chrome;112.0;Windows;10;undefined;undefined;1366 x 768;1366 x 768
H044;25;Mannelijk;Rechts;1;6;right;yes;150;rightarrow;328;false;focus;yes;260950;Chrome;112.0;Windows;10;undefined;undefined;1366 x 768;1366 x 768
H044;25;Mannelijk;Rechts;1;7;right;no;100;rightarrow;451;true;focus;yes;262174;Chrome;112.0;Windows;10;undefined;undefined;1366 x 768;1366 x 768
H044;25;Mannelijk;Rechts;1;8;left;no;100;leftarrow;382;true;focus;yes;263337;Chrome;112.0;Windows;10;undefined;undefined;1366 x 768;1366 x 768
H044;25;Mannelijk;Rechts;1;9;right;no;100;rightarrow;600;true;focus;yes;264721;Chrome;112.0;Windows;10;undefined;undefined;1366 x 768;1366 x 768
H044;25;Mannelijk;Rechts;1;10;right;no;100;rightarrow;474;true;focus;yes;265978;Chrome;112.0;Windows;10;undefined;undefined;1366 x 768;1366 x 768
H044;25;Mannelijk;Rechts;1;11;left;no;100;leftarrow;410;true;focus;yes;267163;Chrome;112.0;Windows;10;undefined;undefined;1366 x 768;1366 x 768
H044;25;Mannelijk;Rechts;1;12;left;no;100;leftarrow;445;true;focus;yes;268382;Chrome;112.0;Windows;10;undefined;undefined;1366 x 768;1366 x 768
H044;25;Mannelijk;Rechts;1;13;left;yes;100;undefined;null;true;focus;yes;270410;Chrome;112.0;Windows;10;undefined;undefined;1366 x 768;1366 x 768
H044;25;Mannelijk;Rechts;1;14;right;yes;150;rightarrow;361;false;focus;yes;271547;Chrome;112.0;Windows;10;undefined;undefined;1366 x 768;1366 x 768
H044;25;Mannelijk;Rechts;1;15;left;no;100;leftarrow;545;true;focus;yes;272865;Chrome;112.0;Windows;10;undefined;undefined;1366 x 768;1366 x 768
H044;25;Mannelijk;Rechts;1;16;right;no;100;rightarrow;421;true;focus;yes;274056;Chrome;112.0;Windows;10;undefined;undefined;1366 x 768;1366 x 768
H044;25;Mannelijk;Rechts;1;17;right;yes;100;undefined;null;true;focus;yes;276091;Chrome;112.0;Windows;10;undefined;undefined;1366 x 768;1366 x 768
H044;25;Mannelijk;Rechts;1;18;left;no;150;leftarrow;490;true;focus;yes;277356;Chrome;112.0;Windows;10;undefined;undefined;1366 x 768;1366 x 768
H044;25;Mannelijk;Rechts;1;19;left;no;150;leftarrow;433;true;focus;yes;278565;Chrome;112.0;Windows;10;undefined;undefined;1366 x 768;1366 x 768
H044;25;Mannelijk;Rechts;1;20;right;no;150;rightarrow;447;true;focus;yes;279780;Chrome;112.0;Windows;10;undefined;undefined;1366 x 768;1366 x 768
H044;25;Mannelijk;Rechts;1;21;left;no;150;leftarrow;422;true;focus;yes;280971;Chrome;112.0;Windows;10;undefined;undefined;1366 x 768;1366 x 768
H044;25;Mannelijk;Rechts;1;22;left;yes;150;leftarrow;406;false;focus;yes;282156;Chrome;112.0;Windows;10;undefined;undefined;1366 x 768;1366 x 768
H044;25;Mannelijk;Rechts;1;23;right;no;100;rightarrow;441;true;focus;yes;283374;Chrome;112.0;Windows;10;undefined;undefined;1366 x 768;1366 x 768
H044;25;Mannelijk;Rechts;1;24;right;no;100;rightarrow;430;true;focus;yes;284578;Chrome;112.0;Windows;10;undefined;undefined;1366 x 768;1366 x 768
H044;25;Mannelijk;Rechts;1;25;right;no;100;rightarrow;425;true;focus;yes;285773;Chrome;112.0;Windows;10;undefined;undefined;1366 x 768;1366 x 768
H044;25;Mannelijk;Rechts;1;26;right;no;100;rightarrow;547;true;focus;yes;287096;Chrome;112.0;Windows;10;undefined;undefined;1366 x 768;1366 x 768
H044;25;Mannelijk;Rechts;1;27;right;yes;100;rightarrow;350;false;focus;yes;288231;Chrome;112.0;Windows;10;undefined;undefined;1366 x 768;1366 x 768
H044;25;Mannelijk;Rechts;1;28;left;no;50;leftarrow;461;true;focus;yes;289474;Chrome;112.0;Windows;10;undefined;undefined;1366 x 768;1366 x 768
H044;25;Mannelijk;Rechts;1;29;left;no;50;leftarrow;442;true;focus;yes;290689;Chrome;112.0;Windows;10;undefined;undefined;1366 x 768;1366 x 768
H044;25;Mannelijk;Rechts;1;30;right;no;50;rightarrow;807;true;focus;yes;292271;Chrome;112.0;Windows;10;undefined;undefined;1366 x 768;1366 x 768
H044;25;Mannelijk;Rechts;1;31;left;yes;50;undefined;null;true;focus;yes;294301;Chrome;112.0;Windows;10;undefined;undefined;1366 x 768;1366 x 768
H044;25;Mannelijk;Rechts;1;32;left;no;100;leftarrow;600;true;focus;yes;295678;Chrome;112.0;Windows;10;undefined;undefined;1366 x 768;1366 x 768
H044;25;Mannelijk;Rechts;1;33;right;no;100;rightarrow;458;true;focus;yes;296921;Chrome;112.0;Windows;10;undefined;undefined;1366 x 768;1366 x 768
H044;25;Mannelijk;Rechts;1;34;right;yes;100;undefined;null;true;focus;yes;298952;Chrome;112.0;Windows;10;undefined;undefined;1366 x 768;1366 x 768
H044;25;Mannelijk;Rechts;1;35;left;yes;150;leftarrow;380;false;focus;yes;300104;Chrome;112.0;Windows;10;undefined;undefined;1366 x 768;1366 x 768
H044;25;Mannelijk;Rechts;1;36;right;no;100;rightarrow;485;true;focus;yes;301364;Chrome;112.0;Windows;10;undefined;undefined;1366 x 768;1366 x 768
H044;25;Mannelijk;Rechts;1;37;left;no;100;leftarrow;659;true;focus;yes;302805;Chrome;112.0;Windows;10;undefined;undefined;1366 x 768;1366 x 768
H044;25;Mannelijk;Rechts;1;38;right;no;100;rightarrow;518;true;focus;yes;304096;Chrome;112.0;Windows;10;undefined;undefined;1366 x 768;1366 x 768
H044;25;Mannelijk;Rechts;1;39;left;no;100;leftarrow;552;true;focus;yes;305431;Chrome;112.0;Windows;10;undefined;undefined;1366 x 768;1366 x 768
H044;25;Mannelijk;Rechts;1;40;left;no;100;leftarrow;464;true;focus;yes;306676;Chrome;112.0;Windows;10;undefined;undefined;1366 x 768;1366 x 768
H044;25;Mannelijk;Rechts;1;41;right;no;100;rightarrow;506;true;focus;yes;307966;Chrome;112.0;Windows;10;undefined;undefined;1366 x 768;1366 x 768
H044;25;Mannelijk;Rechts;1;42;right;yes;100;undefined;null;true;focus;yes;310002;Chrome;112.0;Windows;10;undefined;undefined;1366 x 768;1366 x 768
H044;25;Mannelijk;Rechts;1;43;left;no;150;leftarrow;503;true;focus;yes;311279;Chrome;112.0;Windows;10;undefined;undefined;1366 x 768;1366 x 768
H044;25;Mannelijk;Rechts;1;44;right;no;150;rightarrow;403;true;focus;yes;312462;Chrome;112.0;Windows;10;undefined;undefined;1366 x 768;1366 x 768
H044;25;Mannelijk;Rechts;1;45;right;no;150;rightarrow;404;true;focus;yes;313647;Chrome;112.0;Windows;10;undefined;undefined;1366 x 768;1366 x 768
H044;25;Mannelijk;Rechts;1;46;left;no;150;leftarrow;361;true;focus;yes;314788;Chrome;112.0;Windows;10;undefined;undefined;1366 x 768;1366 x 768
H044;25;Mannelijk;Rechts;1;47;left;yes;150;undefined;null;true;focus;yes;316819;Chrome;112.0;Windows;10;undefined;undefined;1366 x 768;1366 x 768
H044;25;Mannelijk;Rechts;1;48;left;no;200;leftarrow;469;true;focus;yes;318062;Chrome;112.0;Windows;10;undefined;undefined;1366 x 768;1366 x 768
H044;25;Mannelijk;Rechts;1;49;left;no;200;leftarrow;354;true;focus;yes;319195;Chrome;112.0;Windows;10;undefined;undefined;1366 x 768;1366 x 768
H044;25;Mannelijk;Rechts;1;50;right;yes;200;rightarrow;343;false;focus;yes;320317;Chrome;112.0;Windows;10;undefined;undefined;1366 x 768;1366 x 768
H044;25;Mannelijk;Rechts;1;51;right;no;150;rightarrow;476;true;focus;yes;321568;Chrome;112.0;Windows;10;undefined;undefined;1366 x 768;1366 x 768
H044;25;Mannelijk;Rechts;1;52;right;no;150;rightarrow;360;true;focus;yes;322702;Chrome;112.0;Windows;10;undefined;undefined;1366 x 768;1366 x 768
H044;25;Mannelijk;Rechts;1;53;left;no;150;leftarrow;379;true;focus;yes;323854;Chrome;112.0;Windows;10;undefined;undefined;1366 x 768;1366 x 768
H044;25;Mannelijk;Rechts;1;54;right;no;150;rightarrow;381;true;focus;yes;325022;Chrome;112.0;Windows;10;undefined;undefined;1366 x 768;1366 x 768
H044;25;Mannelijk;Rechts;1;55;left;no;150;leftarrow;352;true;focus;yes;326159;Chrome;112.0;Windows;10;undefined;undefined;1366 x 768;1366 x 768
H044;25;Mannelijk;Rechts;1;56;left;yes;150;undefined;null;true;focus;yes;328200;Chrome;112.0;Windows;10;undefined;undefined;1366 x 768;1366 x 768
H044;25;Mannelijk;Rechts;1;57;right;no;200;rightarrow;529;true;focus;yes;329502;Chrome;112.0;Windows;10;undefined;undefined;1366 x 768;1366 x 768
H044;25;Mannelijk;Rechts;1;58;right;no;200;rightarrow;476;true;focus;yes;330765;Chrome;112.0;Windows;10;undefined;undefined;1366 x 768;1366 x 768
H044;25;Mannelijk;Rechts;1;59;left;no;200;leftarrow;469;true;focus;yes;332008;Chrome;112.0;Windows;10;undefined;undefined;1366 x 768;1366 x 768
H044;25;Mannelijk;Rechts;1;60;left;yes;200;undefined;null;true;focus;yes;334052;Chrome;112.0;Windows;10;undefined;undefined;1366 x 768;1366 x 768
H044;25;Mannelijk;Rechts;1;61;left;no;250;leftarrow;474;true;focus;yes;335312;Chrome;112.0;Windows;10;undefined;undefined;1366 x 768;1366 x 768
H044;25;Mannelijk;Rechts;1;62;right;yes;250;rightarrow;354;false;focus;yes;336441;Chrome;112.0;Windows;10;undefined;undefined;1366 x 768;1366 x 768
H044;25;Mannelijk;Rechts;1;63;right;no;200;rightarrow;372;true;focus;yes;337593;Chrome;112.0;Windows;10;undefined;undefined;1366 x 768;1366 x 768
H044;25;Mannelijk;Rechts;1;64;left;no;200;leftarrow;428;true;focus;yes;338798;Chrome;112.0;Windows;10;undefined;undefined;1366 x 768;1366 x 768
H044;25;Mannelijk;Rechts;1;65;left;no;200;leftarrow;369;true;focus;yes;339940;Chrome;112.0;Windows;10;undefined;undefined;1366 x 768;1366 x 768
H044;25;Mannelijk;Rechts;1;66;left;yes;200;leftarrow;438;false;focus;yes;341158;Chrome;112.0;Windows;10;undefined;undefined;1366 x 768;1366 x 768
H044;25;Mannelijk;Rechts;1;67;right;no;150;rightarrow;456;true;focus;yes;342393;Chrome;112.0;Windows;10;undefined;undefined;1366 x 768;1366 x 768
H044;25;Mannelijk;Rechts;1;68;right;no;150;rightarrow;371;true;focus;yes;343541;Chrome;112.0;Windows;10;undefined;undefined;1366 x 768;1366 x 768
H044;25;Mannelijk;Rechts;1;69;left;no;150;leftarrow;499;true;focus;yes;344818;Chrome;112.0;Windows;10;undefined;undefined;1366 x 768;1366 x 768
H044;25;Mannelijk;Rechts;1;70;left;no;150;leftarrow;376;true;focus;yes;345978;Chrome;112.0;Windows;10;undefined;undefined;1366 x 768;1366 x 768
H044;25;Mannelijk;Rechts;1;71;right;no;150;rightarrow;561;true;focus;yes;347312;Chrome;112.0;Windows;10;undefined;undefined;1366 x 768;1366 x 768
H044;25;Mannelijk;Rechts;1;72;right;yes;150;rightarrow;310;false;focus;yes;348394;Chrome;112.0;Windows;10;undefined;undefined;1366 x 768;1366 x 768
H044;25;Mannelijk;Rechts;1;73;left;yes;100;undefined;null;true;focus;yes;350424;Chrome;112.0;Windows;10;undefined;undefined;1366 x 768;1366 x 768
H044;25;Mannelijk;Rechts;1;74;right;no;150;rightarrow;431;true;focus;yes;351631;Chrome;112.0;Windows;10;undefined;undefined;1366 x 768;1366 x 768
H044;25;Mannelijk;Rechts;1;75;left;no;150;leftarrow;526;true;focus;yes;352944;Chrome;112.0;Windows;10;undefined;undefined;1366 x 768;1366 x 768
H044;25;Mannelijk;Rechts;1;76;right;yes;150;undefined;null;true;focus;yes;354975;Chrome;112.0;Windows;10;undefined;undefined;1366 x 768;1366 x 768
H044;25;Mannelijk;Rechts;1;77;right;no;200;rightarrow;468;true;focus;yes;356218;Chrome;112.0;Windows;10;undefined;undefined;1366 x 768;1366 x 768
H044;25;Mannelijk;Rechts;1;78;left;no;200;leftarrow;409;true;focus;yes;357408;Chrome;112.0;Windows;10;undefined;undefined;1366 x 768;1366 x 768
H044;25;Mannelijk;Rechts;1;79;right;no;200;rightarrow;400;true;focus;yes;358582;Chrome;112.0;Windows;10;undefined;undefined;1366 x 768;1366 x 768
H044;25;Mannelijk;Rechts;1;80;left;no;200;leftarrow;361;true;focus;yes;359727;Chrome;112.0;Windows;10;undefined;undefined;1366 x 768;1366 x 768
H044;25;Mannelijk;Rechts;1;81;right;no;200;rightarrow;392;true;focus;yes;360889;Chrome;112.0;Windows;10;undefined;undefined;1366 x 768;1366 x 768
H044;25;Mannelijk;Rechts;1;82;left;no;200;leftarrow;436;true;focus;yes;362100;Chrome;112.0;Windows;10;undefined;undefined;1366 x 768;1366 x 768
H044;25;Mannelijk;Rechts;1;83;left;no;200;leftarrow;443;true;focus;yes;363325;Chrome;112.0;Windows;10;undefined;undefined;1366 x 768;1366 x 768
H044;25;Mannelijk;Rechts;1;84;right;yes;200;undefined;null;true;focus;yes;365360;Chrome;112.0;Windows;10;undefined;undefined;1366 x 768;1366 x 768
H044;25;Mannelijk;Rechts;1;85;left;yes;250;leftarrow;464;false;focus;yes;366612;Chrome;112.0;Windows;10;undefined;undefined;1366 x 768;1366 x 768
H044;25;Mannelijk;Rechts;1;86;left;no;200;leftarrow;393;true;focus;yes;367789;Chrome;112.0;Windows;10;undefined;undefined;1366 x 768;1366 x 768
H044;25;Mannelijk;Rechts;1;87;right;no;200;rightarrow;335;true;focus;yes;368896;Chrome;112.0;Windows;10;undefined;undefined;1366 x 768;1366 x 768
H044;25;Mannelijk;Rechts;1;88;right;no;200;rightarrow;418;true;focus;yes;370097;Chrome;112.0;Windows;10;undefined;undefined;1366 x 768;1366 x 768
H044;25;Mannelijk;Rechts;1;89;right;no;200;rightarrow;314;true;focus;yes;371192;Chrome;112.0;Windows;10;undefined;undefined;1366 x 768;1366 x 768
H044;25;Mannelijk;Rechts;1;90;right;no;200;rightarrow;327;true;focus;yes;372289;Chrome;112.0;Windows;10;undefined;undefined;1366 x 768;1366 x 768
H044;25;Mannelijk;Rechts;1;91;left;no;200;leftarrow;456;true;focus;yes;373517;Chrome;112.0;Windows;10;undefined;undefined;1366 x 768;1366 x 768
H044;25;Mannelijk;Rechts;1;92;left;no;200;leftarrow;321;true;focus;yes;374614;Chrome;112.0;Windows;10;undefined;undefined;1366 x 768;1366 x 768
H044;25;Mannelijk;Rechts;1;93;right;no;200;rightarrow;369;true;focus;yes;375762;Chrome;112.0;Windows;10;undefined;undefined;1366 x 768;1366 x 768
H044;25;Mannelijk;Rechts;1;94;left;yes;200;leftarrow;399;false;focus;yes;376943;Chrome;112.0;Windows;10;undefined;undefined;1366 x 768;1366 x 768
H044;25;Mannelijk;Rechts;1;95;right;yes;150;rightarrow;338;false;focus;yes;378065;Chrome;112.0;Windows;10;undefined;undefined;1366 x 768;1366 x 768
H044;25;Mannelijk;Rechts;1;96;left;no;100;leftarrow;362;true;focus;yes;379206;Chrome;112.0;Windows;10;undefined;undefined;1366 x 768;1366 x 768
H044;25;Mannelijk;Rechts;1;97;left;no;100;leftarrow;325;true;focus;yes;380300;Chrome;112.0;Windows;10;undefined;undefined;1366 x 768;1366 x 768
H044;25;Mannelijk;Rechts;1;98;left;no;100;leftarrow;347;true;focus;yes;381424;Chrome;112.0;Windows;10;undefined;undefined;1366 x 768;1366 x 768
H044;25;Mannelijk;Rechts;1;99;right;yes;100;undefined;null;true;focus;yes;383466;Chrome;112.0;Windows;10;undefined;undefined;1366 x 768;1366 x 768
H044;25;Mannelijk;Rechts;1;100;right;no;150;rightarrow;459;true;focus;yes;384701;Chrome;112.0;Windows;10;undefined;undefined;1366 x 768;1366 x 768
H044;25;Mannelijk;Rechts;1;101;left;yes;150;leftarrow;361;false;focus;yes;385835;Chrome;112.0;Windows;10;undefined;undefined;1366 x 768;1366 x 768
H044;25;Mannelijk;Rechts;1;102;right;no;100;rightarrow;436;true;focus;yes;387043;Chrome;112.0;Windows;10;undefined;undefined;1366 x 768;1366 x 768
H044;25;Mannelijk;Rechts;1;103;left;no;100;leftarrow;513;true;focus;yes;388337;Chrome;112.0;Windows;10;undefined;undefined;1366 x 768;1366 x 768
H044;25;Mannelijk;Rechts;1;104;right;no;100;rightarrow;380;true;focus;yes;389486;Chrome;112.0;Windows;10;undefined;undefined;1366 x 768;1366 x 768
H044;25;Mannelijk;Rechts;1;105;right;no;100;rightarrow;404;true;focus;yes;390660;Chrome;112.0;Windows;10;undefined;undefined;1366 x 768;1366 x 768
H044;25;Mannelijk;Rechts;1;106;left;no;100;leftarrow;424;true;focus;yes;391864;Chrome;112.0;Windows;10;undefined;undefined;1366 x 768;1366 x 768
H044;25;Mannelijk;Rechts;1;107;left;no;100;leftarrow;475;true;focus;yes;393115;Chrome;112.0;Windows;10;undefined;undefined;1366 x 768;1366 x 768
H044;25;Mannelijk;Rechts;1;108;right;no;100;rightarrow;430;true;focus;yes;394319;Chrome;112.0;Windows;10;undefined;undefined;1366 x 768;1366 x 768
H044;25;Mannelijk;Rechts;1;109;left;yes;100;undefined;null;true;focus;yes;396347;Chrome;112.0;Windows;10;undefined;undefined;1366 x 768;1366 x 768
H044;25;Mannelijk;Rechts;1;110;right;yes;150;undefined;null;true;focus;yes;398382;Chrome;112.0;Windows;10;undefined;undefined;1366 x 768;1366 x 768
H044;25;Mannelijk;Rechts;1;111;right;no;200;rightarrow;538;true;focus;yes;399692;Chrome;112.0;Windows;10;undefined;undefined;1366 x 768;1366 x 768
H044;25;Mannelijk;Rechts;1;112;left;no;200;leftarrow;393;true;focus;yes;400865;Chrome;112.0;Windows;10;undefined;undefined;1366 x 768;1366 x 768
H044;25;Mannelijk;Rechts;1;113;right;no;200;rightarrow;344;true;focus;yes;401981;Chrome;112.0;Windows;10;undefined;undefined;1366 x 768;1366 x 768
H044;25;Mannelijk;Rechts;1;114;right;yes;200;undefined;null;true;focus;yes;404017;Chrome;112.0;Windows;10;undefined;undefined;1366 x 768;1366 x 768
H044;25;Mannelijk;Rechts;1;115;right;no;250;rightarrow;532;true;focus;yes;405318;Chrome;112.0;Windows;10;undefined;undefined;1366 x 768;1366 x 768
H044;25;Mannelijk;Rechts;1;116;left;no;250;leftarrow;543;true;focus;yes;406630;Chrome;112.0;Windows;10;undefined;undefined;1366 x 768;1366 x 768
H044;25;Mannelijk;Rechts;1;117;right;no;250;rightarrow;422;true;focus;yes;407824;Chrome;112.0;Windows;10;undefined;undefined;1366 x 768;1366 x 768
H044;25;Mannelijk;Rechts;1;118;left;yes;250;leftarrow;415;false;focus;yes;409017;Chrome;112.0;Windows;10;undefined;undefined;1366 x 768;1366 x 768
H044;25;Mannelijk;Rechts;1;119;left;no;200;leftarrow;620;true;focus;yes;410405;Chrome;112.0;Windows;10;undefined;undefined;1366 x 768;1366 x 768
H044;25;Mannelijk;Rechts;1;120;left;no;200;leftarrow;479;true;focus;yes;411664;Chrome;112.0;Windows;10;undefined;undefined;1366 x 768;1366 x 768
H044;25;Mannelijk;Rechts;1;121;right;yes;200;rightarrow;412;false;focus;yes;412846;Chrome;112.0;Windows;10;undefined;undefined;1366 x 768;1366 x 768
H044;25;Mannelijk;Rechts;1;122;left;yes;150;undefined;null;true;focus;yes;414879;Chrome;112.0;Windows;10;undefined;undefined;1366 x 768;1366 x 768
H044;25;Mannelijk;Rechts;1;123;right;no;200;rightarrow;421;true;focus;yes;416071;Chrome;112.0;Windows;10;undefined;undefined;1366 x 768;1366 x 768
H044;25;Mannelijk;Rechts;1;124;left;no;200;leftarrow;410;true;focus;yes;417260;Chrome;112.0;Windows;10;undefined;undefined;1366 x 768;1366 x 768
H044;25;Mannelijk;Rechts;1;125;right;no;200;rightarrow;389;true;focus;yes;418422;Chrome;112.0;Windows;10;undefined;undefined;1366 x 768;1366 x 768
H044;25;Mannelijk;Rechts;1;126;right;no;200;rightarrow;360;true;focus;yes;419561;Chrome;112.0;Windows;10;undefined;undefined;1366 x 768;1366 x 768
H044;25;Mannelijk;Rechts;1;127;left;no;200;leftarrow;457;true;focus;yes;420790;Chrome;112.0;Windows;10;undefined;undefined;1366 x 768;1366 x 768
H044;25;Mannelijk;Rechts;1;128;left;no;200;leftarrow;604;true;focus;yes;422171;Chrome;112.0;Windows;10;undefined;undefined;1366 x 768;1366 x 768
H044;25;Mannelijk;Rechts;2;1;right;no;200;rightarrow;481;true;focus;yes;441612;Chrome;112.0;Windows;10;undefined;undefined;1366 x 768;1366 x 768
H044;25;Mannelijk;Rechts;2;2;right;no;200;rightarrow;407;true;focus;yes;442803;Chrome;112.0;Windows;10;undefined;undefined;1366 x 768;1366 x 768
H044;25;Mannelijk;Rechts;2;3;left;no;200;leftarrow;571;true;focus;yes;444150;Chrome;112.0;Windows;10;undefined;undefined;1366 x 768;1366 x 768
H044;25;Mannelijk;Rechts;2;4;left;yes;200;leftarrow;374;false;focus;yes;445302;Chrome;112.0;Windows;10;undefined;undefined;1366 x 768;1366 x 768
H044;25;Mannelijk;Rechts;2;5;left;no;150;leftarrow;499;true;focus;yes;446577;Chrome;112.0;Windows;10;undefined;undefined;1366 x 768;1366 x 768
H044;25;Mannelijk;Rechts;2;6;right;no;150;rightarrow;405;true;focus;yes;447767;Chrome;112.0;Windows;10;undefined;undefined;1366 x 768;1366 x 768
H044;25;Mannelijk;Rechts;2;7;left;no;150;leftarrow;432;true;focus;yes;448976;Chrome;112.0;Windows;10;undefined;undefined;1366 x 768;1366 x 768
H044;25;Mannelijk;Rechts;2;8;right;yes;150;undefined;null;true;focus;yes;451002;Chrome;112.0;Windows;10;undefined;undefined;1366 x 768;1366 x 768
H044;25;Mannelijk;Rechts;2;9;right;no;200;rightarrow;631;true;focus;yes;452408;Chrome;112.0;Windows;10;undefined;undefined;1366 x 768;1366 x 768
H044;25;Mannelijk;Rechts;2;10;right;no;200;rightarrow;587;true;focus;yes;453779;Chrome;112.0;Windows;10;undefined;undefined;1366 x 768;1366 x 768
H044;25;Mannelijk;Rechts;2;11;left;no;200;leftarrow;604;true;focus;yes;455163;Chrome;112.0;Windows;10;undefined;undefined;1366 x 768;1366 x 768
H044;25;Mannelijk;Rechts;2;12;left;no;200;leftarrow;396;true;focus;yes;456339;Chrome;112.0;Windows;10;undefined;undefined;1366 x 768;1366 x 768
H044;25;Mannelijk;Rechts;2;13;right;yes;200;rightarrow;392;false;focus;yes;457517;Chrome;112.0;Windows;10;undefined;undefined;1366 x 768;1366 x 768
H044;25;Mannelijk;Rechts;2;14;left;no;150;leftarrow;569;true;focus;yes;458860;Chrome;112.0;Windows;10;undefined;undefined;1366 x 768;1366 x 768
H044;25;Mannelijk;Rechts;2;15;right;no;150;rightarrow;409;true;focus;yes;460051;Chrome;112.0;Windows;10;undefined;undefined;1366 x 768;1366 x 768
H044;25;Mannelijk;Rechts;2;16;left;yes;150;undefined;null;true;focus;yes;462084;Chrome;112.0;Windows;10;undefined;undefined;1366 x 768;1366 x 768
H044;25;Mannelijk;Rechts;2;17;right;no;200;rightarrow;677;true;focus;yes;463534;Chrome;112.0;Windows;10;undefined;undefined;1366 x 768;1366 x 768
H044;25;Mannelijk;Rechts;2;18;right;no;200;rightarrow;475;true;focus;yes;464781;Chrome;112.0;Windows;10;undefined;undefined;1366 x 768;1366 x 768
H044;25;Mannelijk;Rechts;2;19;right;no;200;rightarrow;416;true;focus;yes;465973;Chrome;112.0;Windows;10;undefined;undefined;1366 x 768;1366 x 768
H044;25;Mannelijk;Rechts;2;20;left;yes;200;leftarrow;387;false;focus;yes;467144;Chrome;112.0;Windows;10;undefined;undefined;1366 x 768;1366 x 768
H044;25;Mannelijk;Rechts;2;21;left;no;150;leftarrow;431;true;focus;yes;468353;Chrome;112.0;Windows;10;undefined;undefined;1366 x 768;1366 x 768
H044;25;Mannelijk;Rechts;2;22;left;no;150;leftarrow;368;true;focus;yes;469507;Chrome;112.0;Windows;10;undefined;undefined;1366 x 768;1366 x 768
H044;25;Mannelijk;Rechts;2;23;right;yes;150;undefined;null;true;focus;yes;471548;Chrome;112.0;Windows;10;undefined;undefined;1366 x 768;1366 x 768
H044;25;Mannelijk;Rechts;2;24;left;no;200;leftarrow;493;true;focus;yes;472814;Chrome;112.0;Windows;10;undefined;undefined;1366 x 768;1366 x 768
H044;25;Mannelijk;Rechts;2;25;left;no;200;leftarrow;442;true;focus;yes;474030;Chrome;112.0;Windows;10;undefined;undefined;1366 x 768;1366 x 768
H044;25;Mannelijk;Rechts;2;26;right;yes;200;undefined;null;true;focus;yes;476066;Chrome;112.0;Windows;10;undefined;undefined;1366 x 768;1366 x 768
H044;25;Mannelijk;Rechts;2;27;right;no;250;rightarrow;493;true;focus;yes;477346;Chrome;112.0;Windows;10;undefined;undefined;1366 x 768;1366 x 768
H044;25;Mannelijk;Rechts;2;28;left;yes;250;leftarrow;297;false;focus;yes;478417;Chrome;112.0;Windows;10;undefined;undefined;1366 x 768;1366 x 768
H044;25;Mannelijk;Rechts;2;29;left;no;200;leftarrow;537;true;focus;yes;479723;Chrome;112.0;Windows;10;undefined;undefined;1366 x 768;1366 x 768
H044;25;Mannelijk;Rechts;2;30;left;no;200;leftarrow;454;true;focus;yes;480958;Chrome;112.0;Windows;10;undefined;undefined;1366 x 768;1366 x 768
H044;25;Mannelijk;Rechts;2;31;right;no;200;rightarrow;368;true;focus;yes;482104;Chrome;112.0;Windows;10;undefined;undefined;1366 x 768;1366 x 768
H044;25;Mannelijk;Rechts;2;32;right;no;200;rightarrow;357;true;focus;yes;483244;Chrome;112.0;Windows;10;undefined;undefined;1366 x 768;1366 x 768
H044;25;Mannelijk;Rechts;2;33;left;no;200;leftarrow;382;true;focus;yes;484399;Chrome;112.0;Windows;10;undefined;undefined;1366 x 768;1366 x 768
H044;25;Mannelijk;Rechts;2;34;right;no;200;rightarrow;428;true;focus;yes;485597;Chrome;112.0;Windows;10;undefined;undefined;1366 x 768;1366 x 768
H044;25;Mannelijk;Rechts;2;35;left;yes;200;leftarrow;370;false;focus;yes;486738;Chrome;112.0;Windows;10;undefined;undefined;1366 x 768;1366 x 768
H044;25;Mannelijk;Rechts;2;36;left;no;150;leftarrow;454;true;focus;yes;487972;Chrome;112.0;Windows;10;undefined;undefined;1366 x 768;1366 x 768
H044;25;Mannelijk;Rechts;2;37;right;yes;150;rightarrow;427;false;focus;yes;489178;Chrome;112.0;Windows;10;undefined;undefined;1366 x 768;1366 x 768
H044;25;Mannelijk;Rechts;2;38;right;no;100;rightarrow;481;true;focus;yes;490432;Chrome;112.0;Windows;10;undefined;undefined;1366 x 768;1366 x 768
H044;25;Mannelijk;Rechts;2;39;right;no;100;rightarrow;436;true;focus;yes;491653;Chrome;112.0;Windows;10;undefined;undefined;1366 x 768;1366 x 768
H044;25;Mannelijk;Rechts;2;40;left;no;100;leftarrow;481;true;focus;yes;492914;Chrome;112.0;Windows;10;undefined;undefined;1366 x 768;1366 x 768
H044;25;Mannelijk;Rechts;2;41;left;yes;100;undefined;null;true;focus;yes;494942;Chrome;112.0;Windows;10;undefined;undefined;1366 x 768;1366 x 768
H044;25;Mannelijk;Rechts;2;42;left;no;150;leftarrow;468;true;focus;yes;496184;Chrome;112.0;Windows;10;undefined;undefined;1366 x 768;1366 x 768
H044;25;Mannelijk;Rechts;2;43;left;no;150;leftarrow;429;true;focus;yes;497394;Chrome;112.0;Windows;10;undefined;undefined;1366 x 768;1366 x 768
H044;25;Mannelijk;Rechts;2;44;right;no;150;rightarrow;584;true;focus;yes;498750;Chrome;112.0;Windows;10;undefined;undefined;1366 x 768;1366 x 768
H044;25;Mannelijk;Rechts;2;45;left;no;150;leftarrow;351;true;focus;yes;499883;Chrome;112.0;Windows;10;undefined;undefined;1366 x 768;1366 x 768
H044;25;Mannelijk;Rechts;2;46;right;no;150;rightarrow;361;true;focus;yes;501026;Chrome;112.0;Windows;10;undefined;undefined;1366 x 768;1366 x 768
H044;25;Mannelijk;Rechts;2;47;right;no;150;rightarrow;442;true;focus;yes;502239;Chrome;112.0;Windows;10;undefined;undefined;1366 x 768;1366 x 768
H044;25;Mannelijk;Rechts;2;48;right;yes;150;undefined;null;true;focus;yes;504272;Chrome;112.0;Windows;10;undefined;undefined;1366 x 768;1366 x 768
H044;25;Mannelijk;Rechts;2;49;left;no;200;leftarrow;325;true;focus;yes;505373;Chrome;112.0;Windows;10;undefined;undefined;1366 x 768;1366 x 768
H044;25;Mannelijk;Rechts;2;50;right;no;200;rightarrow;418;true;focus;yes;506565;Chrome;112.0;Windows;10;undefined;undefined;1366 x 768;1366 x 768
H044;25;Mannelijk;Rechts;2;51;right;no;200;rightarrow;456;true;focus;yes;507802;Chrome;112.0;Windows;10;undefined;undefined;1366 x 768;1366 x 768
H044;25;Mannelijk;Rechts;2;52;left;yes;200;undefined;null;true;focus;yes;509836;Chrome;112.0;Windows;10;undefined;undefined;1366 x 768;1366 x 768
H044;25;Mannelijk;Rechts;2;53;right;yes;250;rightarrow;470;false;focus;yes;511083;Chrome;112.0;Windows;10;undefined;undefined;1366 x 768;1366 x 768
H044;25;Mannelijk;Rechts;2;54;left;no;200;leftarrow;415;true;focus;yes;512277;Chrome;112.0;Windows;10;undefined;undefined;1366 x 768;1366 x 768
H044;25;Mannelijk;Rechts;2;55;right;no;200;rightarrow;428;true;focus;yes;513491;Chrome;112.0;Windows;10;undefined;undefined;1366 x 768;1366 x 768
H044;25;Mannelijk;Rechts;2;56;left;no;200;leftarrow;384;true;focus;yes;514663;Chrome;112.0;Windows;10;undefined;undefined;1366 x 768;1366 x 768
H044;25;Mannelijk;Rechts;2;57;right;no;200;rightarrow;349;true;focus;yes;515794;Chrome;112.0;Windows;10;undefined;undefined;1366 x 768;1366 x 768
H044;25;Mannelijk;Rechts;2;58;left;no;200;leftarrow;333;true;focus;yes;516911;Chrome;112.0;Windows;10;undefined;undefined;1366 x 768;1366 x 768
H044;25;Mannelijk;Rechts;2;59;right;no;200;rightarrow;285;true;focus;yes;517980;Chrome;112.0;Windows;10;undefined;undefined;1366 x 768;1366 x 768
H044;25;Mannelijk;Rechts;2;60;left;yes;200;leftarrow;350;false;focus;yes;519110;Chrome;112.0;Windows;10;undefined;undefined;1366 x 768;1366 x 768
H044;25;Mannelijk;Rechts;2;61;left;no;150;leftarrow;426;true;focus;yes;520319;Chrome;112.0;Windows;10;undefined;undefined;1366 x 768;1366 x 768
H044;25;Mannelijk;Rechts;2;62;left;no;150;leftarrow;342;true;focus;yes;521436;Chrome;112.0;Windows;10;undefined;undefined;1366 x 768;1366 x 768
H044;25;Mannelijk;Rechts;2;63;right;yes;150;rightarrow;357;false;focus;yes;522566;Chrome;112.0;Windows;10;undefined;undefined;1366 x 768;1366 x 768
H044;25;Mannelijk;Rechts;2;64;right;no;100;rightarrow;301;true;focus;yes;523644;Chrome;112.0;Windows;10;undefined;undefined;1366 x 768;1366 x 768
H044;25;Mannelijk;Rechts;2;65;left;no;100;leftarrow;418;true;focus;yes;524844;Chrome;112.0;Windows;10;undefined;undefined;1366 x 768;1366 x 768
H044;25;Mannelijk;Rechts;2;66;right;no;100;rightarrow;318;true;focus;yes;525943;Chrome;112.0;Windows;10;undefined;undefined;1366 x 768;1366 x 768
H044;25;Mannelijk;Rechts;2;67;right;no;100;leftarrow;309;false;focus;yes;527035;Chrome;112.0;Windows;10;undefined;undefined;1366 x 768;1366 x 768
H044;25;Mannelijk;Rechts;2;68;right;yes;100;undefined;null;true;focus;yes;529066;Chrome;112.0;Windows;10;undefined;undefined;1366 x 768;1366 x 768
H044;25;Mannelijk;Rechts;2;69;left;no;150;leftarrow;354;true;focus;yes;530195;Chrome;112.0;Windows;10;undefined;undefined;1366 x 768;1366 x 768
H044;25;Mannelijk;Rechts;2;70;left;yes;150;undefined;null;true;focus;yes;532233;Chrome;112.0;Windows;10;undefined;undefined;1366 x 768;1366 x 768
H044;25;Mannelijk;Rechts;2;71;left;no;200;leftarrow;428;true;focus;yes;533435;Chrome;112.0;Windows;10;undefined;undefined;1366 x 768;1366 x 768
H044;25;Mannelijk;Rechts;2;72;right;no;200;rightarrow;383;true;focus;yes;534590;Chrome;112.0;Windows;10;undefined;undefined;1366 x 768;1366 x 768
H044;25;Mannelijk;Rechts;2;73;right;no;200;rightarrow;325;true;focus;yes;535699;Chrome;112.0;Windows;10;undefined;undefined;1366 x 768;1366 x 768
H044;25;Mannelijk;Rechts;2;74;left;no;200;leftarrow;476;true;focus;yes;536949;Chrome;112.0;Windows;10;undefined;undefined;1366 x 768;1366 x 768
H044;25;Mannelijk;Rechts;2;75;left;no;200;leftarrow;361;true;focus;yes;538083;Chrome;112.0;Windows;10;undefined;undefined;1366 x 768;1366 x 768
H044;25;Mannelijk;Rechts;2;76;right;yes;200;rightarrow;390;false;focus;yes;539245;Chrome;112.0;Windows;10;undefined;undefined;1366 x 768;1366 x 768
H044;25;Mannelijk;Rechts;2;77;right;no;150;rightarrow;448;true;focus;yes;540470;Chrome;112.0;Windows;10;undefined;undefined;1366 x 768;1366 x 768
H044;25;Mannelijk;Rechts;2;78;left;no;150;leftarrow;335;true;focus;yes;541590;Chrome;112.0;Windows;10;undefined;undefined;1366 x 768;1366 x 768
H044;25;Mannelijk;Rechts;2;79;left;yes;150;undefined;null;true;focus;yes;543631;Chrome;112.0;Windows;10;undefined;undefined;1366 x 768;1366 x 768
H044;25;Mannelijk;Rechts;2;80;right;no;200;rightarrow;440;true;focus;yes;544844;Chrome;112.0;Windows;10;undefined;undefined;1366 x 768;1366 x 768
H044;25;Mannelijk;Rechts;2;81;right;no;200;rightarrow;474;true;focus;yes;546083;Chrome;112.0;Windows;10;undefined;undefined;1366 x 768;1366 x 768
H044;25;Mannelijk;Rechts;2;82;right;yes;200;rightarrow;437;false;focus;yes;547307;Chrome;112.0;Windows;10;undefined;undefined;1366 x 768;1366 x 768
H044;25;Mannelijk;Rechts;2;83;left;yes;150;undefined;null;true;focus;yes;549346;Chrome;112.0;Windows;10;undefined;undefined;1366 x 768;1366 x 768
H044;25;Mannelijk;Rechts;2;84;left;no;200;leftarrow;375;true;focus;yes;550495;Chrome;112.0;Windows;10;undefined;undefined;1366 x 768;1366 x 768
H044;25;Mannelijk;Rechts;2;85;right;no;200;rightarrow;416;true;focus;yes;551685;Chrome;112.0;Windows;10;undefined;undefined;1366 x 768;1366 x 768
H044;25;Mannelijk;Rechts;2;86;right;no;200;rightarrow;544;true;focus;yes;553013;Chrome;112.0;Windows;10;undefined;undefined;1366 x 768;1366 x 768
H044;25;Mannelijk;Rechts;2;87;left;no;200;leftarrow;373;true;focus;yes;554158;Chrome;112.0;Windows;10;undefined;undefined;1366 x 768;1366 x 768
H044;25;Mannelijk;Rechts;2;88;left;no;200;leftarrow;362;true;focus;yes;555298;Chrome;112.0;Windows;10;undefined;undefined;1366 x 768;1366 x 768
H044;25;Mannelijk;Rechts;2;89;right;yes;200;undefined;null;true;focus;yes;557347;Chrome;112.0;Windows;10;undefined;undefined;1366 x 768;1366 x 768
H044;25;Mannelijk;Rechts;2;90;right;no;250;rightarrow;393;true;focus;yes;558528;Chrome;112.0;Windows;10;undefined;undefined;1366 x 768;1366 x 768
H044;25;Mannelijk;Rechts;2;91;left;yes;250;leftarrow;351;false;focus;yes;559651;Chrome;112.0;Windows;10;undefined;undefined;1366 x 768;1366 x 768
H044;25;Mannelijk;Rechts;2;92;right;no;200;rightarrow;364;true;focus;yes;560797;Chrome;112.0;Windows;10;undefined;undefined;1366 x 768;1366 x 768
H044;25;Mannelijk;Rechts;2;93;left;no;200;leftarrow;399;true;focus;yes;561983;Chrome;112.0;Windows;10;undefined;undefined;1366 x 768;1366 x 768
H044;25;Mannelijk;Rechts;2;94;right;no;200;rightarrow;445;true;focus;yes;563212;Chrome;112.0;Windows;10;undefined;undefined;1366 x 768;1366 x 768
H044;25;Mannelijk;Rechts;2;95;left;no;200;leftarrow;436;true;focus;yes;564418;Chrome;112.0;Windows;10;undefined;undefined;1366 x 768;1366 x 768
H044;25;Mannelijk;Rechts;2;96;left;no;200;leftarrow;501;true;focus;yes;565701;Chrome;112.0;Windows;10;undefined;undefined;1366 x 768;1366 x 768
H044;25;Mannelijk;Rechts;2;97;left;no;200;leftarrow;516;true;focus;yes;566998;Chrome;112.0;Windows;10;undefined;undefined;1366 x 768;1366 x 768
H044;25;Mannelijk;Rechts;2;98;left;no;200;leftarrow;388;true;focus;yes;568170;Chrome;112.0;Windows;10;undefined;undefined;1366 x 768;1366 x 768
H044;25;Mannelijk;Rechts;2;99;left;no;200;leftarrow;373;true;focus;yes;569322;Chrome;112.0;Windows;10;undefined;undefined;1366 x 768;1366 x 768
H044;25;Mannelijk;Rechts;2;100;right;yes;200;rightarrow;377;false;focus;yes;570475;Chrome;112.0;Windows;10;undefined;undefined;1366 x 768;1366 x 768
H044;25;Mannelijk;Rechts;2;101;right;no;150;rightarrow;310;true;focus;yes;571558;Chrome;112.0;Windows;10;undefined;undefined;1366 x 768;1366 x 768
H044;25;Mannelijk;Rechts;2;102;right;no;150;rightarrow;363;true;focus;yes;572694;Chrome;112.0;Windows;10;undefined;undefined;1366 x 768;1366 x 768
H044;25;Mannelijk;Rechts;2;103;left;yes;150;undefined;null;true;focus;yes;574739;Chrome;112.0;Windows;10;undefined;undefined;1366 x 768;1366 x 768
H044;25;Mannelijk;Rechts;2;104;right;no;200;rightarrow;463;true;focus;yes;575976;Chrome;112.0;Windows;10;undefined;undefined;1366 x 768;1366 x 768
H044;25;Mannelijk;Rechts;2;105;left;no;200;leftarrow;418;true;focus;yes;577182;Chrome;112.0;Windows;10;undefined;undefined;1366 x 768;1366 x 768
H044;25;Mannelijk;Rechts;2;106;right;no;200;rightarrow;412;true;focus;yes;578375;Chrome;112.0;Windows;10;undefined;undefined;1366 x 768;1366 x 768
H044;25;Mannelijk;Rechts;2;107;left;no;200;leftarrow;510;true;focus;yes;579656;Chrome;112.0;Windows;10;undefined;undefined;1366 x 768;1366 x 768
H044;25;Mannelijk;Rechts;2;108;right;no;200;rightarrow;452;true;focus;yes;580881;Chrome;112.0;Windows;10;undefined;undefined;1366 x 768;1366 x 768
H044;25;Mannelijk;Rechts;2;109;left;no;200;leftarrow;523;true;focus;yes;582186;Chrome;112.0;Windows;10;undefined;undefined;1366 x 768;1366 x 768
H044;25;Mannelijk;Rechts;2;110;right;no;200;rightarrow;397;true;focus;yes;583359;Chrome;112.0;Windows;10;undefined;undefined;1366 x 768;1366 x 768
H044;25;Mannelijk;Rechts;2;111;left;yes;200;undefined;null;true;focus;yes;585406;Chrome;112.0;Windows;10;undefined;undefined;1366 x 768;1366 x 768
H044;25;Mannelijk;Rechts;2;112;right;yes;250;rightarrow;392;false;focus;yes;586586;Chrome;112.0;Windows;10;undefined;undefined;1366 x 768;1366 x 768
H044;25;Mannelijk;Rechts;2;113;left;no;200;leftarrow;530;true;focus;yes;587890;Chrome;112.0;Windows;10;undefined;undefined;1366 x 768;1366 x 768
H044;25;Mannelijk;Rechts;2;114;right;yes;200;rightarrow;375;false;focus;yes;589052;Chrome;112.0;Windows;10;undefined;undefined;1366 x 768;1366 x 768
H044;25;Mannelijk;Rechts;2;115;right;no;150;rightarrow;337;true;focus;yes;590163;Chrome;112.0;Windows;10;undefined;undefined;1366 x 768;1366 x 768
H044;25;Mannelijk;Rechts;2;116;left;no;150;leftarrow;417;true;focus;yes;591359;Chrome;112.0;Windows;10;undefined;undefined;1366 x 768;1366 x 768
H044;25;Mannelijk;Rechts;2;117;right;no;150;rightarrow;348;true;focus;yes;592490;Chrome;112.0;Windows;10;undefined;undefined;1366 x 768;1366 x 768
H044;25;Mannelijk;Rechts;2;118;left;no;150;leftarrow;519;true;focus;yes;593778;Chrome;112.0;Windows;10;undefined;undefined;1366 x 768;1366 x 768
H044;25;Mannelijk;Rechts;2;119;right;no;150;rightarrow;337;true;focus;yes;594896;Chrome;112.0;Windows;10;undefined;undefined;1366 x 768;1366 x 768
H044;25;Mannelijk;Rechts;2;120;left;yes;150;undefined;null;true;focus;yes;596936;Chrome;112.0;Windows;10;undefined;undefined;1366 x 768;1366 x 768
H044;25;Mannelijk;Rechts;2;121;right;no;200;rightarrow;469;true;focus;yes;598179;Chrome;112.0;Windows;10;undefined;undefined;1366 x 768;1366 x 768
H044;25;Mannelijk;Rechts;2;122;left;no;200;leftarrow;440;true;focus;yes;599398;Chrome;112.0;Windows;10;undefined;undefined;1366 x 768;1366 x 768
H044;25;Mannelijk;Rechts;2;123;left;no;200;leftarrow;379;true;focus;yes;600553;Chrome;112.0;Windows;10;undefined;undefined;1366 x 768;1366 x 768
H044;25;Mannelijk;Rechts;2;124;right;no;200;rightarrow;452;true;focus;yes;601792;Chrome;112.0;Windows;10;undefined;undefined;1366 x 768;1366 x 768
H044;25;Mannelijk;Rechts;2;125;left;yes;200;undefined;null;true;focus;yes;603835;Chrome;112.0;Windows;10;undefined;undefined;1366 x 768;1366 x 768
H044;25;Mannelijk;Rechts;2;126;left;no;250;leftarrow;377;true;focus;yes;605000;Chrome;112.0;Windows;10;undefined;undefined;1366 x 768;1366 x 768
H044;25;Mannelijk;Rechts;2;127;right;no;250;rightarrow;302;true;focus;yes;606074;Chrome;112.0;Windows;10;undefined;undefined;1366 x 768;1366 x 768
H044;25;Mannelijk;Rechts;2;128;right;yes;250;rightarrow;355;false;focus;yes;607211;Chrome;112.0;Windows;10;undefined;undefined;1366 x 768;1366 x 768
H044;25;Mannelijk;Rechts;3;1;left;yes;200;undefined;null;true;focus;yes;627446;Chrome;112.0;Windows;10;undefined;undefined;1366 x 768;1366 x 768
H044;25;Mannelijk;Rechts;3;2;left;no;250;leftarrow;536;true;focus;yes;628769;Chrome;112.0;Windows;10;undefined;undefined;1366 x 768;1366 x 768
H044;25;Mannelijk;Rechts;3;3;left;no;250;leftarrow;378;true;focus;yes;629933;Chrome;112.0;Windows;10;undefined;undefined;1366 x 768;1366 x 768
H044;25;Mannelijk;Rechts;3;4;right;yes;250;undefined;null;true;focus;yes;631982;Chrome;112.0;Windows;10;undefined;undefined;1366 x 768;1366 x 768
H044;25;Mannelijk;Rechts;3;5;right;no;300;rightarrow;402;true;focus;yes;633169;Chrome;112.0;Windows;10;undefined;undefined;1366 x 768;1366 x 768
H044;25;Mannelijk;Rechts;3;6;right;no;300;rightarrow;325;true;focus;yes;634274;Chrome;112.0;Windows;10;undefined;undefined;1366 x 768;1366 x 768
H044;25;Mannelijk;Rechts;3;7;left;no;300;leftarrow;366;true;focus;yes;635416;Chrome;112.0;Windows;10;undefined;undefined;1366 x 768;1366 x 768
H044;25;Mannelijk;Rechts;3;8;right;no;300;rightarrow;343;true;focus;yes;636542;Chrome;112.0;Windows;10;undefined;undefined;1366 x 768;1366 x 768
H044;25;Mannelijk;Rechts;3;9;left;no;300;leftarrow;460;true;focus;yes;637775;Chrome;112.0;Windows;10;undefined;undefined;1366 x 768;1366 x 768
H044;25;Mannelijk;Rechts;3;10;right;yes;300;rightarrow;343;false;focus;yes;638891;Chrome;112.0;Windows;10;undefined;undefined;1366 x 768;1366 x 768
H044;25;Mannelijk;Rechts;3;11;right;no;250;rightarrow;348;true;focus;yes;640013;Chrome;112.0;Windows;10;undefined;undefined;1366 x 768;1366 x 768
H044;25;Mannelijk;Rechts;3;12;right;no;250;rightarrow;343;true;focus;yes;641141;Chrome;112.0;Windows;10;undefined;undefined;1366 x 768;1366 x 768
H044;25;Mannelijk;Rechts;3;13;left;no;250;leftarrow;404;true;focus;yes;642318;Chrome;112.0;Windows;10;undefined;undefined;1366 x 768;1366 x 768
H044;25;Mannelijk;Rechts;3;14;left;no;250;leftarrow;552;true;focus;yes;643648;Chrome;112.0;Windows;10;undefined;undefined;1366 x 768;1366 x 768
H044;25;Mannelijk;Rechts;3;15;left;yes;250;leftarrow;354;false;focus;yes;644773;Chrome;112.0;Windows;10;undefined;undefined;1366 x 768;1366 x 768
H044;25;Mannelijk;Rechts;3;16;right;no;200;rightarrow;383;true;focus;yes;645930;Chrome;112.0;Windows;10;undefined;undefined;1366 x 768;1366 x 768
H044;25;Mannelijk;Rechts;3;17;left;no;200;leftarrow;517;true;focus;yes;647230;Chrome;112.0;Windows;10;undefined;undefined;1366 x 768;1366 x 768
H044;25;Mannelijk;Rechts;3;18;left;no;200;leftarrow;433;true;focus;yes;648445;Chrome;112.0;Windows;10;undefined;undefined;1366 x 768;1366 x 768
H044;25;Mannelijk;Rechts;3;19;right;yes;200;rightarrow;332;false;focus;yes;649560;Chrome;112.0;Windows;10;undefined;undefined;1366 x 768;1366 x 768
H044;25;Mannelijk;Rechts;3;20;right;no;150;rightarrow;207;true;focus;yes;650552;Chrome;112.0;Windows;10;undefined;undefined;1366 x 768;1366 x 768
H044;25;Mannelijk;Rechts;3;21;left;yes;150;leftarrow;830;false;focus;yes;652158;Chrome;112.0;Windows;10;undefined;undefined;1366 x 768;1366 x 768
H044;25;Mannelijk;Rechts;3;22;right;no;100;rightarrow;450;true;focus;yes;653394;Chrome;112.0;Windows;10;undefined;undefined;1366 x 768;1366 x 768
H044;25;Mannelijk;Rechts;3;23;right;no;100;rightarrow;382;true;focus;yes;654559;Chrome;112.0;Windows;10;undefined;undefined;1366 x 768;1366 x 768
H044;25;Mannelijk;Rechts;3;24;left;no;100;leftarrow;379;true;focus;yes;655724;Chrome;112.0;Windows;10;undefined;undefined;1366 x 768;1366 x 768
H044;25;Mannelijk;Rechts;3;25;left;no;100;leftarrow;408;true;focus;yes;656918;Chrome;112.0;Windows;10;undefined;undefined;1366 x 768;1366 x 768
H044;25;Mannelijk;Rechts;3;26;left;yes;100;undefined;null;true;focus;yes;658950;Chrome;112.0;Windows;10;undefined;undefined;1366 x 768;1366 x 768
H044;25;Mannelijk;Rechts;3;27;left;no;150;leftarrow;362;true;focus;yes;660088;Chrome;112.0;Windows;10;undefined;undefined;1366 x 768;1366 x 768
H044;25;Mannelijk;Rechts;3;28;left;no;150;leftarrow;346;true;focus;yes;661206;Chrome;112.0;Windows;10;undefined;undefined;1366 x 768;1366 x 768
H044;25;Mannelijk;Rechts;3;29;right;no;150;leftarrow;200;false;focus;yes;662192;Chrome;112.0;Windows;10;undefined;undefined;1366 x 768;1366 x 768
H044;25;Mannelijk;Rechts;3;30;right;no;150;rightarrow;358;true;focus;yes;663602;Chrome;112.0;Windows;10;undefined;undefined;1366 x 768;1366 x 768
H044;25;Mannelijk;Rechts;3;31;right;no;150;rightarrow;365;true;focus;yes;664740;Chrome;112.0;Windows;10;undefined;undefined;1366 x 768;1366 x 768
H044;25;Mannelijk;Rechts;3;32;right;yes;150;rightarrow;360;false;focus;yes;665885;Chrome;112.0;Windows;10;undefined;undefined;1366 x 768;1366 x 768
H044;25;Mannelijk;Rechts;3;33;left;no;100;rightarrow;258;false;focus;yes;666916;Chrome;112.0;Windows;10;undefined;undefined;1366 x 768;1366 x 768
H044;25;Mannelijk;Rechts;3;34;right;no;100;rightarrow;480;true;focus;yes;668172;Chrome;112.0;Windows;10;undefined;undefined;1366 x 768;1366 x 768
H044;25;Mannelijk;Rechts;3;35;right;yes;100;undefined;null;true;focus;yes;670214;Chrome;112.0;Windows;10;undefined;undefined;1366 x 768;1366 x 768
H044;25;Mannelijk;Rechts;3;36;left;no;150;leftarrow;409;true;focus;yes;671399;Chrome;112.0;Windows;10;undefined;undefined;1366 x 768;1366 x 768
H044;25;Mannelijk;Rechts;3;37;left;no;150;leftarrow;416;true;focus;yes;672590;Chrome;112.0;Windows;10;undefined;undefined;1366 x 768;1366 x 768
H044;25;Mannelijk;Rechts;3;38;right;no;150;rightarrow;393;true;focus;yes;673766;Chrome;112.0;Windows;10;undefined;undefined;1366 x 768;1366 x 768
H044;25;Mannelijk;Rechts;3;39;right;no;150;rightarrow;371;true;focus;yes;674911;Chrome;112.0;Windows;10;undefined;undefined;1366 x 768;1366 x 768
H044;25;Mannelijk;Rechts;3;40;left;yes;150;leftarrow;402;false;focus;yes;676091;Chrome;112.0;Windows;10;undefined;undefined;1366 x 768;1366 x 768
H044;25;Mannelijk;Rechts;3;41;right;no;100;rightarrow;512;true;focus;yes;677367;Chrome;112.0;Windows;10;undefined;undefined;1366 x 768;1366 x 768
H044;25;Mannelijk;Rechts;3;42;left;no;100;leftarrow;438;true;focus;yes;678576;Chrome;112.0;Windows;10;undefined;undefined;1366 x 768;1366 x 768
H044;25;Mannelijk;Rechts;3;43;left;no;100;leftarrow;333;true;focus;yes;679687;Chrome;112.0;Windows;10;undefined;undefined;1366 x 768;1366 x 768
H044;25;Mannelijk;Rechts;3;44;left;yes;100;undefined;null;true;focus;yes;681728;Chrome;112.0;Windows;10;undefined;undefined;1366 x 768;1366 x 768
H044;25;Mannelijk;Rechts;3;45;left;no;150;leftarrow;564;true;focus;yes;683068;Chrome;112.0;Windows;10;undefined;undefined;1366 x 768;1366 x 768
H044;25;Mannelijk;Rechts;3;46;right;yes;150;undefined;null;true;focus;yes;685114;Chrome;112.0;Windows;10;undefined;undefined;1366 x 768;1366 x 768
H044;25;Mannelijk;Rechts;3;47;right;no;200;rightarrow;424;true;focus;yes;686311;Chrome;112.0;Windows;10;undefined;undefined;1366 x 768;1366 x 768
H044;25;Mannelijk;Rechts;3;48;right;no;200;leftarrow;282;false;focus;yes;687368;Chrome;112.0;Windows;10;undefined;undefined;1366 x 768;1366 x 768
H044;25;Mannelijk;Rechts;3;49;left;no;200;leftarrow;477;true;focus;yes;688629;Chrome;112.0;Windows;10;undefined;undefined;1366 x 768;1366 x 768
H044;25;Mannelijk;Rechts;3;50;right;no;200;rightarrow;335;true;focus;yes;689735;Chrome;112.0;Windows;10;undefined;undefined;1366 x 768;1366 x 768
H044;25;Mannelijk;Rechts;3;51;right;no;200;rightarrow;522;true;focus;yes;691042;Chrome;112.0;Windows;10;undefined;undefined;1366 x 768;1366 x 768
H044;25;Mannelijk;Rechts;3;52;left;no;200;leftarrow;389;true;focus;yes;692207;Chrome;112.0;Windows;10;undefined;undefined;1366 x 768;1366 x 768
H044;25;Mannelijk;Rechts;3;53;right;yes;200;rightarrow;353;false;focus;yes;693339;Chrome;112.0;Windows;10;undefined;undefined;1366 x 768;1366 x 768
H044;25;Mannelijk;Rechts;3;54;right;no;150;leftarrow;304;false;focus;yes;694422;Chrome;112.0;Windows;10;undefined;undefined;1366 x 768;1366 x 768
H044;25;Mannelijk;Rechts;3;55;left;no;150;leftarrow;542;true;focus;yes;695744;Chrome;112.0;Windows;10;undefined;undefined;1366 x 768;1366 x 768
H044;25;Mannelijk;Rechts;3;56;left;yes;150;undefined;null;true;focus;yes;697776;Chrome;112.0;Windows;10;undefined;undefined;1366 x 768;1366 x 768
H044;25;Mannelijk;Rechts;3;57;right;no;200;rightarrow;630;true;focus;yes;699180;Chrome;112.0;Windows;10;undefined;undefined;1366 x 768;1366 x 768
H044;25;Mannelijk;Rechts;3;58;left;no;200;leftarrow;629;true;focus;yes;700597;Chrome;112.0;Windows;10;undefined;undefined;1366 x 768;1366 x 768
H044;25;Mannelijk;Rechts;3;59;right;yes;200;undefined;null;true;focus;yes;702628;Chrome;112.0;Windows;10;undefined;undefined;1366 x 768;1366 x 768
H044;25;Mannelijk;Rechts;3;60;left;no;250;leftarrow;517;true;focus;yes;703933;Chrome;112.0;Windows;10;undefined;undefined;1366 x 768;1366 x 768
H044;25;Mannelijk;Rechts;3;61;right;no;250;rightarrow;414;true;focus;yes;705130;Chrome;112.0;Windows;10;undefined;undefined;1366 x 768;1366 x 768
H044;25;Mannelijk;Rechts;3;62;right;no;250;rightarrow;405;true;focus;yes;706320;Chrome;112.0;Windows;10;undefined;undefined;1366 x 768;1366 x 768
H044;25;Mannelijk;Rechts;3;63;left;no;250;leftarrow;440;true;focus;yes;707538;Chrome;112.0;Windows;10;undefined;undefined;1366 x 768;1366 x 768
H044;25;Mannelijk;Rechts;3;64;left;yes;250;undefined;null;true;focus;yes;709579;Chrome;112.0;Windows;10;undefined;undefined;1366 x 768;1366 x 768
H044;25;Mannelijk;Rechts;3;65;right;no;300;rightarrow;466;true;focus;yes;710831;Chrome;112.0;Windows;10;undefined;undefined;1366 x 768;1366 x 768
H044;25;Mannelijk;Rechts;3;66;left;yes;300;leftarrow;412;false;focus;yes;712026;Chrome;112.0;Windows;10;undefined;undefined;1366 x 768;1366 x 768
H044;25;Mannelijk;Rechts;3;67;right;no;250;rightarrow;386;true;focus;yes;713200;Chrome;112.0;Windows;10;undefined;undefined;1366 x 768;1366 x 768
H044;25;Mannelijk;Rechts;3;68;right;no;250;rightarrow;468;true;focus;yes;714447;Chrome;112.0;Windows;10;undefined;undefined;1366 x 768;1366 x 768
H044;25;Mannelijk;Rechts;3;69;right;yes;250;rightarrow;414;false;focus;yes;715643;Chrome;112.0;Windows;10;undefined;undefined;1366 x 768;1366 x 768
H044;25;Mannelijk;Rechts;3;70;left;no;200;leftarrow;478;true;focus;yes;716908;Chrome;112.0;Windows;10;undefined;undefined;1366 x 768;1366 x 768
H044;25;Mannelijk;Rechts;3;71;left;no;200;leftarrow;460;true;focus;yes;718139;Chrome;112.0;Windows;10;undefined;undefined;1366 x 768;1366 x 768
H044;25;Mannelijk;Rechts;3;72;left;no;200;leftarrow;427;true;focus;yes;719340;Chrome;112.0;Windows;10;undefined;undefined;1366 x 768;1366 x 768
H044;25;Mannelijk;Rechts;3;73;left;yes;200;leftarrow;396;false;focus;yes;720524;Chrome;112.0;Windows;10;undefined;undefined;1366 x 768;1366 x 768
H044;25;Mannelijk;Rechts;3;74;left;no;150;leftarrow;621;true;focus;yes;721932;Chrome;112.0;Windows;10;undefined;undefined;1366 x 768;1366 x 768
H044;25;Mannelijk;Rechts;3;75;right;no;150;rightarrow;455;true;focus;yes;723167;Chrome;112.0;Windows;10;undefined;undefined;1366 x 768;1366 x 768
H044;25;Mannelijk;Rechts;3;76;right;yes;150;undefined;null;true;focus;yes;725203;Chrome;112.0;Windows;10;undefined;undefined;1366 x 768;1366 x 768
H044;25;Mannelijk;Rechts;3;77;right;no;200;rightarrow;467;true;focus;yes;726445;Chrome;112.0;Windows;10;undefined;undefined;1366 x 768;1366 x 768
H044;25;Mannelijk;Rechts;3;78;right;no;200;rightarrow;469;true;focus;yes;727695;Chrome;112.0;Windows;10;undefined;undefined;1366 x 768;1366 x 768
H044;25;Mannelijk;Rechts;3;79;left;no;200;leftarrow;413;true;focus;yes;728890;Chrome;112.0;Windows;10;undefined;undefined;1366 x 768;1366 x 768
H044;25;Mannelijk;Rechts;3;80;left;no;200;leftarrow;462;true;focus;yes;730140;Chrome;112.0;Windows;10;undefined;undefined;1366 x 768;1366 x 768
H044;25;Mannelijk;Rechts;3;81;left;no;200;leftarrow;373;true;focus;yes;731298;Chrome;112.0;Windows;10;undefined;undefined;1366 x 768;1366 x 768
H044;25;Mannelijk;Rechts;3;82;left;no;200;leftarrow;424;true;focus;yes;732500;Chrome;112.0;Windows;10;undefined;undefined;1366 x 768;1366 x 768
H044;25;Mannelijk;Rechts;3;83;right;no;200;rightarrow;411;true;focus;yes;733686;Chrome;112.0;Windows;10;undefined;undefined;1366 x 768;1366 x 768
H044;25;Mannelijk;Rechts;3;84;right;no;200;rightarrow;431;true;focus;yes;734891;Chrome;112.0;Windows;10;undefined;undefined;1366 x 768;1366 x 768
H044;25;Mannelijk;Rechts;3;85;right;yes;200;rightarrow;374;false;focus;yes;736048;Chrome;112.0;Windows;10;undefined;undefined;1366 x 768;1366 x 768
H044;25;Mannelijk;Rechts;3;86;right;no;150;rightarrow;436;true;focus;yes;737261;Chrome;112.0;Windows;10;undefined;undefined;1366 x 768;1366 x 768
H044;25;Mannelijk;Rechts;3;87;left;no;150;leftarrow;399;true;focus;yes;738440;Chrome;112.0;Windows;10;undefined;undefined;1366 x 768;1366 x 768
H044;25;Mannelijk;Rechts;3;88;left;yes;150;undefined;null;true;focus;yes;740482;Chrome;112.0;Windows;10;undefined;undefined;1366 x 768;1366 x 768
H044;25;Mannelijk;Rechts;3;89;left;no;200;leftarrow;534;true;focus;yes;741807;Chrome;112.0;Windows;10;undefined;undefined;1366 x 768;1366 x 768
H044;25;Mannelijk;Rechts;3;90;left;no;200;leftarrow;417;true;focus;yes;743007;Chrome;112.0;Windows;10;undefined;undefined;1366 x 768;1366 x 768
H044;25;Mannelijk;Rechts;3;91;right;no;200;rightarrow;411;true;focus;yes;744201;Chrome;112.0;Windows;10;undefined;undefined;1366 x 768;1366 x 768
H044;25;Mannelijk;Rechts;3;92;right;yes;200;rightarrow;404;false;focus;yes;745378;Chrome;112.0;Windows;10;undefined;undefined;1366 x 768;1366 x 768
H044;25;Mannelijk;Rechts;3;93;right;no;150;rightarrow;452;true;focus;yes;746607;Chrome;112.0;Windows;10;undefined;undefined;1366 x 768;1366 x 768
H044;25;Mannelijk;Rechts;3;94;left;no;150;leftarrow;473;true;focus;yes;747861;Chrome;112.0;Windows;10;undefined;undefined;1366 x 768;1366 x 768
H044;25;Mannelijk;Rechts;3;95;left;yes;150;leftarrow;397;false;focus;yes;749035;Chrome;112.0;Windows;10;undefined;undefined;1366 x 768;1366 x 768
H044;25;Mannelijk;Rechts;3;96;right;no;100;rightarrow;347;true;focus;yes;750168;Chrome;112.0;Windows;10;undefined;undefined;1366 x 768;1366 x 768
H044;25;Mannelijk;Rechts;3;97;left;no;100;leftarrow;388;true;focus;yes;751342;Chrome;112.0;Windows;10;undefined;undefined;1366 x 768;1366 x 768
H044;25;Mannelijk;Rechts;3;98;right;no;100;rightarrow;360;true;focus;yes;752480;Chrome;112.0;Windows;10;undefined;undefined;1366 x 768;1366 x 768
H044;25;Mannelijk;Rechts;3;99;right;yes;100;undefined;null;true;focus;yes;754512;Chrome;112.0;Windows;10;undefined;undefined;1366 x 768;1366 x 768
H044;25;Mannelijk;Rechts;3;100;left;no;150;leftarrow;538;true;focus;yes;755824;Chrome;112.0;Windows;10;undefined;undefined;1366 x 768;1366 x 768
H044;25;Mannelijk;Rechts;3;101;right;no;150;rightarrow;592;true;focus;yes;757195;Chrome;112.0;Windows;10;undefined;undefined;1366 x 768;1366 x 768
H044;25;Mannelijk;Rechts;3;102;left;no;150;leftarrow;361;true;focus;yes;758331;Chrome;112.0;Windows;10;undefined;undefined;1366 x 768;1366 x 768
H044;25;Mannelijk;Rechts;3;103;left;yes;150;leftarrow;350;false;focus;yes;759452;Chrome;112.0;Windows;10;undefined;undefined;1366 x 768;1366 x 768
H044;25;Mannelijk;Rechts;3;104;right;no;100;rightarrow;448;true;focus;yes;760683;Chrome;112.0;Windows;10;undefined;undefined;1366 x 768;1366 x 768
H044;25;Mannelijk;Rechts;3;105;right;no;100;rightarrow;364;true;focus;yes;761832;Chrome;112.0;Windows;10;undefined;undefined;1366 x 768;1366 x 768
H044;25;Mannelijk;Rechts;3;106;right;no;100;rightarrow;465;true;focus;yes;763084;Chrome;112.0;Windows;10;undefined;undefined;1366 x 768;1366 x 768
H044;25;Mannelijk;Rechts;3;107;left;no;100;leftarrow;469;true;focus;yes;764337;Chrome;112.0;Windows;10;undefined;undefined;1366 x 768;1366 x 768
H044;25;Mannelijk;Rechts;3;108;left;yes;100;undefined;null;true;focus;yes;766375;Chrome;112.0;Windows;10;undefined;undefined;1366 x 768;1366 x 768
H044;25;Mannelijk;Rechts;3;109;left;no;150;leftarrow;534;true;focus;yes;767684;Chrome;112.0;Windows;10;undefined;undefined;1366 x 768;1366 x 768
H044;25;Mannelijk;Rechts;3;110;right;yes;150;undefined;null;true;focus;yes;769726;Chrome;112.0;Windows;10;undefined;undefined;1366 x 768;1366 x 768
H044;25;Mannelijk;Rechts;3;111;left;no;200;leftarrow;526;true;focus;yes;771026;Chrome;112.0;Windows;10;undefined;undefined;1366 x 768;1366 x 768
H044;25;Mannelijk;Rechts;3;112;right;no;200;rightarrow;487;true;focus;yes;772287;Chrome;112.0;Windows;10;undefined;undefined;1366 x 768;1366 x 768
H044;25;Mannelijk;Rechts;3;113;right;no;200;rightarrow;495;true;focus;yes;773560;Chrome;112.0;Windows;10;undefined;undefined;1366 x 768;1366 x 768
H044;25;Mannelijk;Rechts;3;114;right;yes;200;rightarrow;337;false;focus;yes;774670;Chrome;112.0;Windows;10;undefined;undefined;1366 x 768;1366 x 768
H044;25;Mannelijk;Rechts;3;115;right;no;150;leftarrow;332;false;focus;yes;775781;Chrome;112.0;Windows;10;undefined;undefined;1366 x 768;1366 x 768
H044;25;Mannelijk;Rechts;3;116;left;no;150;leftarrow;476;true;focus;yes;777041;Chrome;112.0;Windows;10;undefined;undefined;1366 x 768;1366 x 768
H044;25;Mannelijk;Rechts;3;117;left;yes;150;undefined;null;true;focus;yes;779073;Chrome;112.0;Windows;10;undefined;undefined;1366 x 768;1366 x 768
H044;25;Mannelijk;Rechts;3;118;right;no;200;rightarrow;611;true;focus;yes;780460;Chrome;112.0;Windows;10;undefined;undefined;1366 x 768;1366 x 768
H044;25;Mannelijk;Rechts;3;119;left;no;200;leftarrow;454;true;focus;yes;781702;Chrome;112.0;Windows;10;undefined;undefined;1366 x 768;1366 x 768
H044;25;Mannelijk;Rechts;3;120;left;no;200;leftarrow;559;true;focus;yes;783039;Chrome;112.0;Windows;10;undefined;undefined;1366 x 768;1366 x 768
H044;25;Mannelijk;Rechts;3;121;right;no;200;rightarrow;498;true;focus;yes;784311;Chrome;112.0;Windows;10;undefined;undefined;1366 x 768;1366 x 768
H044;25;Mannelijk;Rechts;3;122;right;no;200;rightarrow;470;true;focus;yes;785566;Chrome;112.0;Windows;10;undefined;undefined;1366 x 768;1366 x 768
H044;25;Mannelijk;Rechts;3;123;left;yes;200;leftarrow;415;false;focus;yes;786761;Chrome;112.0;Windows;10;undefined;undefined;1366 x 768;1366 x 768
H044;25;Mannelijk;Rechts;3;124;left;no;150;leftarrow;466;true;focus;yes;788011;Chrome;112.0;Windows;10;undefined;undefined;1366 x 768;1366 x 768
H044;25;Mannelijk;Rechts;3;125;left;no;150;leftarrow;409;true;focus;yes;789205;Chrome;112.0;Windows;10;undefined;undefined;1366 x 768;1366 x 768
H044;25;Mannelijk;Rechts;3;126;right;no;150;rightarrow;370;true;focus;yes;790348;Chrome;112.0;Windows;10;undefined;undefined;1366 x 768;1366 x 768
H044;25;Mannelijk;Rechts;3;127;right;yes;150;undefined;null;true;focus;yes;792387;Chrome;112.0;Windows;10;undefined;undefined;1366 x 768;1366 x 768
H044;25;Mannelijk;Rechts;3;128;left;no;200;leftarrow;473;true;focus;yes;793634;Chrome;112.0;Windows;10;undefined;undefined;1366 x 768;1366 x 768
H044;25;Mannelijk;Rechts;4;1;left;no;200;leftarrow;463;true;focus;yes;813521;Chrome;112.0;Windows;10;undefined;undefined;1366 x 768;1366 x 768
H044;25;Mannelijk;Rechts;4;2;right;no;200;rightarrow;344;true;focus;yes;814649;Chrome;112.0;Windows;10;undefined;undefined;1366 x 768;1366 x 768
H044;25;Mannelijk;Rechts;4;3;right;yes;200;undefined;null;true;focus;yes;816683;Chrome;112.0;Windows;10;undefined;undefined;1366 x 768;1366 x 768
H044;25;Mannelijk;Rechts;4;4;right;no;250;rightarrow;445;true;focus;yes;817902;Chrome;112.0;Windows;10;undefined;undefined;1366 x 768;1366 x 768
H044;25;Mannelijk;Rechts;4;5;left;no;250;leftarrow;386;true;focus;yes;819074;Chrome;112.0;Windows;10;undefined;undefined;1366 x 768;1366 x 768
H044;25;Mannelijk;Rechts;4;6;left;yes;250;leftarrow;421;false;focus;yes;820275;Chrome;112.0;Windows;10;undefined;undefined;1366 x 768;1366 x 768
H044;25;Mannelijk;Rechts;4;7;right;no;200;rightarrow;347;true;focus;yes;821401;Chrome;112.0;Windows;10;undefined;undefined;1366 x 768;1366 x 768
H044;25;Mannelijk;Rechts;4;8;left;no;200;leftarrow;539;true;focus;yes;822727;Chrome;112.0;Windows;10;undefined;undefined;1366 x 768;1366 x 768
H044;25;Mannelijk;Rechts;4;9;left;yes;200;leftarrow;454;false;focus;yes;823957;Chrome;112.0;Windows;10;undefined;undefined;1366 x 768;1366 x 768
H044;25;Mannelijk;Rechts;4;10;left;no;150;leftarrow;358;true;focus;yes;825092;Chrome;112.0;Windows;10;undefined;undefined;1366 x 768;1366 x 768
H044;25;Mannelijk;Rechts;4;11;right;no;150;rightarrow;405;true;focus;yes;826274;Chrome;112.0;Windows;10;undefined;undefined;1366 x 768;1366 x 768
H044;25;Mannelijk;Rechts;4;12;left;no;150;leftarrow;493;true;focus;yes;827547;Chrome;112.0;Windows;10;undefined;undefined;1366 x 768;1366 x 768
H044;25;Mannelijk;Rechts;4;13;right;yes;150;undefined;null;true;focus;yes;829576;Chrome;112.0;Windows;10;undefined;undefined;1366 x 768;1366 x 768
H044;25;Mannelijk;Rechts;4;14;right;no;200;rightarrow;665;true;focus;yes;831017;Chrome;112.0;Windows;10;undefined;undefined;1366 x 768;1366 x 768
H044;25;Mannelijk;Rechts;4;15;left;no;200;leftarrow;620;true;focus;yes;832421;Chrome;112.0;Windows;10;undefined;undefined;1366 x 768;1366 x 768
H044;25;Mannelijk;Rechts;4;16;right;no;200;rightarrow;388;true;focus;yes;833590;Chrome;112.0;Windows;10;undefined;undefined;1366 x 768;1366 x 768
H044;25;Mannelijk;Rechts;4;17;left;no;200;leftarrow;429;true;focus;yes;834796;Chrome;112.0;Windows;10;undefined;undefined;1366 x 768;1366 x 768
H044;25;Mannelijk;Rechts;4;18;left;no;200;leftarrow;675;true;focus;yes;836259;Chrome;112.0;Windows;10;undefined;undefined;1366 x 768;1366 x 768
H044;25;Mannelijk;Rechts;4;19;right;yes;200;undefined;null;true;focus;yes;838295;Chrome;112.0;Windows;10;undefined;undefined;1366 x 768;1366 x 768
H044;25;Mannelijk;Rechts;4;20;right;no;250;rightarrow;520;true;focus;yes;839603;Chrome;112.0;Windows;10;undefined;undefined;1366 x 768;1366 x 768
H044;25;Mannelijk;Rechts;4;21;right;no;250;rightarrow;458;true;focus;yes;840840;Chrome;112.0;Windows;10;undefined;undefined;1366 x 768;1366 x 768
H044;25;Mannelijk;Rechts;4;22;left;yes;250;undefined;null;true;focus;yes;842881;Chrome;112.0;Windows;10;undefined;undefined;1366 x 768;1366 x 768
H044;25;Mannelijk;Rechts;4;23;right;no;300;rightarrow;630;true;focus;yes;844296;Chrome;112.0;Windows;10;undefined;undefined;1366 x 768;1366 x 768
H044;25;Mannelijk;Rechts;4;24;left;no;300;leftarrow;524;true;focus;yes;845606;Chrome;112.0;Windows;10;undefined;undefined;1366 x 768;1366 x 768
H044;25;Mannelijk;Rechts;4;25;right;yes;300;rightarrow;397;false;focus;yes;846778;Chrome;112.0;Windows;10;undefined;undefined;1366 x 768;1366 x 768
H044;25;Mannelijk;Rechts;4;26;right;no;250;rightarrow;686;true;focus;yes;848251;Chrome;112.0;Windows;10;undefined;undefined;1366 x 768;1366 x 768
H044;25;Mannelijk;Rechts;4;27;left;no;250;leftarrow;553;true;focus;yes;849584;Chrome;112.0;Windows;10;undefined;undefined;1366 x 768;1366 x 768
H044;25;Mannelijk;Rechts;4;28;left;no;250;leftarrow;493;true;focus;yes;850856;Chrome;112.0;Windows;10;undefined;undefined;1366 x 768;1366 x 768
H044;25;Mannelijk;Rechts;4;29;right;no;250;rightarrow;438;true;focus;yes;852070;Chrome;112.0;Windows;10;undefined;undefined;1366 x 768;1366 x 768
H044;25;Mannelijk;Rechts;4;30;right;no;250;rightarrow;398;true;focus;yes;853244;Chrome;112.0;Windows;10;undefined;undefined;1366 x 768;1366 x 768
H044;25;Mannelijk;Rechts;4;31;left;no;250;leftarrow;450;true;focus;yes;854479;Chrome;112.0;Windows;10;undefined;undefined;1366 x 768;1366 x 768
H044;25;Mannelijk;Rechts;4;32;left;yes;250;undefined;null;true;focus;yes;856528;Chrome;112.0;Windows;10;undefined;undefined;1366 x 768;1366 x 768
H044;25;Mannelijk;Rechts;4;33;left;yes;300;leftarrow;507;false;focus;yes;857820;Chrome;112.0;Windows;10;undefined;undefined;1366 x 768;1366 x 768
H044;25;Mannelijk;Rechts;4;34;left;no;250;leftarrow;470;true;focus;yes;859065;Chrome;112.0;Windows;10;undefined;undefined;1366 x 768;1366 x 768
H044;25;Mannelijk;Rechts;4;35;right;no;250;rightarrow;499;true;focus;yes;860343;Chrome;112.0;Windows;10;undefined;undefined;1366 x 768;1366 x 768
H044;25;Mannelijk;Rechts;4;36;left;no;250;leftarrow;592;true;focus;yes;861721;Chrome;112.0;Windows;10;undefined;undefined;1366 x 768;1366 x 768
H044;25;Mannelijk;Rechts;4;37;right;no;250;rightarrow;481;true;focus;yes;862975;Chrome;112.0;Windows;10;undefined;undefined;1366 x 768;1366 x 768
H044;25;Mannelijk;Rechts;4;38;right;yes;250;undefined;null;true;focus;yes;865017;Chrome;112.0;Windows;10;undefined;undefined;1366 x 768;1366 x 768
H044;25;Mannelijk;Rechts;4;39;right;no;300;rightarrow;523;true;focus;yes;866317;Chrome;112.0;Windows;10;undefined;undefined;1366 x 768;1366 x 768
H044;25;Mannelijk;Rechts;4;40;left;no;300;leftarrow;419;true;focus;yes;867513;Chrome;112.0;Windows;10;undefined;undefined;1366 x 768;1366 x 768
H044;25;Mannelijk;Rechts;4;41;right;yes;300;rightarrow;442;false;focus;yes;868736;Chrome;112.0;Windows;10;undefined;undefined;1366 x 768;1366 x 768
H044;25;Mannelijk;Rechts;4;42;left;no;250;leftarrow;530;true;focus;yes;870030;Chrome;112.0;Windows;10;undefined;undefined;1366 x 768;1366 x 768
H044;25;Mannelijk;Rechts;4;43;left;no;250;leftarrow;411;true;focus;yes;871221;Chrome;112.0;Windows;10;undefined;undefined;1366 x 768;1366 x 768
H044;25;Mannelijk;Rechts;4;44;right;no;250;rightarrow;486;true;focus;yes;872495;Chrome;112.0;Windows;10;undefined;undefined;1366 x 768;1366 x 768
H044;25;Mannelijk;Rechts;4;45;right;no;250;rightarrow;399;true;focus;yes;873674;Chrome;112.0;Windows;10;undefined;undefined;1366 x 768;1366 x 768
H044;25;Mannelijk;Rechts;4;46;left;yes;250;undefined;null;true;focus;yes;875723;Chrome;112.0;Windows;10;undefined;undefined;1366 x 768;1366 x 768
H044;25;Mannelijk;Rechts;4;47;right;no;300;rightarrow;503;true;focus;yes;877011;Chrome;112.0;Windows;10;undefined;undefined;1366 x 768;1366 x 768
H044;25;Mannelijk;Rechts;4;48;left;no;300;leftarrow;471;true;focus;yes;878261;Chrome;112.0;Windows;10;undefined;undefined;1366 x 768;1366 x 768
H044;25;Mannelijk;Rechts;4;49;right;no;300;rightarrow;334;true;focus;yes;879374;Chrome;112.0;Windows;10;undefined;undefined;1366 x 768;1366 x 768
H044;25;Mannelijk;Rechts;4;50;left;no;300;leftarrow;341;true;focus;yes;880497;Chrome;112.0;Windows;10;undefined;undefined;1366 x 768;1366 x 768
H044;25;Mannelijk;Rechts;4;51;right;no;300;rightarrow;312;true;focus;yes;881585;Chrome;112.0;Windows;10;undefined;undefined;1366 x 768;1366 x 768
H044;25;Mannelijk;Rechts;4;52;left;no;300;leftarrow;467;true;focus;yes;882840;Chrome;112.0;Windows;10;undefined;undefined;1366 x 768;1366 x 768
H044;25;Mannelijk;Rechts;4;53;right;yes;300;rightarrow;383;false;focus;yes;884005;Chrome;112.0;Windows;10;undefined;undefined;1366 x 768;1366 x 768
H044;25;Mannelijk;Rechts;4;54;left;no;250;leftarrow;358;true;focus;yes;885148;Chrome;112.0;Windows;10;undefined;undefined;1366 x 768;1366 x 768
H044;25;Mannelijk;Rechts;4;55;left;yes;250;undefined;null;true;focus;yes;887187;Chrome;112.0;Windows;10;undefined;undefined;1366 x 768;1366 x 768
H044;25;Mannelijk;Rechts;4;56;right;no;300;rightarrow;464;true;focus;yes;888437;Chrome;112.0;Windows;10;undefined;undefined;1366 x 768;1366 x 768
H044;25;Mannelijk;Rechts;4;57;right;no;300;rightarrow;418;true;focus;yes;889639;Chrome;112.0;Windows;10;undefined;undefined;1366 x 768;1366 x 768
H044;25;Mannelijk;Rechts;4;58;right;yes;300;rightarrow;372;false;focus;yes;890793;Chrome;112.0;Windows;10;undefined;undefined;1366 x 768;1366 x 768
H044;25;Mannelijk;Rechts;4;59;right;no;250;rightarrow;589;true;focus;yes;892159;Chrome;112.0;Windows;10;undefined;undefined;1366 x 768;1366 x 768
H044;25;Mannelijk;Rechts;4;60;left;yes;250;undefined;null;true;focus;yes;894202;Chrome;112.0;Windows;10;undefined;undefined;1366 x 768;1366 x 768
H044;25;Mannelijk;Rechts;4;61;left;no;300;leftarrow;495;true;focus;yes;895481;Chrome;112.0;Windows;10;undefined;undefined;1366 x 768;1366 x 768
H044;25;Mannelijk;Rechts;4;62;left;no;300;leftarrow;455;true;focus;yes;896724;Chrome;112.0;Windows;10;undefined;undefined;1366 x 768;1366 x 768
H044;25;Mannelijk;Rechts;4;63;right;no;300;rightarrow;535;true;focus;yes;898037;Chrome;112.0;Windows;10;undefined;undefined;1366 x 768;1366 x 768
H044;25;Mannelijk;Rechts;4;64;left;no;300;leftarrow;427;true;focus;yes;899246;Chrome;112.0;Windows;10;undefined;undefined;1366 x 768;1366 x 768
H044;25;Mannelijk;Rechts;4;65;left;yes;300;leftarrow;419;false;focus;yes;900438;Chrome;112.0;Windows;10;undefined;undefined;1366 x 768;1366 x 768
H044;25;Mannelijk;Rechts;4;66;right;no;250;rightarrow;353;true;focus;yes;901572;Chrome;112.0;Windows;10;undefined;undefined;1366 x 768;1366 x 768
H044;25;Mannelijk;Rechts;4;67;left;no;250;leftarrow;597;true;focus;yes;902948;Chrome;112.0;Windows;10;undefined;undefined;1366 x 768;1366 x 768
H044;25;Mannelijk;Rechts;4;68;left;no;250;leftarrow;345;true;focus;yes;904080;Chrome;112.0;Windows;10;undefined;undefined;1366 x 768;1366 x 768
H044;25;Mannelijk;Rechts;4;69;left;no;250;leftarrow;352;true;focus;yes;905219;Chrome;112.0;Windows;10;undefined;undefined;1366 x 768;1366 x 768
H044;25;Mannelijk;Rechts;4;70;right;no;250;rightarrow;546;true;focus;yes;906547;Chrome;112.0;Windows;10;undefined;undefined;1366 x 768;1366 x 768
H044;25;Mannelijk;Rechts;4;71;right;no;250;rightarrow;328;true;focus;yes;907661;Chrome;112.0;Windows;10;undefined;undefined;1366 x 768;1366 x 768
H044;25;Mannelijk;Rechts;4;72;right;yes;250;rightarrow;362;false;focus;yes;908812;Chrome;112.0;Windows;10;undefined;undefined;1366 x 768;1366 x 768
H044;25;Mannelijk;Rechts;4;73;left;no;200;leftarrow;525;true;focus;yes;910125;Chrome;112.0;Windows;10;undefined;undefined;1366 x 768;1366 x 768
H044;25;Mannelijk;Rechts;4;74;right;no;200;rightarrow;508;true;focus;yes;911407;Chrome;112.0;Windows;10;undefined;undefined;1366 x 768;1366 x 768
H044;25;Mannelijk;Rechts;4;75;left;yes;200;leftarrow;397;false;focus;yes;912579;Chrome;112.0;Windows;10;undefined;undefined;1366 x 768;1366 x 768
H044;25;Mannelijk;Rechts;4;76;right;yes;150;rightarrow;257;false;focus;yes;913622;Chrome;112.0;Windows;10;undefined;undefined;1366 x 768;1366 x 768
H044;25;Mannelijk;Rechts;4;77;left;no;100;leftarrow;275;true;focus;yes;914671;Chrome;112.0;Windows;10;undefined;undefined;1366 x 768;1366 x 768
H044;25;Mannelijk;Rechts;4;79;right;no;100;rightarrow;461;true;focus;yes;916938;Chrome;112.0;Windows;10;undefined;undefined;1366 x 768;1366 x 768
H044;25;Mannelijk;Rechts;4;80;right;no;100;rightarrow;362;true;focus;yes;918076;Chrome;112.0;Windows;10;undefined;undefined;1366 x 768;1366 x 768
H044;25;Mannelijk;Rechts;4;78;left;no;100;rightarrow;261;false;focus;yes;915709;Chrome;112.0;Windows;10;undefined;undefined;1366 x 768;1366 x 768
H044;25;Mannelijk;Rechts;4;81;left;no;100;leftarrow;560;true;focus;yes;919424;Chrome;112.0;Windows;10;undefined;undefined;1366 x 768;1366 x 768
H044;25;Mannelijk;Rechts;4;82;right;yes;100;undefined;null;true;focus;yes;921453;Chrome;112.0;Windows;10;undefined;undefined;1366 x 768;1366 x 768
H044;25;Mannelijk;Rechts;4;83;left;yes;150;leftarrow;389;false;focus;yes;922619;Chrome;112.0;Windows;10;undefined;undefined;1366 x 768;1366 x 768
H044;25;Mannelijk;Rechts;4;84;left;no;100;leftarrow;457;true;focus;yes;923853;Chrome;112.0;Windows;10;undefined;undefined;1366 x 768;1366 x 768
H044;25;Mannelijk;Rechts;4;85;right;no;100;rightarrow;419;true;focus;yes;925048;Chrome;112.0;Windows;10;undefined;undefined;1366 x 768;1366 x 768
H044;25;Mannelijk;Rechts;4;86;right;no;100;rightarrow;382;true;focus;yes;926211;Chrome;112.0;Windows;10;undefined;undefined;1366 x 768;1366 x 768
H044;25;Mannelijk;Rechts;4;87;left;no;100;leftarrow;439;true;focus;yes;927435;Chrome;112.0;Windows;10;undefined;undefined;1366 x 768;1366 x 768
H044;25;Mannelijk;Rechts;4;88;right;no;100;rightarrow;800;true;focus;yes;929011;Chrome;112.0;Windows;10;undefined;undefined;1366 x 768;1366 x 768
H044;25;Mannelijk;Rechts;4;89;left;no;100;leftarrow;510;true;focus;yes;930304;Chrome;112.0;Windows;10;undefined;undefined;1366 x 768;1366 x 768
H044;25;Mannelijk;Rechts;4;90;right;yes;100;undefined;null;true;focus;yes;932334;Chrome;112.0;Windows;10;undefined;undefined;1366 x 768;1366 x 768
H044;25;Mannelijk;Rechts;4;91;left;yes;150;undefined;null;true;focus;yes;934368;Chrome;112.0;Windows;10;undefined;undefined;1366 x 768;1366 x 768
H044;25;Mannelijk;Rechts;4;92;right;no;200;rightarrow;455;true;focus;yes;935599;Chrome;112.0;Windows;10;undefined;undefined;1366 x 768;1366 x 768
H044;25;Mannelijk;Rechts;4;93;left;no;200;leftarrow;338;true;focus;yes;936714;Chrome;112.0;Windows;10;undefined;undefined;1366 x 768;1366 x 768
H044;25;Mannelijk;Rechts;4;94;right;no;200;rightarrow;416;true;focus;yes;937909;Chrome;112.0;Windows;10;undefined;undefined;1366 x 768;1366 x 768
H044;25;Mannelijk;Rechts;4;95;left;no;200;leftarrow;399;true;focus;yes;939092;Chrome;112.0;Windows;10;undefined;undefined;1366 x 768;1366 x 768
H044;25;Mannelijk;Rechts;4;96;right;no;200;rightarrow;509;true;focus;yes;940384;Chrome;112.0;Windows;10;undefined;undefined;1366 x 768;1366 x 768
H044;25;Mannelijk;Rechts;4;97;right;no;200;rightarrow;381;true;focus;yes;941539;Chrome;112.0;Windows;10;undefined;undefined;1366 x 768;1366 x 768
H044;25;Mannelijk;Rechts;4;98;left;no;200;leftarrow;598;true;focus;yes;942923;Chrome;112.0;Windows;10;undefined;undefined;1366 x 768;1366 x 768
H044;25;Mannelijk;Rechts;4;99;right;no;200;rightarrow;918;true;focus;yes;944626;Chrome;112.0;Windows;10;undefined;undefined;1366 x 768;1366 x 768
H044;25;Mannelijk;Rechts;4;100;left;no;200;leftarrow;494;true;focus;yes;945902;Chrome;112.0;Windows;10;undefined;undefined;1366 x 768;1366 x 768
H044;25;Mannelijk;Rechts;4;101;left;yes;200;undefined;null;true;focus;yes;947936;Chrome;112.0;Windows;10;undefined;undefined;1366 x 768;1366 x 768
H044;25;Mannelijk;Rechts;4;102;right;yes;250;rightarrow;457;false;focus;yes;949179;Chrome;112.0;Windows;10;undefined;undefined;1366 x 768;1366 x 768
H044;25;Mannelijk;Rechts;4;103;right;no;200;rightarrow;452;true;focus;yes;950409;Chrome;112.0;Windows;10;undefined;undefined;1366 x 768;1366 x 768
H044;25;Mannelijk;Rechts;4;104;left;no;200;leftarrow;465;true;focus;yes;951654;Chrome;112.0;Windows;10;undefined;undefined;1366 x 768;1366 x 768
H044;25;Mannelijk;Rechts;4;105;left;no;200;leftarrow;541;true;focus;yes;952980;Chrome;112.0;Windows;10;undefined;undefined;1366 x 768;1366 x 768
H044;25;Mannelijk;Rechts;4;106;left;yes;200;leftarrow;387;false;focus;yes;954142;Chrome;112.0;Windows;10;undefined;undefined;1366 x 768;1366 x 768
H044;25;Mannelijk;Rechts;4;107;right;yes;150;undefined;null;true;focus;yes;956180;Chrome;112.0;Windows;10;undefined;undefined;1366 x 768;1366 x 768
H044;25;Mannelijk;Rechts;4;108;right;no;200;rightarrow;384;true;focus;yes;957339;Chrome;112.0;Windows;10;undefined;undefined;1366 x 768;1366 x 768
H044;25;Mannelijk;Rechts;4;109;right;no;200;rightarrow;516;true;focus;yes;958637;Chrome;112.0;Windows;10;undefined;undefined;1366 x 768;1366 x 768
H044;25;Mannelijk;Rechts;4;110;left;no;200;leftarrow;377;true;focus;yes;959804;Chrome;112.0;Windows;10;undefined;undefined;1366 x 768;1366 x 768
H044;25;Mannelijk;Rechts;4;111;right;no;200;rightarrow;413;true;focus;yes;961001;Chrome;112.0;Windows;10;undefined;undefined;1366 x 768;1366 x 768
H044;25;Mannelijk;Rechts;4;112;left;no;200;leftarrow;452;true;focus;yes;962240;Chrome;112.0;Windows;10;undefined;undefined;1366 x 768;1366 x 768
H044;25;Mannelijk;Rechts;4;113;left;no;200;leftarrow;369;true;focus;yes;963390;Chrome;112.0;Windows;10;undefined;undefined;1366 x 768;1366 x 768
H044;25;Mannelijk;Rechts;4;114;right;no;200;rightarrow;499;true;focus;yes;964670;Chrome;112.0;Windows;10;undefined;undefined;1366 x 768;1366 x 768
H044;25;Mannelijk;Rechts;4;115;left;no;200;leftarrow;438;true;focus;yes;965890;Chrome;112.0;Windows;10;undefined;undefined;1366 x 768;1366 x 768
H044;25;Mannelijk;Rechts;4;116;right;no;200;rightarrow;385;true;focus;yes;967055;Chrome;112.0;Windows;10;undefined;undefined;1366 x 768;1366 x 768
H044;25;Mannelijk;Rechts;4;117;left;yes;200;leftarrow;435;false;focus;yes;968270;Chrome;112.0;Windows;10;undefined;undefined;1366 x 768;1366 x 768
H044;25;Mannelijk;Rechts;4;118;right;yes;150;undefined;null;true;focus;yes;970309;Chrome;112.0;Windows;10;undefined;undefined;1366 x 768;1366 x 768
H044;25;Mannelijk;Rechts;4;119;left;no;200;leftarrow;904;true;focus;yes;971988;Chrome;112.0;Windows;10;undefined;undefined;1366 x 768;1366 x 768
H044;25;Mannelijk;Rechts;4;120;right;no;200;rightarrow;431;true;focus;yes;973198;Chrome;112.0;Windows;10;undefined;undefined;1366 x 768;1366 x 768
H044;25;Mannelijk;Rechts;4;121;left;no;200;leftarrow;476;true;focus;yes;974460;Chrome;112.0;Windows;10;undefined;undefined;1366 x 768;1366 x 768
H044;25;Mannelijk;Rechts;4;122;left;no;200;leftarrow;545;true;focus;yes;975778;Chrome;112.0;Windows;10;undefined;undefined;1366 x 768;1366 x 768
H044;25;Mannelijk;Rechts;4;123;left;no;200;leftarrow;423;true;focus;yes;976991;Chrome;112.0;Windows;10;undefined;undefined;1366 x 768;1366 x 768
H044;25;Mannelijk;Rechts;4;124;right;no;200;rightarrow;460;true;focus;yes;978227;Chrome;112.0;Windows;10;undefined;undefined;1366 x 768;1366 x 768
H044;25;Mannelijk;Rechts;4;125;right;no;200;rightarrow;493;true;focus;yes;979507;Chrome;112.0;Windows;10;undefined;undefined;1366 x 768;1366 x 768
H044;25;Mannelijk;Rechts;4;126;right;no;200;rightarrow;431;true;focus;yes;980712;Chrome;112.0;Windows;10;undefined;undefined;1366 x 768;1366 x 768
H044;25;Mannelijk;Rechts;4;127;left;yes;200;leftarrow;425;false;focus;yes;981924;Chrome;112.0;Windows;10;undefined;undefined;1366 x 768;1366 x 768
H044;25;Mannelijk;Rechts;4;128;right;yes;150;rightarrow;429;false;focus;yes;983145;Chrome;112.0;Windows;10;undefined;undefined;1366 x 768;1366 x 768
H044;25;Mannelijk;Rechts;5;1;left;no;100;leftarrow;468;true;focus;yes;1002314;Chrome;112.0;Windows;10;undefined;undefined;1366 x 768;1366 x 768
H044;25;Mannelijk;Rechts;5;2;right;no;100;rightarrow;404;true;focus;yes;1003497;Chrome;112.0;Windows;10;undefined;undefined;1366 x 768;1366 x 768
H044;25;Mannelijk;Rechts;5;3;left;no;100;leftarrow;410;true;focus;yes;1004687;Chrome;112.0;Windows;10;undefined;undefined;1366 x 768;1366 x 768
H044;25;Mannelijk;Rechts;5;4;right;yes;100;rightarrow;316;false;focus;yes;1005775;Chrome;112.0;Windows;10;undefined;undefined;1366 x 768;1366 x 768
H044;25;Mannelijk;Rechts;5;5;left;no;50;leftarrow;416;true;focus;yes;1006976;Chrome;112.0;Windows;10;undefined;undefined;1366 x 768;1366 x 768
H044;25;Mannelijk;Rechts;5;6;right;no;50;rightarrow;403;true;focus;yes;1008161;Chrome;112.0;Windows;10;undefined;undefined;1366 x 768;1366 x 768
H044;25;Mannelijk;Rechts;5;7;right;no;50;rightarrow;465;true;focus;yes;1009406;Chrome;112.0;Windows;10;undefined;undefined;1366 x 768;1366 x 768
H044;25;Mannelijk;Rechts;5;8;left;yes;50;undefined;null;true;focus;yes;1011445;Chrome;112.0;Windows;10;undefined;undefined;1366 x 768;1366 x 768
H044;25;Mannelijk;Rechts;5;9;right;no;100;rightarrow;422;true;focus;yes;1012648;Chrome;112.0;Windows;10;undefined;undefined;1366 x 768;1366 x 768
H044;25;Mannelijk;Rechts;5;10;left;no;100;leftarrow;417;true;focus;yes;1013841;Chrome;112.0;Windows;10;undefined;undefined;1366 x 768;1366 x 768
H044;25;Mannelijk;Rechts;5;11;right;yes;100;undefined;null;true;focus;yes;1015880;Chrome;112.0;Windows;10;undefined;undefined;1366 x 768;1366 x 768
H044;25;Mannelijk;Rechts;5;12;left;no;150;leftarrow;401;true;focus;yes;1017058;Chrome;112.0;Windows;10;undefined;undefined;1366 x 768;1366 x 768
H044;25;Mannelijk;Rechts;5;13;left;yes;150;undefined;null;true;focus;yes;1019097;Chrome;112.0;Windows;10;undefined;undefined;1366 x 768;1366 x 768
H044;25;Mannelijk;Rechts;5;14;left;no;200;leftarrow;440;true;focus;yes;1020312;Chrome;112.0;Windows;10;undefined;undefined;1366 x 768;1366 x 768
H044;25;Mannelijk;Rechts;5;15;right;no;200;rightarrow;315;true;focus;yes;1021403;Chrome;112.0;Windows;10;undefined;undefined;1366 x 768;1366 x 768
H044;25;Mannelijk;Rechts;5;16;right;no;200;rightarrow;498;true;focus;yes;1022686;Chrome;112.0;Windows;10;undefined;undefined;1366 x 768;1366 x 768
H044;25;Mannelijk;Rechts;5;17;right;no;200;rightarrow;334;true;focus;yes;1023805;Chrome;112.0;Windows;10;undefined;undefined;1366 x 768;1366 x 768
H044;25;Mannelijk;Rechts;5;18;right;no;200;rightarrow;312;true;focus;yes;1024900;Chrome;112.0;Windows;10;undefined;undefined;1366 x 768;1366 x 768
H044;25;Mannelijk;Rechts;5;19;left;no;200;leftarrow;258;true;focus;yes;1025948;Chrome;112.0;Windows;10;undefined;undefined;1366 x 768;1366 x 768
H044;25;Mannelijk;Rechts;5;20;right;yes;200;undefined;null;true;focus;yes;1027982;Chrome;112.0;Windows;10;undefined;undefined;1366 x 768;1366 x 768
H044;25;Mannelijk;Rechts;5;21;left;no;250;leftarrow;486;true;focus;yes;1029257;Chrome;112.0;Windows;10;undefined;undefined;1366 x 768;1366 x 768
H044;25;Mannelijk;Rechts;5;22;left;yes;250;leftarrow;333;false;focus;yes;1030371;Chrome;112.0;Windows;10;undefined;undefined;1366 x 768;1366 x 768
H044;25;Mannelijk;Rechts;5;23;right;no;200;rightarrow;402;true;focus;yes;1031555;Chrome;112.0;Windows;10;undefined;undefined;1366 x 768;1366 x 768
H044;25;Mannelijk;Rechts;5;24;left;no;200;leftarrow;472;true;focus;yes;1032808;Chrome;112.0;Windows;10;undefined;undefined;1366 x 768;1366 x 768
H044;25;Mannelijk;Rechts;5;25;left;no;200;leftarrow;469;true;focus;yes;1034054;Chrome;112.0;Windows;10;undefined;undefined;1366 x 768;1366 x 768
H044;25;Mannelijk;Rechts;5;26;left;no;200;leftarrow;314;true;focus;yes;1035149;Chrome;112.0;Windows;10;undefined;undefined;1366 x 768;1366 x 768
H044;25;Mannelijk;Rechts;5;27;right;no;200;rightarrow;366;true;focus;yes;1036288;Chrome;112.0;Windows;10;undefined;undefined;1366 x 768;1366 x 768
H044;25;Mannelijk;Rechts;5;28;left;yes;200;rightarrow;304;false;focus;yes;1037376;Chrome;112.0;Windows;10;undefined;undefined;1366 x 768;1366 x 768
H044;25;Mannelijk;Rechts;5;29;right;no;150;leftarrow;429;false;focus;yes;1038585;Chrome;112.0;Windows;10;undefined;undefined;1366 x 768;1366 x 768
H044;25;Mannelijk;Rechts;5;30;right;no;150;rightarrow;400;true;focus;yes;1039771;Chrome;112.0;Windows;10;undefined;undefined;1366 x 768;1366 x 768
H044;25;Mannelijk;Rechts;5;31;left;no;150;leftarrow;473;true;focus;yes;1041027;Chrome;112.0;Windows;10;undefined;undefined;1366 x 768;1366 x 768
H044;25;Mannelijk;Rechts;5;32;right;yes;150;undefined;null;true;focus;yes;1043062;Chrome;112.0;Windows;10;undefined;undefined;1366 x 768;1366 x 768
H044;25;Mannelijk;Rechts;5;33;left;no;200;leftarrow;439;true;focus;yes;1044276;Chrome;112.0;Windows;10;undefined;undefined;1366 x 768;1366 x 768
H044;25;Mannelijk;Rechts;5;34;left;yes;200;leftarrow;348;false;focus;yes;1045402;Chrome;112.0;Windows;10;undefined;undefined;1366 x 768;1366 x 768
H044;25;Mannelijk;Rechts;5;35;right;no;150;rightarrow;359;true;focus;yes;1046545;Chrome;112.0;Windows;10;undefined;undefined;1366 x 768;1366 x 768
H044;25;Mannelijk;Rechts;5;36;left;no;150;leftarrow;424;true;focus;yes;1047744;Chrome;112.0;Windows;10;undefined;undefined;1366 x 768;1366 x 768
H044;25;Mannelijk;Rechts;5;37;right;no;150;rightarrow;382;true;focus;yes;1048901;Chrome;112.0;Windows;10;undefined;undefined;1366 x 768;1366 x 768
H044;25;Mannelijk;Rechts;5;38;left;no;150;leftarrow;390;true;focus;yes;1050062;Chrome;112.0;Windows;10;undefined;undefined;1366 x 768;1366 x 768
H044;25;Mannelijk;Rechts;5;39;right;yes;150;rightarrow;255;false;focus;yes;1051107;Chrome;112.0;Windows;10;undefined;undefined;1366 x 768;1366 x 768
H044;25;Mannelijk;Rechts;5;40;right;no;100;leftarrow;232;false;focus;yes;1052117;Chrome;112.0;Windows;10;undefined;undefined;1366 x 768;1366 x 768
H044;25;Mannelijk;Rechts;5;41;left;no;100;leftarrow;435;true;focus;yes;1053336;Chrome;112.0;Windows;10;undefined;undefined;1366 x 768;1366 x 768
H044;25;Mannelijk;Rechts;5;42;right;no;100;rightarrow;364;true;focus;yes;1054482;Chrome;112.0;Windows;10;undefined;undefined;1366 x 768;1366 x 768
H044;25;Mannelijk;Rechts;5;43;left;yes;100;undefined;null;true;focus;yes;1056525;Chrome;112.0;Windows;10;undefined;undefined;1366 x 768;1366 x 768
H044;25;Mannelijk;Rechts;5;44;left;no;150;leftarrow;408;true;focus;yes;1057708;Chrome;112.0;Windows;10;undefined;undefined;1366 x 768;1366 x 768
H044;25;Mannelijk;Rechts;5;45;left;no;150;leftarrow;346;true;focus;yes;1058829;Chrome;112.0;Windows;10;undefined;undefined;1366 x 768;1366 x 768
H044;25;Mannelijk;Rechts;5;46;right;no;150;rightarrow;421;true;focus;yes;1060037;Chrome;112.0;Windows;10;undefined;undefined;1366 x 768;1366 x 768
H044;25;Mannelijk;Rechts;5;47;right;no;150;rightarrow;336;true;focus;yes;1061153;Chrome;112.0;Windows;10;undefined;undefined;1366 x 768;1366 x 768
H044;25;Mannelijk;Rechts;5;48;right;yes;150;rightarrow;359;false;focus;yes;1062293;Chrome;112.0;Windows;10;undefined;undefined;1366 x 768;1366 x 768
H044;25;Mannelijk;Rechts;5;49;right;no;100;rightarrow;430;true;focus;yes;1063497;Chrome;112.0;Windows;10;undefined;undefined;1366 x 768;1366 x 768
H044;25;Mannelijk;Rechts;5;50;left;yes;100;undefined;null;true;focus;yes;1065538;Chrome;112.0;Windows;10;undefined;undefined;1366 x 768;1366 x 768
H044;25;Mannelijk;Rechts;5;51;right;yes;150;undefined;null;true;focus;yes;1067574;Chrome;112.0;Windows;10;undefined;undefined;1366 x 768;1366 x 768
H044;25;Mannelijk;Rechts;5;52;left;no;200;leftarrow;423;true;focus;yes;1068771;Chrome;112.0;Windows;10;undefined;undefined;1366 x 768;1366 x 768
H044;25;Mannelijk;Rechts;5;53;left;no;200;rightarrow;305;false;focus;yes;1069853;Chrome;112.0;Windows;10;undefined;undefined;1366 x 768;1366 x 768
H044;25;Mannelijk;Rechts;5;54;left;no;200;leftarrow;395;true;focus;yes;1071027;Chrome;112.0;Windows;10;undefined;undefined;1366 x 768;1366 x 768
H044;25;Mannelijk;Rechts;5;55;right;no;200;rightarrow;353;true;focus;yes;1072167;Chrome;112.0;Windows;10;undefined;undefined;1366 x 768;1366 x 768
H044;25;Mannelijk;Rechts;5;56;right;no;200;rightarrow;442;true;focus;yes;1073390;Chrome;112.0;Windows;10;undefined;undefined;1366 x 768;1366 x 768
H044;25;Mannelijk;Rechts;5;57;right;yes;200;rightarrow;357;false;focus;yes;1074521;Chrome;112.0;Windows;10;undefined;undefined;1366 x 768;1366 x 768
H044;25;Mannelijk;Rechts;5;58;left;no;150;leftarrow;397;true;focus;yes;1075694;Chrome;112.0;Windows;10;undefined;undefined;1366 x 768;1366 x 768
H044;25;Mannelijk;Rechts;5;59;right;no;150;rightarrow;390;true;focus;yes;1076869;Chrome;112.0;Windows;10;undefined;undefined;1366 x 768;1366 x 768
H044;25;Mannelijk;Rechts;5;60;left;no;150;leftarrow;285;true;focus;yes;1077931;Chrome;112.0;Windows;10;undefined;undefined;1366 x 768;1366 x 768
H044;25;Mannelijk;Rechts;5;61;right;no;150;rightarrow;230;true;focus;yes;1078942;Chrome;112.0;Windows;10;undefined;undefined;1366 x 768;1366 x 768
H044;25;Mannelijk;Rechts;5;62;left;yes;150;leftarrow;291;false;focus;yes;1080020;Chrome;112.0;Windows;10;undefined;undefined;1366 x 768;1366 x 768
H044;25;Mannelijk;Rechts;5;63;right;no;100;rightarrow;217;true;focus;yes;1081012;Chrome;112.0;Windows;10;undefined;undefined;1366 x 768;1366 x 768
H044;25;Mannelijk;Rechts;5;64;left;no;100;leftarrow;152;true;focus;yes;1081948;Chrome;112.0;Windows;10;undefined;undefined;1366 x 768;1366 x 768
H044;25;Mannelijk;Rechts;5;65;right;yes;100;rightarrow;289;false;focus;yes;1083016;Chrome;112.0;Windows;10;undefined;undefined;1366 x 768;1366 x 768
H044;25;Mannelijk;Rechts;5;66;right;no;50;leftarrow;154;false;focus;yes;1083948;Chrome;112.0;Windows;10;undefined;undefined;1366 x 768;1366 x 768
H044;25;Mannelijk;Rechts;5;67;left;no;50;rightarrow;158;false;focus;yes;1084885;Chrome;112.0;Windows;10;undefined;undefined;1366 x 768;1366 x 768
H044;25;Mannelijk;Rechts;5;68;left;no;50;leftarrow;380;true;focus;yes;1086040;Chrome;112.0;Windows;10;undefined;undefined;1366 x 768;1366 x 768
H044;25;Mannelijk;Rechts;5;69;right;no;50;rightarrow;532;true;focus;yes;1087359;Chrome;112.0;Windows;10;undefined;undefined;1366 x 768;1366 x 768
H044;25;Mannelijk;Rechts;5;70;right;no;50;rightarrow;419;true;focus;yes;1088562;Chrome;112.0;Windows;10;undefined;undefined;1366 x 768;1366 x 768
H044;25;Mannelijk;Rechts;5;71;left;yes;50;undefined;null;true;focus;yes;1090597;Chrome;112.0;Windows;10;undefined;undefined;1366 x 768;1366 x 768
H044;25;Mannelijk;Rechts;5;72;left;no;100;leftarrow;378;true;focus;yes;1091754;Chrome;112.0;Windows;10;undefined;undefined;1366 x 768;1366 x 768
H044;25;Mannelijk;Rechts;5;73;left;no;100;leftarrow;333;true;focus;yes;1092876;Chrome;112.0;Windows;10;undefined;undefined;1366 x 768;1366 x 768
H044;25;Mannelijk;Rechts;5;74;right;no;100;rightarrow;399;true;focus;yes;1094058;Chrome;112.0;Windows;10;undefined;undefined;1366 x 768;1366 x 768
H044;25;Mannelijk;Rechts;5;75;right;no;100;rightarrow;388;true;focus;yes;1095229;Chrome;112.0;Windows;10;undefined;undefined;1366 x 768;1366 x 768
H044;25;Mannelijk;Rechts;5;76;left;yes;100;undefined;null;true;focus;yes;1097261;Chrome;112.0;Windows;10;undefined;undefined;1366 x 768;1366 x 768
H044;25;Mannelijk;Rechts;5;77;left;no;150;leftarrow;424;true;focus;yes;1098461;Chrome;112.0;Windows;10;undefined;undefined;1366 x 768;1366 x 768
H044;25;Mannelijk;Rechts;5;78;right;yes;150;rightarrow;408;false;focus;yes;1099645;Chrome;112.0;Windows;10;undefined;undefined;1366 x 768;1366 x 768
H044;25;Mannelijk;Rechts;5;79;right;no;100;leftarrow;264;false;focus;yes;1100685;Chrome;112.0;Windows;10;undefined;undefined;1366 x 768;1366 x 768
H044;25;Mannelijk;Rechts;5;80;left;no;100;leftarrow;482;true;focus;yes;1101953;Chrome;112.0;Windows;10;undefined;undefined;1366 x 768;1366 x 768
H044;25;Mannelijk;Rechts;5;81;left;no;100;leftarrow;357;true;focus;yes;1103094;Chrome;112.0;Windows;10;undefined;undefined;1366 x 768;1366 x 768
H044;25;Mannelijk;Rechts;5;82;right;no;100;rightarrow;368;true;focus;yes;1104238;Chrome;112.0;Windows;10;undefined;undefined;1366 x 768;1366 x 768
H044;25;Mannelijk;Rechts;5;83;right;yes;100;undefined;null;true;focus;yes;1106275;Chrome;112.0;Windows;10;undefined;undefined;1366 x 768;1366 x 768
H044;25;Mannelijk;Rechts;5;84;left;no;150;leftarrow;370;true;focus;yes;1107422;Chrome;112.0;Windows;10;undefined;undefined;1366 x 768;1366 x 768
H044;25;Mannelijk;Rechts;5;85;left;yes;150;leftarrow;378;false;focus;yes;1108580;Chrome;112.0;Windows;10;undefined;undefined;1366 x 768;1366 x 768
H044;25;Mannelijk;Rechts;5;86;right;no;100;rightarrow;464;true;focus;yes;1109832;Chrome;112.0;Windows;10;undefined;undefined;1366 x 768;1366 x 768
H044;25;Mannelijk;Rechts;5;87;left;no;100;leftarrow;434;true;focus;yes;1111052;Chrome;112.0;Windows;10;undefined;undefined;1366 x 768;1366 x 768
H044;25;Mannelijk;Rechts;5;88;right;no;100;rightarrow;363;true;focus;yes;1112197;Chrome;112.0;Windows;10;undefined;undefined;1366 x 768;1366 x 768
H044;25;Mannelijk;Rechts;5;89;left;no;100;leftarrow;478;true;focus;yes;1113462;Chrome;112.0;Windows;10;undefined;undefined;1366 x 768;1366 x 768
H044;25;Mannelijk;Rechts;5;90;left;yes;100;undefined;null;true;focus;yes;1115507;Chrome;112.0;Windows;10;undefined;undefined;1366 x 768;1366 x 768
H044;25;Mannelijk;Rechts;5;91;right;no;150;rightarrow;439;true;focus;yes;1116723;Chrome;112.0;Windows;10;undefined;undefined;1366 x 768;1366 x 768
H044;25;Mannelijk;Rechts;5;92;left;no;150;leftarrow;566;true;focus;yes;1118066;Chrome;112.0;Windows;10;undefined;undefined;1366 x 768;1366 x 768
H044;25;Mannelijk;Rechts;5;93;right;yes;150;undefined;null;true;focus;yes;1120107;Chrome;112.0;Windows;10;undefined;undefined;1366 x 768;1366 x 768
H044;25;Mannelijk;Rechts;5;94;left;no;200;leftarrow;488;true;focus;yes;1121370;Chrome;112.0;Windows;10;undefined;undefined;1366 x 768;1366 x 768
H044;25;Mannelijk;Rechts;5;95;right;no;200;rightarrow;417;true;focus;yes;1122566;Chrome;112.0;Windows;10;undefined;undefined;1366 x 768;1366 x 768
H044;25;Mannelijk;Rechts;5;96;right;no;200;rightarrow;443;true;focus;yes;1123792;Chrome;112.0;Windows;10;undefined;undefined;1366 x 768;1366 x 768
H044;25;Mannelijk;Rechts;5;97;left;no;200;leftarrow;436;true;focus;yes;1125005;Chrome;112.0;Windows;10;undefined;undefined;1366 x 768;1366 x 768
H044;25;Mannelijk;Rechts;5;98;right;no;200;rightarrow;408;true;focus;yes;1126189;Chrome;112.0;Windows;10;undefined;undefined;1366 x 768;1366 x 768
H044;25;Mannelijk;Rechts;5;99;right;no;200;rightarrow;415;true;focus;yes;1127379;Chrome;112.0;Windows;10;undefined;undefined;1366 x 768;1366 x 768
H044;25;Mannelijk;Rechts;5;100;right;no;200;rightarrow;424;true;focus;yes;1128588;Chrome;112.0;Windows;10;undefined;undefined;1366 x 768;1366 x 768
H044;25;Mannelijk;Rechts;5;101;left;yes;200;undefined;null;true;focus;yes;1130624;Chrome;112.0;Windows;10;undefined;undefined;1366 x 768;1366 x 768
H044;25;Mannelijk;Rechts;5;102;right;yes;250;undefined;null;true;focus;yes;1132678;Chrome;112.0;Windows;10;undefined;undefined;1366 x 768;1366 x 768
H044;25;Mannelijk;Rechts;5;103;left;no;300;leftarrow;424;true;focus;yes;1133886;Chrome;112.0;Windows;10;undefined;undefined;1366 x 768;1366 x 768
H044;25;Mannelijk;Rechts;5;104;left;no;300;leftarrow;362;true;focus;yes;1135025;Chrome;112.0;Windows;10;undefined;undefined;1366 x 768;1366 x 768
H044;25;Mannelijk;Rechts;5;105;left;no;300;leftarrow;393;true;focus;yes;1136204;Chrome;112.0;Windows;10;undefined;undefined;1366 x 768;1366 x 768
H044;25;Mannelijk;Rechts;5;106;right;no;300;rightarrow;425;true;focus;yes;1137403;Chrome;112.0;Windows;10;undefined;undefined;1366 x 768;1366 x 768
H044;25;Mannelijk;Rechts;5;107;left;yes;300;leftarrow;540;false;focus;yes;1138719;Chrome;112.0;Windows;10;undefined;undefined;1366 x 768;1366 x 768
H044;25;Mannelijk;Rechts;5;108;right;no;250;rightarrow;250;true;focus;yes;1139745;Chrome;112.0;Windows;10;undefined;undefined;1366 x 768;1366 x 768
H044;25;Mannelijk;Rechts;5;109;left;no;250;leftarrow;312;true;focus;yes;1140840;Chrome;112.0;Windows;10;undefined;undefined;1366 x 768;1366 x 768
H044;25;Mannelijk;Rechts;5;110;right;no;250;rightarrow;302;true;focus;yes;1141929;Chrome;112.0;Windows;10;undefined;undefined;1366 x 768;1366 x 768
H044;25;Mannelijk;Rechts;5;111;left;no;250;leftarrow;512;true;focus;yes;1143222;Chrome;112.0;Windows;10;undefined;undefined;1366 x 768;1366 x 768
H044;25;Mannelijk;Rechts;5;112;right;yes;250;undefined;null;true;focus;yes;1145275;Chrome;112.0;Windows;10;undefined;undefined;1366 x 768;1366 x 768
H044;25;Mannelijk;Rechts;5;113;left;no;300;leftarrow;491;true;focus;yes;1146554;Chrome;112.0;Windows;10;undefined;undefined;1366 x 768;1366 x 768
H044;25;Mannelijk;Rechts;5;114;left;yes;300;leftarrow;412;false;focus;yes;1147755;Chrome;112.0;Windows;10;undefined;undefined;1366 x 768;1366 x 768
H044;25;Mannelijk;Rechts;5;115;right;yes;250;rightarrow;412;false;focus;yes;1148954;Chrome;112.0;Windows;10;undefined;undefined;1366 x 768;1366 x 768
H044;25;Mannelijk;Rechts;5;116;right;no;200;rightarrow;459;true;focus;yes;1150201;Chrome;112.0;Windows;10;undefined;undefined;1366 x 768;1366 x 768
H044;25;Mannelijk;Rechts;5;117;right;no;200;rightarrow;471;true;focus;yes;1151446;Chrome;112.0;Windows;10;undefined;undefined;1366 x 768;1366 x 768
H044;25;Mannelijk;Rechts;5;118;right;no;200;rightarrow;468;true;focus;yes;1152694;Chrome;112.0;Windows;10;undefined;undefined;1366 x 768;1366 x 768
H044;25;Mannelijk;Rechts;5;119;left;no;200;leftarrow;461;true;focus;yes;1153935;Chrome;112.0;Windows;10;undefined;undefined;1366 x 768;1366 x 768
H044;25;Mannelijk;Rechts;5;120;left;no;200;leftarrow;405;true;focus;yes;1155129;Chrome;112.0;Windows;10;undefined;undefined;1366 x 768;1366 x 768
H044;25;Mannelijk;Rechts;5;121;left;yes;200;leftarrow;409;false;focus;yes;1156315;Chrome;112.0;Windows;10;undefined;undefined;1366 x 768;1366 x 768
H044;25;Mannelijk;Rechts;5;122;left;no;150;leftarrow;408;true;focus;yes;1157497;Chrome;112.0;Windows;10;undefined;undefined;1366 x 768;1366 x 768
H044;25;Mannelijk;Rechts;5;123;right;no;150;rightarrow;441;true;focus;yes;1158713;Chrome;112.0;Windows;10;undefined;undefined;1366 x 768;1366 x 768
H044;25;Mannelijk;Rechts;5;124;right;no;150;rightarrow;343;true;focus;yes;1159833;Chrome;112.0;Windows;10;undefined;undefined;1366 x 768;1366 x 768
H044;25;Mannelijk;Rechts;5;125;right;no;150;rightarrow;454;true;focus;yes;1161076;Chrome;112.0;Windows;10;undefined;undefined;1366 x 768;1366 x 768
H044;25;Mannelijk;Rechts;5;126;left;no;150;leftarrow;417;true;focus;yes;1162272;Chrome;112.0;Windows;10;undefined;undefined;1366 x 768;1366 x 768
H044;25;Mannelijk;Rechts;5;127;right;yes;150;undefined;null;true;focus;yes;1164313;Chrome;112.0;Windows;10;undefined;undefined;1366 x 768;1366 x 768
H044;25;Mannelijk;Rechts;5;128;left;no;200;leftarrow;419;true;focus;yes;1165506;Chrome;112.0;Windows;10;undefined;undefined;1366 x 768;1366 x 768
H044;25;Mannelijk;Rechts;6;1;right;no;200;rightarrow;512;true;focus;yes;1185009;Chrome;112.0;Windows;10;undefined;undefined;1366 x 768;1366 x 768
H044;25;Mannelijk;Rechts;6;2;right;no;200;rightarrow;310;true;focus;yes;1186093;Chrome;112.0;Windows;10;undefined;undefined;1366 x 768;1366 x 768
H044;25;Mannelijk;Rechts;6;3;left;no;200;leftarrow;371;true;focus;yes;1187236;Chrome;112.0;Windows;10;undefined;undefined;1366 x 768;1366 x 768
H044;25;Mannelijk;Rechts;6;4;right;yes;200;rightarrow;409;false;focus;yes;1188424;Chrome;112.0;Windows;10;undefined;undefined;1366 x 768;1366 x 768
H044;25;Mannelijk;Rechts;6;5;left;no;150;leftarrow;316;true;focus;yes;1189514;Chrome;112.0;Windows;10;undefined;undefined;1366 x 768;1366 x 768
H044;25;Mannelijk;Rechts;6;6;right;no;150;rightarrow;359;true;focus;yes;1190657;Chrome;112.0;Windows;10;undefined;undefined;1366 x 768;1366 x 768
H044;25;Mannelijk;Rechts;6;7;left;no;150;leftarrow;412;true;focus;yes;1191860;Chrome;112.0;Windows;10;undefined;undefined;1366 x 768;1366 x 768
H044;25;Mannelijk;Rechts;6;8;left;yes;150;leftarrow;369;false;focus;yes;1193016;Chrome;112.0;Windows;10;undefined;undefined;1366 x 768;1366 x 768
H044;25;Mannelijk;Rechts;6;9;right;no;100;rightarrow;321;true;focus;yes;1194118;Chrome;112.0;Windows;10;undefined;undefined;1366 x 768;1366 x 768
H044;25;Mannelijk;Rechts;6;10;left;no;100;leftarrow;390;true;focus;yes;1195287;Chrome;112.0;Windows;10;undefined;undefined;1366 x 768;1366 x 768
H044;25;Mannelijk;Rechts;6;11;left;no;100;leftarrow;401;true;focus;yes;1196466;Chrome;112.0;Windows;10;undefined;undefined;1366 x 768;1366 x 768
H044;25;Mannelijk;Rechts;6;12;right;yes;100;undefined;null;true;focus;yes;1198503;Chrome;112.0;Windows;10;undefined;undefined;1366 x 768;1366 x 768
H044;25;Mannelijk;Rechts;6;13;right;no;150;rightarrow;349;true;focus;yes;1199628;Chrome;112.0;Windows;10;undefined;undefined;1366 x 768;1366 x 768
H044;25;Mannelijk;Rechts;6;14;right;no;150;rightarrow;353;true;focus;yes;1200766;Chrome;112.0;Windows;10;undefined;undefined;1366 x 768;1366 x 768
H044;25;Mannelijk;Rechts;6;15;left;no;150;leftarrow;496;true;focus;yes;1202041;Chrome;112.0;Windows;10;undefined;undefined;1366 x 768;1366 x 768
H044;25;Mannelijk;Rechts;6;16;left;yes;150;leftarrow;338;false;focus;yes;1203166;Chrome;112.0;Windows;10;undefined;undefined;1366 x 768;1366 x 768
H044;25;Mannelijk;Rechts;6;17;left;yes;100;rightarrow;174;false;focus;yes;1204119;Chrome;112.0;Windows;10;undefined;undefined;1366 x 768;1366 x 768
H044;25;Mannelijk;Rechts;6;18;left;no;50;leftarrow;695;true;focus;yes;1205589;Chrome;112.0;Windows;10;undefined;undefined;1366 x 768;1366 x 768
H044;25;Mannelijk;Rechts;6;19;right;yes;50;undefined;null;true;focus;yes;1207630;Chrome;112.0;Windows;10;undefined;undefined;1366 x 768;1366 x 768
H044;25;Mannelijk;Rechts;6;20;right;no;100;rightarrow;359;true;focus;yes;1208769;Chrome;112.0;Windows;10;undefined;undefined;1366 x 768;1366 x 768
H044;25;Mannelijk;Rechts;6;21;right;no;100;rightarrow;444;true;focus;yes;1209987;Chrome;112.0;Windows;10;undefined;undefined;1366 x 768;1366 x 768
H044;25;Mannelijk;Rechts;6;22;left;no;100;leftarrow;489;true;focus;yes;1211248;Chrome;112.0;Windows;10;undefined;undefined;1366 x 768;1366 x 768
H044;25;Mannelijk;Rechts;6;23;right;no;100;rightarrow;408;true;focus;yes;1212434;Chrome;112.0;Windows;10;undefined;undefined;1366 x 768;1366 x 768
H044;25;Mannelijk;Rechts;6;24;left;no;100;leftarrow;337;true;focus;yes;1213546;Chrome;112.0;Windows;10;undefined;undefined;1366 x 768;1366 x 768
H044;25;Mannelijk;Rechts;6;25;right;no;100;rightarrow;445;true;focus;yes;1214772;Chrome;112.0;Windows;10;undefined;undefined;1366 x 768;1366 x 768
H044;25;Mannelijk;Rechts;6;26;left;no;100;leftarrow;388;true;focus;yes;1215946;Chrome;112.0;Windows;10;undefined;undefined;1366 x 768;1366 x 768
H044;25;Mannelijk;Rechts;6;27;left;yes;100;undefined;null;true;focus;yes;1217982;Chrome;112.0;Windows;10;undefined;undefined;1366 x 768;1366 x 768
H044;25;Mannelijk;Rechts;6;28;right;yes;150;undefined;null;true;focus;yes;1220016;Chrome;112.0;Windows;10;undefined;undefined;1366 x 768;1366 x 768
H044;25;Mannelijk;Rechts;6;29;right;no;200;rightarrow;350;true;focus;yes;1221141;Chrome;112.0;Windows;10;undefined;undefined;1366 x 768;1366 x 768
H044;25;Mannelijk;Rechts;6;30;left;no;200;leftarrow;353;true;focus;yes;1222277;Chrome;112.0;Windows;10;undefined;undefined;1366 x 768;1366 x 768
H044;25;Mannelijk;Rechts;6;31;left;no;200;leftarrow;429;true;focus;yes;1223487;Chrome;112.0;Windows;10;undefined;undefined;1366 x 768;1366 x 768
