participantID,age,gender,handedness,block_i,trial_i,stim,signal,SSD,response,rt,correct,focus,Fullscreen,time_elapsed,browser_name,browser_version,os_name,os_version,tablet,mobile,screen_resolution,window_resolution
S007,22,Vrouwelijk,Rechts,0,2,right,yes,200,rightarrow,515,false,focus,yes,1002854,Chrome,108.0,Windows,10,undefined,undefined,1280 x 720,1280 x 720
S007,22,Vrouwelijk,Rechts,0,5,left,no,100,leftarrow,503,true,focus,yes,1008951,Chrome,108.0,Windows,10,undefined,undefined,1280 x 720,1280 x 720
S007,22,Vrouwelijk,Rechts,0,3,left,yes,150,leftarrow,413,false,focus,yes,1004824,Chrome,108.0,Windows,10,undefined,undefined,1280 x 720,1280 x 720
S007,22,Vrouwelijk,Rechts,0,1,left,no,200,leftarrow,822,true,focus,yes,1000772,Chrome,108.0,Windows,10,undefined,undefined,1280 x 720,1280 x 720
S007,22,Vrouwelijk,Rechts,0,4,right,no,100,rightarrow,520,true,focus,yes,1006898,Chrome,108.0,Windows,10,undefined,undefined,1280 x 720,1280 x 720
S007,22,Vrouwelijk,Rechts,0,6,right,no,100,rightarrow,401,true,focus,yes,1010902,Chrome,108.0,Windows,10,undefined,undefined,1280 x 720,1280 x 720
S007,22,Vrouwelijk,Rechts,0,7,left,no,100,leftarrow,325,true,focus,yes,1012786,Chrome,108.0,Windows,10,undefined,undefined,1280 x 720,1280 x 720
S007,22,Vrouwelijk,Rechts,0,8,right,no,100,rightarrow,435,true,focus,yes,1014788,Chrome,108.0,Windows,10,undefined,undefined,1280 x 720,1280 x 720
S007,22,Vrouwelijk,Rechts,1,1,right,yes,100,rightarrow,581,false,focus,yes,1035806,Chrome,108.0,Windows,10,undefined,undefined,1280 x 720,1280 x 720
S007,22,Vrouwelijk,Rechts,1,2,left,no,50,leftarrow,657,true,focus,yes,1037242,Chrome,108.0,Windows,10,undefined,undefined,1280 x 720,1280 x 720
S007,22,Vrouwelijk,Rechts,1,3,left,yes,50,undefined,null,true,focus,yes,1039300,Chrome,108.0,Windows,10,undefined,undefined,1280 x 720,1280 x 720
S007,22,Vrouwelijk,Rechts,1,4,right,no,100,rightarrow,360,true,focus,yes,1040445,Chrome,108.0,Windows,10,undefined,undefined,1280 x 720,1280 x 720
S007,22,Vrouwelijk,Rechts,1,5,right,no,100,rightarrow,431,true,focus,yes,1041664,Chrome,108.0,Windows,10,undefined,undefined,1280 x 720,1280 x 720
S007,22,Vrouwelijk,Rechts,1,6,left,no,100,leftarrow,298,true,focus,yes,1042759,Chrome,108.0,Windows,10,undefined,undefined,1280 x 720,1280 x 720
S007,22,Vrouwelijk,Rechts,1,7,left,no,100,leftarrow,417,true,focus,yes,1043948,Chrome,108.0,Windows,10,undefined,undefined,1280 x 720,1280 x 720
S007,22,Vrouwelijk,Rechts,1,8,right,no,100,rightarrow,284,true,focus,yes,1044997,Chrome,108.0,Windows,10,undefined,undefined,1280 x 720,1280 x 720
S007,22,Vrouwelijk,Rechts,1,9,left,no,100,leftarrow,278,true,focus,yes,1046057,Chrome,108.0,Windows,10,undefined,undefined,1280 x 720,1280 x 720
S007,22,Vrouwelijk,Rechts,1,10,left,no,100,leftarrow,517,true,focus,yes,1047365,Chrome,108.0,Windows,10,undefined,undefined,1280 x 720,1280 x 720
S007,22,Vrouwelijk,Rechts,1,11,right,no,100,rightarrow,377,true,focus,yes,1048525,Chrome,108.0,Windows,10,undefined,undefined,1280 x 720,1280 x 720
S007,22,Vrouwelijk,Rechts,1,12,right,no,100,rightarrow,739,true,focus,yes,1050050,Chrome,108.0,Windows,10,undefined,undefined,1280 x 720,1280 x 720
S007,22,Vrouwelijk,Rechts,1,13,left,yes,100,undefined,null,true,focus,yes,1052110,Chrome,108.0,Windows,10,undefined,undefined,1280 x 720,1280 x 720
S007,22,Vrouwelijk,Rechts,1,14,left,no,150,leftarrow,416,true,focus,yes,1053314,Chrome,108.0,Windows,10,undefined,undefined,1280 x 720,1280 x 720
S007,22,Vrouwelijk,Rechts,1,15,right,no,150,rightarrow,363,true,focus,yes,1054472,Chrome,108.0,Windows,10,undefined,undefined,1280 x 720,1280 x 720
S007,22,Vrouwelijk,Rechts,1,16,right,yes,150,rightarrow,388,false,focus,yes,1055649,Chrome,108.0,Windows,10,undefined,undefined,1280 x 720,1280 x 720
S007,22,Vrouwelijk,Rechts,1,17,left,yes,100,leftarrow,326,false,focus,yes,1056762,Chrome,108.0,Windows,10,undefined,undefined,1280 x 720,1280 x 720
S007,22,Vrouwelijk,Rechts,1,18,right,no,50,rightarrow,363,true,focus,yes,1057913,Chrome,108.0,Windows,10,undefined,undefined,1280 x 720,1280 x 720
S007,22,Vrouwelijk,Rechts,1,19,right,yes,50,undefined,null,true,focus,yes,1059936,Chrome,108.0,Windows,10,undefined,undefined,1280 x 720,1280 x 720
S007,22,Vrouwelijk,Rechts,1,20,right,no,100,rightarrow,399,true,focus,yes,1061123,Chrome,108.0,Windows,10,undefined,undefined,1280 x 720,1280 x 720
S007,22,Vrouwelijk,Rechts,1,21,left,no,100,leftarrow,335,true,focus,yes,1062251,Chrome,108.0,Windows,10,undefined,undefined,1280 x 720,1280 x 720
S007,22,Vrouwelijk,Rechts,1,22,right,no,100,rightarrow,427,true,focus,yes,1063473,Chrome,108.0,Windows,10,undefined,undefined,1280 x 720,1280 x 720
S007,22,Vrouwelijk,Rechts,1,23,left,no,100,leftarrow,354,true,focus,yes,1064624,Chrome,108.0,Windows,10,undefined,undefined,1280 x 720,1280 x 720
S007,22,Vrouwelijk,Rechts,1,24,left,no,100,leftarrow,417,true,focus,yes,1065835,Chrome,108.0,Windows,10,undefined,undefined,1280 x 720,1280 x 720
S007,22,Vrouwelijk,Rechts,1,25,right,no,100,rightarrow,324,true,focus,yes,1066952,Chrome,108.0,Windows,10,undefined,undefined,1280 x 720,1280 x 720
S007,22,Vrouwelijk,Rechts,1,26,left,no,100,leftarrow,403,true,focus,yes,1068145,Chrome,108.0,Windows,10,undefined,undefined,1280 x 720,1280 x 720
S007,22,Vrouwelijk,Rechts,1,27,left,no,100,leftarrow,359,true,focus,yes,1069295,Chrome,108.0,Windows,10,undefined,undefined,1280 x 720,1280 x 720
S007,22,Vrouwelijk,Rechts,1,28,left,no,100,leftarrow,324,true,focus,yes,1070406,Chrome,108.0,Windows,10,undefined,undefined,1280 x 720,1280 x 720
S007,22,Vrouwelijk,Rechts,1,29,right,yes,100,rightarrow,292,false,focus,yes,1071484,Chrome,108.0,Windows,10,undefined,undefined,1280 x 720,1280 x 720
S007,22,Vrouwelijk,Rechts,1,30,left,yes,50,leftarrow,303,false,focus,yes,1072560,Chrome,108.0,Windows,10,undefined,undefined,1280 x 720,1280 x 720
S007,22,Vrouwelijk,Rechts,1,31,right,no,50,rightarrow,347,true,focus,yes,1073687,Chrome,108.0,Windows,10,undefined,undefined,1280 x 720,1280 x 720
S007,22,Vrouwelijk,Rechts,1,32,right,no,50,rightarrow,457,true,focus,yes,1074929,Chrome,108.0,Windows,10,undefined,undefined,1280 x 720,1280 x 720
S007,22,Vrouwelijk,Rechts,1,33,left,no,50,leftarrow,493,true,focus,yes,1076203,Chrome,108.0,Windows,10,undefined,undefined,1280 x 720,1280 x 720
S007,22,Vrouwelijk,Rechts,1,34,right,no,50,rightarrow,383,true,focus,yes,1077352,Chrome,108.0,Windows,10,undefined,undefined,1280 x 720,1280 x 720
S007,22,Vrouwelijk,Rechts,1,35,left,yes,50,undefined,null,true,focus,yes,1079396,Chrome,108.0,Windows,10,undefined,undefined,1280 x 720,1280 x 720
S007,22,Vrouwelijk,Rechts,1,36,right,no,100,rightarrow,267,true,focus,yes,1080452,Chrome,108.0,Windows,10,undefined,undefined,1280 x 720,1280 x 720
S007,22,Vrouwelijk,Rechts,1,37,left,no,100,leftarrow,384,true,focus,yes,1081617,Chrome,108.0,Windows,10,undefined,undefined,1280 x 720,1280 x 720
S007,22,Vrouwelijk,Rechts,1,38,right,yes,100,rightarrow,286,false,focus,yes,1082691,Chrome,108.0,Windows,10,undefined,undefined,1280 x 720,1280 x 720
S007,22,Vrouwelijk,Rechts,1,39,right,no,50,rightarrow,470,true,focus,yes,1083940,Chrome,108.0,Windows,10,undefined,undefined,1280 x 720,1280 x 720
S007,22,Vrouwelijk,Rechts,1,40,left,no,50,leftarrow,470,true,focus,yes,1085201,Chrome,108.0,Windows,10,undefined,undefined,1280 x 720,1280 x 720
S007,22,Vrouwelijk,Rechts,1,41,right,yes,50,rightarrow,278,false,focus,yes,1086262,Chrome,108.0,Windows,10,undefined,undefined,1280 x 720,1280 x 720
S007,22,Vrouwelijk,Rechts,1,42,right,no,50,rightarrow,374,true,focus,yes,1087423,Chrome,108.0,Windows,10,undefined,undefined,1280 x 720,1280 x 720
S007,22,Vrouwelijk,Rechts,1,43,left,no,50,leftarrow,527,true,focus,yes,1088732,Chrome,108.0,Windows,10,undefined,undefined,1280 x 720,1280 x 720
S007,22,Vrouwelijk,Rechts,1,44,right,no,50,rightarrow,347,true,focus,yes,1089865,Chrome,108.0,Windows,10,undefined,undefined,1280 x 720,1280 x 720
S007,22,Vrouwelijk,Rechts,1,45,left,no,50,leftarrow,404,true,focus,yes,1091064,Chrome,108.0,Windows,10,undefined,undefined,1280 x 720,1280 x 720
S007,22,Vrouwelijk,Rechts,1,46,left,yes,50,undefined,null,true,focus,yes,1093113,Chrome,108.0,Windows,10,undefined,undefined,1280 x 720,1280 x 720
S007,22,Vrouwelijk,Rechts,1,47,right,no,100,rightarrow,269,true,focus,yes,1094173,Chrome,108.0,Windows,10,undefined,undefined,1280 x 720,1280 x 720
S007,22,Vrouwelijk,Rechts,1,48,left,no,100,leftarrow,366,true,focus,yes,1095319,Chrome,108.0,Windows,10,undefined,undefined,1280 x 720,1280 x 720
S007,22,Vrouwelijk,Rechts,1,49,right,no,100,rightarrow,318,true,focus,yes,1096402,Chrome,108.0,Windows,10,undefined,undefined,1280 x 720,1280 x 720
S007,22,Vrouwelijk,Rechts,1,50,right,no,100,rightarrow,424,true,focus,yes,1097622,Chrome,108.0,Windows,10,undefined,undefined,1280 x 720,1280 x 720
S007,22,Vrouwelijk,Rechts,1,51,left,no,100,leftarrow,279,true,focus,yes,1098689,Chrome,108.0,Windows,10,undefined,undefined,1280 x 720,1280 x 720
S007,22,Vrouwelijk,Rechts,1,52,left,no,100,leftarrow,292,true,focus,yes,1099767,Chrome,108.0,Windows,10,undefined,undefined,1280 x 720,1280 x 720
S007,22,Vrouwelijk,Rechts,1,53,left,yes,100,undefined,null,true,focus,yes,1101784,Chrome,108.0,Windows,10,undefined,undefined,1280 x 720,1280 x 720
S007,22,Vrouwelijk,Rechts,1,54,right,yes,150,rightarrow,265,false,focus,yes,1102836,Chrome,108.0,Windows,10,undefined,undefined,1280 x 720,1280 x 720
S007,22,Vrouwelijk,Rechts,1,55,left,no,100,leftarrow,298,true,focus,yes,1103919,Chrome,108.0,Windows,10,undefined,undefined,1280 x 720,1280 x 720
S007,22,Vrouwelijk,Rechts,1,56,right,no,100,rightarrow,350,true,focus,yes,1105056,Chrome,108.0,Windows,10,undefined,undefined,1280 x 720,1280 x 720
S007,22,Vrouwelijk,Rechts,1,57,left,no,100,leftarrow,271,true,focus,yes,1106092,Chrome,108.0,Windows,10,undefined,undefined,1280 x 720,1280 x 720
S007,22,Vrouwelijk,Rechts,1,58,right,no,100,rightarrow,284,true,focus,yes,1107141,Chrome,108.0,Windows,10,undefined,undefined,1280 x 720,1280 x 720
S007,22,Vrouwelijk,Rechts,1,59,right,no,100,rightarrow,420,true,focus,yes,1108342,Chrome,108.0,Windows,10,undefined,undefined,1280 x 720,1280 x 720
S007,22,Vrouwelijk,Rechts,1,60,left,no,100,rightarrow,292,false,focus,yes,1109421,Chrome,108.0,Windows,10,undefined,undefined,1280 x 720,1280 x 720
S007,22,Vrouwelijk,Rechts,1,61,left,yes,100,undefined,null,true,focus,yes,1111482,Chrome,108.0,Windows,10,undefined,undefined,1280 x 720,1280 x 720
S007,22,Vrouwelijk,Rechts,1,62,right,yes,150,undefined,null,true,focus,yes,1113529,Chrome,108.0,Windows,10,undefined,undefined,1280 x 720,1280 x 720
S007,22,Vrouwelijk,Rechts,1,63,left,no,200,leftarrow,908,true,focus,yes,1115212,Chrome,108.0,Windows,10,undefined,undefined,1280 x 720,1280 x 720
S007,22,Vrouwelijk,Rechts,1,64,right,no,200,rightarrow,445,true,focus,yes,1116446,Chrome,108.0,Windows,10,undefined,undefined,1280 x 720,1280 x 720
S007,22,Vrouwelijk,Rechts,1,65,right,no,200,rightarrow,458,true,focus,yes,1117696,Chrome,108.0,Windows,10,undefined,undefined,1280 x 720,1280 x 720
S007,22,Vrouwelijk,Rechts,1,66,right,yes,200,undefined,null,true,focus,yes,1119737,Chrome,108.0,Windows,10,undefined,undefined,1280 x 720,1280 x 720
S007,22,Vrouwelijk,Rechts,1,67,right,no,250,rightarrow,360,true,focus,yes,1120884,Chrome,108.0,Windows,10,undefined,undefined,1280 x 720,1280 x 720
S007,22,Vrouwelijk,Rechts,1,68,left,no,250,leftarrow,757,true,focus,yes,1122425,Chrome,108.0,Windows,10,undefined,undefined,1280 x 720,1280 x 720
S007,22,Vrouwelijk,Rechts,1,69,right,no,250,rightarrow,355,true,focus,yes,1123563,Chrome,108.0,Windows,10,undefined,undefined,1280 x 720,1280 x 720
S007,22,Vrouwelijk,Rechts,1,70,left,no,250,leftarrow,411,true,focus,yes,1124747,Chrome,108.0,Windows,10,undefined,undefined,1280 x 720,1280 x 720
S007,22,Vrouwelijk,Rechts,1,71,left,no,250,leftarrow,355,true,focus,yes,1125885,Chrome,108.0,Windows,10,undefined,undefined,1280 x 720,1280 x 720
S007,22,Vrouwelijk,Rechts,1,72,left,yes,250,leftarrow,405,false,focus,yes,1127076,Chrome,108.0,Windows,10,undefined,undefined,1280 x 720,1280 x 720
S007,22,Vrouwelijk,Rechts,1,73,right,no,200,rightarrow,347,true,focus,yes,1128197,Chrome,108.0,Windows,10,undefined,undefined,1280 x 720,1280 x 720
S007,22,Vrouwelijk,Rechts,1,74,left,no,200,leftarrow,335,true,focus,yes,1129299,Chrome,108.0,Windows,10,undefined,undefined,1280 x 720,1280 x 720
S007,22,Vrouwelijk,Rechts,1,75,right,no,200,rightarrow,440,true,focus,yes,1130531,Chrome,108.0,Windows,10,undefined,undefined,1280 x 720,1280 x 720
S007,22,Vrouwelijk,Rechts,1,76,left,no,200,leftarrow,451,true,focus,yes,1131768,Chrome,108.0,Windows,10,undefined,undefined,1280 x 720,1280 x 720
S007,22,Vrouwelijk,Rechts,1,77,left,no,200,leftarrow,374,true,focus,yes,1132917,Chrome,108.0,Windows,10,undefined,undefined,1280 x 720,1280 x 720
S007,22,Vrouwelijk,Rechts,1,78,left,yes,200,leftarrow,396,false,focus,yes,1134097,Chrome,108.0,Windows,10,undefined,undefined,1280 x 720,1280 x 720
S007,22,Vrouwelijk,Rechts,1,79,right,yes,150,rightarrow,426,false,focus,yes,1135306,Chrome,108.0,Windows,10,undefined,undefined,1280 x 720,1280 x 720
S007,22,Vrouwelijk,Rechts,1,80,right,no,100,rightarrow,481,true,focus,yes,1136556,Chrome,108.0,Windows,10,undefined,undefined,1280 x 720,1280 x 720
S007,22,Vrouwelijk,Rechts,1,81,left,no,100,leftarrow,394,true,focus,yes,1137742,Chrome,108.0,Windows,10,undefined,undefined,1280 x 720,1280 x 720
S007,22,Vrouwelijk,Rechts,1,82,left,yes,100,undefined,null,true,focus,yes,1139775,Chrome,108.0,Windows,10,undefined,undefined,1280 x 720,1280 x 720
S007,22,Vrouwelijk,Rechts,1,83,right,no,150,rightarrow,276,true,focus,yes,1140836,Chrome,108.0,Windows,10,undefined,undefined,1280 x 720,1280 x 720
S007,22,Vrouwelijk,Rechts,1,84,right,yes,150,rightarrow,330,false,focus,yes,1141958,Chrome,108.0,Windows,10,undefined,undefined,1280 x 720,1280 x 720
S007,22,Vrouwelijk,Rechts,1,85,left,no,100,leftarrow,326,true,focus,yes,1143065,Chrome,108.0,Windows,10,undefined,undefined,1280 x 720,1280 x 720
S007,22,Vrouwelijk,Rechts,1,86,right,no,100,rightarrow,344,true,focus,yes,1144193,Chrome,108.0,Windows,10,undefined,undefined,1280 x 720,1280 x 720
S007,22,Vrouwelijk,Rechts,1,87,left,no,100,leftarrow,371,true,focus,yes,1145351,Chrome,108.0,Windows,10,undefined,undefined,1280 x 720,1280 x 720
S007,22,Vrouwelijk,Rechts,1,88,right,no,100,rightarrow,352,true,focus,yes,1146495,Chrome,108.0,Windows,10,undefined,undefined,1280 x 720,1280 x 720
S007,22,Vrouwelijk,Rechts,1,89,right,yes,100,undefined,null,true,focus,yes,1148542,Chrome,108.0,Windows,10,undefined,undefined,1280 x 720,1280 x 720
S007,22,Vrouwelijk,Rechts,1,90,left,no,150,leftarrow,279,true,focus,yes,1149608,Chrome,108.0,Windows,10,undefined,undefined,1280 x 720,1280 x 720
S007,22,Vrouwelijk,Rechts,1,91,left,no,150,leftarrow,392,true,focus,yes,1150786,Chrome,108.0,Windows,10,undefined,undefined,1280 x 720,1280 x 720
S007,22,Vrouwelijk,Rechts,1,92,right,no,150,rightarrow,393,true,focus,yes,1151961,Chrome,108.0,Windows,10,undefined,undefined,1280 x 720,1280 x 720
S007,22,Vrouwelijk,Rechts,1,93,right,no,150,rightarrow,553,true,focus,yes,1153284,Chrome,108.0,Windows,10,undefined,undefined,1280 x 720,1280 x 720
S007,22,Vrouwelijk,Rechts,1,94,left,yes,150,rightarrow,333,false,focus,yes,1154399,Chrome,108.0,Windows,10,undefined,undefined,1280 x 720,1280 x 720
S007,22,Vrouwelijk,Rechts,1,95,right,no,100,rightarrow,439,true,focus,yes,1155605,Chrome,108.0,Windows,10,undefined,undefined,1280 x 720,1280 x 720
S007,22,Vrouwelijk,Rechts,1,96,left,no,100,leftarrow,351,true,focus,yes,1156723,Chrome,108.0,Windows,10,undefined,undefined,1280 x 720,1280 x 720
S007,22,Vrouwelijk,Rechts,1,97,left,no,100,leftarrow,374,true,focus,yes,1157877,Chrome,108.0,Windows,10,undefined,undefined,1280 x 720,1280 x 720
S007,22,Vrouwelijk,Rechts,1,98,right,no,100,rightarrow,383,true,focus,yes,1159048,Chrome,108.0,Windows,10,undefined,undefined,1280 x 720,1280 x 720
S007,22,Vrouwelijk,Rechts,1,99,right,no,100,rightarrow,344,true,focus,yes,1160170,Chrome,108.0,Windows,10,undefined,undefined,1280 x 720,1280 x 720
S007,22,Vrouwelijk,Rechts,1,100,left,no,100,leftarrow,362,true,focus,yes,1161320,Chrome,108.0,Windows,10,undefined,undefined,1280 x 720,1280 x 720
S007,22,Vrouwelijk,Rechts,1,101,right,yes,100,rightarrow,350,false,focus,yes,1162440,Chrome,108.0,Windows,10,undefined,undefined,1280 x 720,1280 x 720
S007,22,Vrouwelijk,Rechts,1,102,left,yes,50,leftarrow,351,false,focus,yes,1163556,Chrome,108.0,Windows,10,undefined,undefined,1280 x 720,1280 x 720
S007,22,Vrouwelijk,Rechts,1,103,right,no,50,rightarrow,646,true,focus,yes,1164972,Chrome,108.0,Windows,10,undefined,undefined,1280 x 720,1280 x 720
S007,22,Vrouwelijk,Rechts,1,104,left,no,50,leftarrow,363,true,focus,yes,1166105,Chrome,108.0,Windows,10,undefined,undefined,1280 x 720,1280 x 720
S007,22,Vrouwelijk,Rechts,1,105,left,yes,50,undefined,null,true,focus,yes,1168159,Chrome,108.0,Windows,10,undefined,undefined,1280 x 720,1280 x 720
S007,22,Vrouwelijk,Rechts,1,106,right,yes,100,rightarrow,291,false,focus,yes,1169235,Chrome,108.0,Windows,10,undefined,undefined,1280 x 720,1280 x 720
S007,22,Vrouwelijk,Rechts,1,107,right,no,50,rightarrow,435,true,focus,yes,1170463,Chrome,108.0,Windows,10,undefined,undefined,1280 x 720,1280 x 720
S007,22,Vrouwelijk,Rechts,1,108,right,no,50,rightarrow,408,true,focus,yes,1171662,Chrome,108.0,Windows,10,undefined,undefined,1280 x 720,1280 x 720
S007,22,Vrouwelijk,Rechts,1,109,right,no,50,rightarrow,351,true,focus,yes,1172800,Chrome,108.0,Windows,10,undefined,undefined,1280 x 720,1280 x 720
S007,22,Vrouwelijk,Rechts,1,110,left,no,50,leftarrow,480,true,focus,yes,1174047,Chrome,108.0,Windows,10,undefined,undefined,1280 x 720,1280 x 720
S007,22,Vrouwelijk,Rechts,1,111,left,no,50,leftarrow,423,true,focus,yes,1175247,Chrome,108.0,Windows,10,undefined,undefined,1280 x 720,1280 x 720
S007,22,Vrouwelijk,Rechts,1,112,left,no,50,leftarrow,391,true,focus,yes,1176418,Chrome,108.0,Windows,10,undefined,undefined,1280 x 720,1280 x 720
S007,22,Vrouwelijk,Rechts,1,113,right,yes,50,rightarrow,315,false,focus,yes,1177517,Chrome,108.0,Windows,10,undefined,undefined,1280 x 720,1280 x 720
S007,22,Vrouwelijk,Rechts,1,114,left,no,50,leftarrow,412,true,focus,yes,1178711,Chrome,108.0,Windows,10,undefined,undefined,1280 x 720,1280 x 720
S007,22,Vrouwelijk,Rechts,1,115,left,yes,50,undefined,null,true,focus,yes,1180736,Chrome,108.0,Windows,10,undefined,undefined,1280 x 720,1280 x 720
S007,22,Vrouwelijk,Rechts,1,116,left,no,100,rightarrow,302,false,focus,yes,1181826,Chrome,108.0,Windows,10,undefined,undefined,1280 x 720,1280 x 720
S007,22,Vrouwelijk,Rechts,1,117,right,no,100,rightarrow,375,true,focus,yes,1182969,Chrome,108.0,Windows,10,undefined,undefined,1280 x 720,1280 x 720
S007,22,Vrouwelijk,Rechts,1,118,right,no,100,rightarrow,353,true,focus,yes,1184110,Chrome,108.0,Windows,10,undefined,undefined,1280 x 720,1280 x 720
S007,22,Vrouwelijk,Rechts,1,119,right,no,100,rightarrow,336,true,focus,yes,1185238,Chrome,108.0,Windows,10,undefined,undefined,1280 x 720,1280 x 720
S007,22,Vrouwelijk,Rechts,1,120,left,no,100,leftarrow,424,true,focus,yes,1186428,Chrome,108.0,Windows,10,undefined,undefined,1280 x 720,1280 x 720
S007,22,Vrouwelijk,Rechts,1,121,left,no,100,leftarrow,377,true,focus,yes,1187573,Chrome,108.0,Windows,10,undefined,undefined,1280 x 720,1280 x 720
S007,22,Vrouwelijk,Rechts,1,122,right,no,100,rightarrow,460,true,focus,yes,1188813,Chrome,108.0,Windows,10,undefined,undefined,1280 x 720,1280 x 720
S007,22,Vrouwelijk,Rechts,1,123,left,yes,100,leftarrow,310,false,focus,yes,1189897,Chrome,108.0,Windows,10,undefined,undefined,1280 x 720,1280 x 720
S007,22,Vrouwelijk,Rechts,1,124,right,no,50,rightarrow,279,true,focus,yes,1190967,Chrome,108.0,Windows,10,undefined,undefined,1280 x 720,1280 x 720
S007,22,Vrouwelijk,Rechts,1,125,left,no,50,leftarrow,392,true,focus,yes,1192147,Chrome,108.0,Windows,10,undefined,undefined,1280 x 720,1280 x 720
S007,22,Vrouwelijk,Rechts,1,126,right,no,50,rightarrow,316,true,focus,yes,1193247,Chrome,108.0,Windows,10,undefined,undefined,1280 x 720,1280 x 720
S007,22,Vrouwelijk,Rechts,1,127,right,yes,50,undefined,null,true,focus,yes,1195286,Chrome,108.0,Windows,10,undefined,undefined,1280 x 720,1280 x 720
S007,22,Vrouwelijk,Rechts,1,128,left,no,100,leftarrow,273,true,focus,yes,1196347,Chrome,108.0,Windows,10,undefined,undefined,1280 x 720,1280 x 720
S007,22,Vrouwelijk,Rechts,2,1,left,no,100,leftarrow,398,true,focus,yes,1217222,Chrome,108.0,Windows,10,undefined,undefined,1280 x 720,1280 x 720
S007,22,Vrouwelijk,Rechts,2,2,left,yes,100,leftarrow,386,false,focus,yes,1218400,Chrome,108.0,Windows,10,undefined,undefined,1280 x 720,1280 x 720
S007,22,Vrouwelijk,Rechts,2,3,right,no,50,rightarrow,316,true,focus,yes,1219506,Chrome,108.0,Windows,10,undefined,undefined,1280 x 720,1280 x 720
S007,22,Vrouwelijk,Rechts,2,4,right,no,50,rightarrow,349,true,focus,yes,1220637,Chrome,108.0,Windows,10,undefined,undefined,1280 x 720,1280 x 720
S007,22,Vrouwelijk,Rechts,2,5,left,no,50,leftarrow,416,true,focus,yes,1221824,Chrome,108.0,Windows,10,undefined,undefined,1280 x 720,1280 x 720
S007,22,Vrouwelijk,Rechts,2,6,right,no,50,rightarrow,307,true,focus,yes,1222906,Chrome,108.0,Windows,10,undefined,undefined,1280 x 720,1280 x 720
S007,22,Vrouwelijk,Rechts,2,7,left,no,50,leftarrow,324,true,focus,yes,1224020,Chrome,108.0,Windows,10,undefined,undefined,1280 x 720,1280 x 720
S007,22,Vrouwelijk,Rechts,2,8,right,yes,50,undefined,null,true,focus,yes,1226067,Chrome,108.0,Windows,10,undefined,undefined,1280 x 720,1280 x 720
S007,22,Vrouwelijk,Rechts,2,9,left,yes,100,leftarrow,293,false,focus,yes,1227144,Chrome,108.0,Windows,10,undefined,undefined,1280 x 720,1280 x 720
S007,22,Vrouwelijk,Rechts,2,10,left,no,50,rightarrow,342,false,focus,yes,1228275,Chrome,108.0,Windows,10,undefined,undefined,1280 x 720,1280 x 720
S007,22,Vrouwelijk,Rechts,2,11,right,no,50,rightarrow,346,true,focus,yes,1229417,Chrome,108.0,Windows,10,undefined,undefined,1280 x 720,1280 x 720
S007,22,Vrouwelijk,Rechts,2,12,left,no,50,leftarrow,463,true,focus,yes,1230671,Chrome,108.0,Windows,10,undefined,undefined,1280 x 720,1280 x 720
S007,22,Vrouwelijk,Rechts,2,13,right,no,50,rightarrow,396,true,focus,yes,1231858,Chrome,108.0,Windows,10,undefined,undefined,1280 x 720,1280 x 720
S007,22,Vrouwelijk,Rechts,2,14,left,no,50,leftarrow,349,true,focus,yes,1233000,Chrome,108.0,Windows,10,undefined,undefined,1280 x 720,1280 x 720
S007,22,Vrouwelijk,Rechts,2,15,right,no,50,rightarrow,344,true,focus,yes,1234128,Chrome,108.0,Windows,10,undefined,undefined,1280 x 720,1280 x 720
S007,22,Vrouwelijk,Rechts,2,16,right,yes,50,undefined,null,true,focus,yes,1236171,Chrome,108.0,Windows,10,undefined,undefined,1280 x 720,1280 x 720
S007,22,Vrouwelijk,Rechts,2,17,left,no,100,leftarrow,291,true,focus,yes,1237249,Chrome,108.0,Windows,10,undefined,undefined,1280 x 720,1280 x 720
S007,22,Vrouwelijk,Rechts,2,18,left,no,100,leftarrow,397,true,focus,yes,1238434,Chrome,108.0,Windows,10,undefined,undefined,1280 x 720,1280 x 720
S007,22,Vrouwelijk,Rechts,2,19,left,no,100,leftarrow,391,true,focus,yes,1239604,Chrome,108.0,Windows,10,undefined,undefined,1280 x 720,1280 x 720
S007,22,Vrouwelijk,Rechts,2,20,right,yes,100,rightarrow,421,false,focus,yes,1240813,Chrome,108.0,Windows,10,undefined,undefined,1280 x 720,1280 x 720
S007,22,Vrouwelijk,Rechts,2,21,right,no,50,rightarrow,436,true,focus,yes,1242023,Chrome,108.0,Windows,10,undefined,undefined,1280 x 720,1280 x 720
S007,22,Vrouwelijk,Rechts,2,22,left,yes,50,undefined,null,true,focus,yes,1244068,Chrome,108.0,Windows,10,undefined,undefined,1280 x 720,1280 x 720
S007,22,Vrouwelijk,Rechts,2,23,right,no,100,rightarrow,313,true,focus,yes,1245170,Chrome,108.0,Windows,10,undefined,undefined,1280 x 720,1280 x 720
S007,22,Vrouwelijk,Rechts,2,24,right,no,100,rightarrow,347,true,focus,yes,1246286,Chrome,108.0,Windows,10,undefined,undefined,1280 x 720,1280 x 720
S007,22,Vrouwelijk,Rechts,2,25,left,no,100,leftarrow,656,true,focus,yes,1247725,Chrome,108.0,Windows,10,undefined,undefined,1280 x 720,1280 x 720
S007,22,Vrouwelijk,Rechts,2,26,right,no,100,rightarrow,359,true,focus,yes,1248857,Chrome,108.0,Windows,10,undefined,undefined,1280 x 720,1280 x 720
S007,22,Vrouwelijk,Rechts,2,27,left,yes,100,leftarrow,337,false,focus,yes,1249983,Chrome,108.0,Windows,10,undefined,undefined,1280 x 720,1280 x 720
S007,22,Vrouwelijk,Rechts,2,28,left,no,50,leftarrow,522,true,focus,yes,1251266,Chrome,108.0,Windows,10,undefined,undefined,1280 x 720,1280 x 720
S007,22,Vrouwelijk,Rechts,2,29,right,no,50,rightarrow,350,true,focus,yes,1252400,Chrome,108.0,Windows,10,undefined,undefined,1280 x 720,1280 x 720
S007,22,Vrouwelijk,Rechts,2,30,left,no,50,leftarrow,368,true,focus,yes,1253548,Chrome,108.0,Windows,10,undefined,undefined,1280 x 720,1280 x 720
S007,22,Vrouwelijk,Rechts,2,31,right,no,50,rightarrow,425,true,focus,yes,1254764,Chrome,108.0,Windows,10,undefined,undefined,1280 x 720,1280 x 720
S007,22,Vrouwelijk,Rechts,2,32,right,yes,50,undefined,null,true,focus,yes,1256803,Chrome,108.0,Windows,10,undefined,undefined,1280 x 720,1280 x 720
S007,22,Vrouwelijk,Rechts,2,33,left,yes,100,leftarrow,266,false,focus,yes,1257858,Chrome,108.0,Windows,10,undefined,undefined,1280 x 720,1280 x 720
S007,22,Vrouwelijk,Rechts,2,34,right,no,50,rightarrow,354,true,focus,yes,1258995,Chrome,108.0,Windows,10,undefined,undefined,1280 x 720,1280 x 720
S007,22,Vrouwelijk,Rechts,2,35,left,no,50,leftarrow,311,true,focus,yes,1260097,Chrome,108.0,Windows,10,undefined,undefined,1280 x 720,1280 x 720
S007,22,Vrouwelijk,Rechts,2,36,right,yes,50,undefined,null,true,focus,yes,1262146,Chrome,108.0,Windows,10,undefined,undefined,1280 x 720,1280 x 720
S007,22,Vrouwelijk,Rechts,2,37,right,no,100,rightarrow,442,true,focus,yes,1263373,Chrome,108.0,Windows,10,undefined,undefined,1280 x 720,1280 x 720
S007,22,Vrouwelijk,Rechts,2,38,left,no,100,leftarrow,331,true,focus,yes,1264482,Chrome,108.0,Windows,10,undefined,undefined,1280 x 720,1280 x 720
S007,22,Vrouwelijk,Rechts,2,39,right,no,100,rightarrow,302,true,focus,yes,1265577,Chrome,108.0,Windows,10,undefined,undefined,1280 x 720,1280 x 720
S007,22,Vrouwelijk,Rechts,2,40,left,no,100,leftarrow,384,true,focus,yes,1266757,Chrome,108.0,Windows,10,undefined,undefined,1280 x 720,1280 x 720
S007,22,Vrouwelijk,Rechts,2,41,left,yes,100,undefined,null,true,focus,yes,1268821,Chrome,108.0,Windows,10,undefined,undefined,1280 x 720,1280 x 720
S007,22,Vrouwelijk,Rechts,2,42,right,no,150,rightarrow,301,true,focus,yes,1269910,Chrome,108.0,Windows,10,undefined,undefined,1280 x 720,1280 x 720
S007,22,Vrouwelijk,Rechts,2,43,right,no,150,rightarrow,361,true,focus,yes,1271049,Chrome,108.0,Windows,10,undefined,undefined,1280 x 720,1280 x 720
S007,22,Vrouwelijk,Rechts,2,44,right,no,150,rightarrow,271,true,focus,yes,1272105,Chrome,108.0,Windows,10,undefined,undefined,1280 x 720,1280 x 720
S007,22,Vrouwelijk,Rechts,2,45,right,yes,150,rightarrow,236,false,focus,yes,1273123,Chrome,108.0,Windows,10,undefined,undefined,1280 x 720,1280 x 720
S007,22,Vrouwelijk,Rechts,2,46,left,no,100,leftarrow,286,true,focus,yes,1274178,Chrome,108.0,Windows,10,undefined,undefined,1280 x 720,1280 x 720
S007,22,Vrouwelijk,Rechts,2,47,left,no,100,leftarrow,321,true,focus,yes,1275294,Chrome,108.0,Windows,10,undefined,undefined,1280 x 720,1280 x 720
S007,22,Vrouwelijk,Rechts,2,48,left,no,100,leftarrow,416,true,focus,yes,1276475,Chrome,108.0,Windows,10,undefined,undefined,1280 x 720,1280 x 720
S007,22,Vrouwelijk,Rechts,2,49,left,no,100,leftarrow,352,true,focus,yes,1277621,Chrome,108.0,Windows,10,undefined,undefined,1280 x 720,1280 x 720
S007,22,Vrouwelijk,Rechts,2,50,left,no,100,leftarrow,323,true,focus,yes,1278722,Chrome,108.0,Windows,10,undefined,undefined,1280 x 720,1280 x 720
S007,22,Vrouwelijk,Rechts,2,51,right,no,100,rightarrow,390,true,focus,yes,1279901,Chrome,108.0,Windows,10,undefined,undefined,1280 x 720,1280 x 720
S007,22,Vrouwelijk,Rechts,2,52,right,no,100,rightarrow,374,true,focus,yes,1281061,Chrome,108.0,Windows,10,undefined,undefined,1280 x 720,1280 x 720
S007,22,Vrouwelijk,Rechts,2,53,right,yes,100,undefined,null,true,focus,yes,1283102,Chrome,108.0,Windows,10,undefined,undefined,1280 x 720,1280 x 720
S007,22,Vrouwelijk,Rechts,2,54,right,no,150,rightarrow,916,true,focus,yes,1284806,Chrome,108.0,Windows,10,undefined,undefined,1280 x 720,1280 x 720
S007,22,Vrouwelijk,Rechts,2,55,left,no,150,leftarrow,657,true,focus,yes,1286242,Chrome,108.0,Windows,10,undefined,undefined,1280 x 720,1280 x 720
S007,22,Vrouwelijk,Rechts,2,56,left,yes,150,undefined,null,true,focus,yes,1288288,Chrome,108.0,Windows,10,undefined,undefined,1280 x 720,1280 x 720
S007,22,Vrouwelijk,Rechts,2,57,left,no,200,undefined,null,false,focus,yes,1290332,Chrome,108.0,Windows,10,undefined,undefined,1280 x 720,1280 x 720
S007,22,Vrouwelijk,Rechts,2,58,right,no,200,undefined,null,false,focus,yes,1292387,Chrome,108.0,Windows,10,undefined,undefined,1280 x 720,1280 x 720
S007,22,Vrouwelijk,Rechts,2,59,left,no,200,leftarrow,676,true,focus,yes,1293852,Chrome,108.0,Windows,10,undefined,undefined,1280 x 720,1280 x 720
S007,22,Vrouwelijk,Rechts,2,60,left,no,200,leftarrow,469,true,focus,yes,1295105,Chrome,108.0,Windows,10,undefined,undefined,1280 x 720,1280 x 720
S007,22,Vrouwelijk,Rechts,2,61,right,no,200,rightarrow,286,true,focus,yes,1296178,Chrome,108.0,Windows,10,undefined,undefined,1280 x 720,1280 x 720
S007,22,Vrouwelijk,Rechts,2,62,right,yes,200,rightarrow,312,false,focus,yes,1297273,Chrome,108.0,Windows,10,undefined,undefined,1280 x 720,1280 x 720
S007,22,Vrouwelijk,Rechts,2,63,left,yes,150,leftarrow,378,false,focus,yes,1298440,Chrome,108.0,Windows,10,undefined,undefined,1280 x 720,1280 x 720
S007,22,Vrouwelijk,Rechts,2,64,right,no,100,rightarrow,349,true,focus,yes,1299583,Chrome,108.0,Windows,10,undefined,undefined,1280 x 720,1280 x 720
S007,22,Vrouwelijk,Rechts,2,65,left,yes,100,leftarrow,384,false,focus,yes,1300762,Chrome,108.0,Windows,10,undefined,undefined,1280 x 720,1280 x 720
S007,22,Vrouwelijk,Rechts,2,66,left,no,50,leftarrow,532,true,focus,yes,1302081,Chrome,108.0,Windows,10,undefined,undefined,1280 x 720,1280 x 720
S007,22,Vrouwelijk,Rechts,2,67,right,no,50,rightarrow,411,true,focus,yes,1303274,Chrome,108.0,Windows,10,undefined,undefined,1280 x 720,1280 x 720
S007,22,Vrouwelijk,Rechts,2,68,right,yes,50,undefined,null,true,focus,yes,1305300,Chrome,108.0,Windows,10,undefined,undefined,1280 x 720,1280 x 720
S007,22,Vrouwelijk,Rechts,2,69,right,no,100,rightarrow,393,true,focus,yes,1306481,Chrome,108.0,Windows,10,undefined,undefined,1280 x 720,1280 x 720
S007,22,Vrouwelijk,Rechts,2,70,right,no,100,rightarrow,363,true,focus,yes,1307640,Chrome,108.0,Windows,10,undefined,undefined,1280 x 720,1280 x 720
S007,22,Vrouwelijk,Rechts,2,71,left,no,100,leftarrow,458,true,focus,yes,1308882,Chrome,108.0,Windows,10,undefined,undefined,1280 x 720,1280 x 720
S007,22,Vrouwelijk,Rechts,2,72,left,no,100,leftarrow,326,true,focus,yes,1309975,Chrome,108.0,Windows,10,undefined,undefined,1280 x 720,1280 x 720
S007,22,Vrouwelijk,Rechts,2,73,right,yes,100,rightarrow,386,false,focus,yes,1311147,Chrome,108.0,Windows,10,undefined,undefined,1280 x 720,1280 x 720
S007,22,Vrouwelijk,Rechts,2,74,left,no,50,leftarrow,352,true,focus,yes,1312288,Chrome,108.0,Windows,10,undefined,undefined,1280 x 720,1280 x 720
S007,22,Vrouwelijk,Rechts,2,75,left,no,50,leftarrow,426,true,focus,yes,1313509,Chrome,108.0,Windows,10,undefined,undefined,1280 x 720,1280 x 720
S007,22,Vrouwelijk,Rechts,2,76,right,no,50,rightarrow,412,true,focus,yes,1314704,Chrome,108.0,Windows,10,undefined,undefined,1280 x 720,1280 x 720
S007,22,Vrouwelijk,Rechts,2,77,right,no,50,rightarrow,368,true,focus,yes,1315862,Chrome,108.0,Windows,10,undefined,undefined,1280 x 720,1280 x 720
S007,22,Vrouwelijk,Rechts,2,78,right,no,50,rightarrow,371,true,focus,yes,1317012,Chrome,108.0,Windows,10,undefined,undefined,1280 x 720,1280 x 720
S007,22,Vrouwelijk,Rechts,2,79,left,yes,50,undefined,null,true,focus,yes,1319061,Chrome,108.0,Windows,10,undefined,undefined,1280 x 720,1280 x 720
S007,22,Vrouwelijk,Rechts,2,80,left,no,100,leftarrow,321,true,focus,yes,1320169,Chrome,108.0,Windows,10,undefined,undefined,1280 x 720,1280 x 720
S007,22,Vrouwelijk,Rechts,2,81,left,no,100,leftarrow,623,true,focus,yes,1321585,Chrome,108.0,Windows,10,undefined,undefined,1280 x 720,1280 x 720
S007,22,Vrouwelijk,Rechts,2,82,right,no,100,rightarrow,303,true,focus,yes,1322680,Chrome,108.0,Windows,10,undefined,undefined,1280 x 720,1280 x 720
S007,22,Vrouwelijk,Rechts,2,83,right,no,100,rightarrow,408,true,focus,yes,1323886,Chrome,108.0,Windows,10,undefined,undefined,1280 x 720,1280 x 720
S007,22,Vrouwelijk,Rechts,2,84,left,no,100,leftarrow,374,true,focus,yes,1325040,Chrome,108.0,Windows,10,undefined,undefined,1280 x 720,1280 x 720
S007,22,Vrouwelijk,Rechts,2,85,left,no,100,leftarrow,374,true,focus,yes,1326198,Chrome,108.0,Windows,10,undefined,undefined,1280 x 720,1280 x 720
S007,22,Vrouwelijk,Rechts,2,86,right,no,100,rightarrow,397,true,focus,yes,1327360,Chrome,108.0,Windows,10,undefined,undefined,1280 x 720,1280 x 720
S007,22,Vrouwelijk,Rechts,2,87,right,yes,100,leftarrow,250,false,focus,yes,1328404,Chrome,108.0,Windows,10,undefined,undefined,1280 x 720,1280 x 720
S007,22,Vrouwelijk,Rechts,2,88,left,yes,50,leftarrow,442,false,focus,yes,1329631,Chrome,108.0,Windows,10,undefined,undefined,1280 x 720,1280 x 720
S007,22,Vrouwelijk,Rechts,2,89,left,yes,50,undefined,null,true,focus,yes,1331684,Chrome,108.0,Windows,10,undefined,undefined,1280 x 720,1280 x 720
S007,22,Vrouwelijk,Rechts,2,90,right,no,100,rightarrow,368,true,focus,yes,1332841,Chrome,108.0,Windows,10,undefined,undefined,1280 x 720,1280 x 720
S007,22,Vrouwelijk,Rechts,2,91,left,no,100,leftarrow,401,true,focus,yes,1334039,Chrome,108.0,Windows,10,undefined,undefined,1280 x 720,1280 x 720
S007,22,Vrouwelijk,Rechts,2,92,right,no,100,rightarrow,360,true,focus,yes,1335188,Chrome,108.0,Windows,10,undefined,undefined,1280 x 720,1280 x 720
S007,22,Vrouwelijk,Rechts,2,93,left,no,100,leftarrow,359,true,focus,yes,1336327,Chrome,108.0,Windows,10,undefined,undefined,1280 x 720,1280 x 720
S007,22,Vrouwelijk,Rechts,2,94,right,no,100,rightarrow,285,true,focus,yes,1337400,Chrome,108.0,Windows,10,undefined,undefined,1280 x 720,1280 x 720
S007,22,Vrouwelijk,Rechts,2,95,right,yes,100,undefined,null,true,focus,yes,1339439,Chrome,108.0,Windows,10,undefined,undefined,1280 x 720,1280 x 720
S007,22,Vrouwelijk,Rechts,2,96,left,no,150,undefined,null,false,focus,yes,1341480,Chrome,108.0,Windows,10,undefined,undefined,1280 x 720,1280 x 720
S007,22,Vrouwelijk,Rechts,2,97,left,yes,150,undefined,null,true,focus,yes,1343521,Chrome,108.0,Windows,10,undefined,undefined,1280 x 720,1280 x 720
S007,22,Vrouwelijk,Rechts,2,98,left,no,200,leftarrow,402,true,focus,yes,1344711,Chrome,108.0,Windows,10,undefined,undefined,1280 x 720,1280 x 720
S007,22,Vrouwelijk,Rechts,2,99,right,no,200,rightarrow,333,true,focus,yes,1345839,Chrome,108.0,Windows,10,undefined,undefined,1280 x 720,1280 x 720
S007,22,Vrouwelijk,Rechts,2,100,right,yes,200,rightarrow,347,false,focus,yes,1346953,Chrome,108.0,Windows,10,undefined,undefined,1280 x 720,1280 x 720
S007,22,Vrouwelijk,Rechts,2,101,left,no,150,leftarrow,299,true,focus,yes,1348034,Chrome,108.0,Windows,10,undefined,undefined,1280 x 720,1280 x 720
S007,22,Vrouwelijk,Rechts,2,102,right,no,150,rightarrow,376,true,focus,yes,1349204,Chrome,108.0,Windows,10,undefined,undefined,1280 x 720,1280 x 720
S007,22,Vrouwelijk,Rechts,2,103,right,no,150,rightarrow,326,true,focus,yes,1350315,Chrome,108.0,Windows,10,undefined,undefined,1280 x 720,1280 x 720
S007,22,Vrouwelijk,Rechts,2,104,left,no,150,leftarrow,364,true,focus,yes,1351465,Chrome,108.0,Windows,10,undefined,undefined,1280 x 720,1280 x 720
S007,22,Vrouwelijk,Rechts,2,105,left,no,150,leftarrow,350,true,focus,yes,1352582,Chrome,108.0,Windows,10,undefined,undefined,1280 x 720,1280 x 720
S007,22,Vrouwelijk,Rechts,2,106,left,no,150,leftarrow,548,true,focus,yes,1353898,Chrome,108.0,Windows,10,undefined,undefined,1280 x 720,1280 x 720
S007,22,Vrouwelijk,Rechts,2,107,right,yes,150,rightarrow,424,false,focus,yes,1355097,Chrome,108.0,Windows,10,undefined,undefined,1280 x 720,1280 x 720
S007,22,Vrouwelijk,Rechts,2,108,left,yes,100,undefined,null,true,focus,yes,1357139,Chrome,108.0,Windows,10,undefined,undefined,1280 x 720,1280 x 720
S007,22,Vrouwelijk,Rechts,2,109,left,no,150,leftarrow,415,true,focus,yes,1358342,Chrome,108.0,Windows,10,undefined,undefined,1280 x 720,1280 x 720
S007,22,Vrouwelijk,Rechts,2,110,right,no,150,rightarrow,351,true,focus,yes,1359460,Chrome,108.0,Windows,10,undefined,undefined,1280 x 720,1280 x 720
S007,22,Vrouwelijk,Rechts,2,111,right,no,150,rightarrow,345,true,focus,yes,1360584,Chrome,108.0,Windows,10,undefined,undefined,1280 x 720,1280 x 720
S007,22,Vrouwelijk,Rechts,2,112,right,no,150,rightarrow,315,true,focus,yes,1361668,Chrome,108.0,Windows,10,undefined,undefined,1280 x 720,1280 x 720
S007,22,Vrouwelijk,Rechts,2,113,left,no,150,leftarrow,398,true,focus,yes,1362852,Chrome,108.0,Windows,10,undefined,undefined,1280 x 720,1280 x 720
S007,22,Vrouwelijk,Rechts,2,114,right,yes,150,rightarrow,327,false,focus,yes,1363961,Chrome,108.0,Windows,10,undefined,undefined,1280 x 720,1280 x 720
S007,22,Vrouwelijk,Rechts,2,115,right,no,100,rightarrow,309,true,focus,yes,1365065,Chrome,108.0,Windows,10,undefined,undefined,1280 x 720,1280 x 720
S007,22,Vrouwelijk,Rechts,2,116,right,no,100,rightarrow,393,true,focus,yes,1366249,Chrome,108.0,Windows,10,undefined,undefined,1280 x 720,1280 x 720
S007,22,Vrouwelijk,Rechts,2,117,left,no,100,leftarrow,341,true,focus,yes,1367358,Chrome,108.0,Windows,10,undefined,undefined,1280 x 720,1280 x 720
S007,22,Vrouwelijk,Rechts,2,118,left,yes,100,undefined,null,true,focus,yes,1369409,Chrome,108.0,Windows,10,undefined,undefined,1280 x 720,1280 x 720
S007,22,Vrouwelijk,Rechts,2,119,right,no,150,rightarrow,304,true,focus,yes,1370498,Chrome,108.0,Windows,10,undefined,undefined,1280 x 720,1280 x 720
S007,22,Vrouwelijk,Rechts,2,120,left,no,150,leftarrow,385,true,focus,yes,1371678,Chrome,108.0,Windows,10,undefined,undefined,1280 x 720,1280 x 720
S007,22,Vrouwelijk,Rechts,2,121,left,no,150,leftarrow,358,true,focus,yes,1372816,Chrome,108.0,Windows,10,undefined,undefined,1280 x 720,1280 x 720
S007,22,Vrouwelijk,Rechts,2,122,left,no,150,leftarrow,326,true,focus,yes,1373931,Chrome,108.0,Windows,10,undefined,undefined,1280 x 720,1280 x 720
S007,22,Vrouwelijk,Rechts,2,123,left,no,150,leftarrow,356,true,focus,yes,1375076,Chrome,108.0,Windows,10,undefined,undefined,1280 x 720,1280 x 720
S007,22,Vrouwelijk,Rechts,2,124,right,no,150,leftarrow,306,false,focus,yes,1376171,Chrome,108.0,Windows,10,undefined,undefined,1280 x 720,1280 x 720
S007,22,Vrouwelijk,Rechts,2,125,right,no,150,rightarrow,395,true,focus,yes,1377358,Chrome,108.0,Windows,10,undefined,undefined,1280 x 720,1280 x 720
S007,22,Vrouwelijk,Rechts,2,126,right,no,150,rightarrow,363,true,focus,yes,1378498,Chrome,108.0,Windows,10,undefined,undefined,1280 x 720,1280 x 720
S007,22,Vrouwelijk,Rechts,2,127,right,yes,150,rightarrow,318,false,focus,yes,1379600,Chrome,108.0,Windows,10,undefined,undefined,1280 x 720,1280 x 720
S007,22,Vrouwelijk,Rechts,2,128,left,yes,100,undefined,null,true,focus,yes,1381650,Chrome,108.0,Windows,10,undefined,undefined,1280 x 720,1280 x 720
S007,22,Vrouwelijk,Rechts,3,1,right,yes,150,rightarrow,357,false,focus,yes,1400961,Chrome,108.0,Windows,10,undefined,undefined,1280 x 720,1280 x 720
S007,22,Vrouwelijk,Rechts,3,2,left,no,100,leftarrow,380,true,focus,yes,1402126,Chrome,108.0,Windows,10,undefined,undefined,1280 x 720,1280 x 720
S007,22,Vrouwelijk,Rechts,3,3,right,no,100,rightarrow,449,true,focus,yes,1403364,Chrome,108.0,Windows,10,undefined,undefined,1280 x 720,1280 x 720
S007,22,Vrouwelijk,Rechts,3,4,left,no,100,leftarrow,446,true,focus,yes,1404603,Chrome,108.0,Windows,10,undefined,undefined,1280 x 720,1280 x 720
S007,22,Vrouwelijk,Rechts,3,5,right,no,100,rightarrow,304,true,focus,yes,1405703,Chrome,108.0,Windows,10,undefined,undefined,1280 x 720,1280 x 720
S007,22,Vrouwelijk,Rechts,3,6,left,no,100,leftarrow,313,true,focus,yes,1406811,Chrome,108.0,Windows,10,undefined,undefined,1280 x 720,1280 x 720
S007,22,Vrouwelijk,Rechts,3,7,left,yes,100,leftarrow,355,false,focus,yes,1407939,Chrome,108.0,Windows,10,undefined,undefined,1280 x 720,1280 x 720
S007,22,Vrouwelijk,Rechts,3,8,right,no,50,rightarrow,334,true,focus,yes,1409065,Chrome,108.0,Windows,10,undefined,undefined,1280 x 720,1280 x 720
S007,22,Vrouwelijk,Rechts,3,9,right,no,50,rightarrow,358,true,focus,yes,1410199,Chrome,108.0,Windows,10,undefined,undefined,1280 x 720,1280 x 720
S007,22,Vrouwelijk,Rechts,3,10,left,no,50,leftarrow,450,true,focus,yes,1411439,Chrome,108.0,Windows,10,undefined,undefined,1280 x 720,1280 x 720
S007,22,Vrouwelijk,Rechts,3,11,left,yes,50,undefined,null,true,focus,yes,1413488,Chrome,108.0,Windows,10,undefined,undefined,1280 x 720,1280 x 720
S007,22,Vrouwelijk,Rechts,3,12,left,no,100,leftarrow,420,true,focus,yes,1414695,Chrome,108.0,Windows,10,undefined,undefined,1280 x 720,1280 x 720
S007,22,Vrouwelijk,Rechts,3,13,right,yes,100,rightarrow,341,false,focus,yes,1415810,Chrome,108.0,Windows,10,undefined,undefined,1280 x 720,1280 x 720
S007,22,Vrouwelijk,Rechts,3,14,right,no,50,leftarrow,272,false,focus,yes,1416872,Chrome,108.0,Windows,10,undefined,undefined,1280 x 720,1280 x 720
S007,22,Vrouwelijk,Rechts,3,15,left,no,50,leftarrow,330,true,focus,yes,1418001,Chrome,108.0,Windows,10,undefined,undefined,1280 x 720,1280 x 720
S007,22,Vrouwelijk,Rechts,3,16,right,no,50,rightarrow,335,true,focus,yes,1419119,Chrome,108.0,Windows,10,undefined,undefined,1280 x 720,1280 x 720
S007,22,Vrouwelijk,Rechts,3,17,left,no,50,leftarrow,335,true,focus,yes,1420250,Chrome,108.0,Windows,10,undefined,undefined,1280 x 720,1280 x 720
S007,22,Vrouwelijk,Rechts,3,18,left,no,50,leftarrow,361,true,focus,yes,1421402,Chrome,108.0,Windows,10,undefined,undefined,1280 x 720,1280 x 720
S007,22,Vrouwelijk,Rechts,3,19,right,no,50,rightarrow,311,true,focus,yes,1422501,Chrome,108.0,Windows,10,undefined,undefined,1280 x 720,1280 x 720
S007,22,Vrouwelijk,Rechts,3,20,right,no,50,leftarrow,363,false,focus,yes,1423649,Chrome,108.0,Windows,10,undefined,undefined,1280 x 720,1280 x 720
S007,22,Vrouwelijk,Rechts,3,21,left,no,50,leftarrow,785,true,focus,yes,1425228,Chrome,108.0,Windows,10,undefined,undefined,1280 x 720,1280 x 720
S007,22,Vrouwelijk,Rechts,3,22,right,no,50,rightarrow,631,true,focus,yes,1426642,Chrome,108.0,Windows,10,undefined,undefined,1280 x 720,1280 x 720
S007,22,Vrouwelijk,Rechts,3,23,left,yes,50,undefined,null,true,focus,yes,1428682,Chrome,108.0,Windows,10,undefined,undefined,1280 x 720,1280 x 720
S007,22,Vrouwelijk,Rechts,3,24,right,yes,100,leftarrow,314,false,focus,yes,1429784,Chrome,108.0,Windows,10,undefined,undefined,1280 x 720,1280 x 720
S007,22,Vrouwelijk,Rechts,3,25,left,no,50,leftarrow,295,true,focus,yes,1430866,Chrome,108.0,Windows,10,undefined,undefined,1280 x 720,1280 x 720
S007,22,Vrouwelijk,Rechts,3,26,left,no,50,leftarrow,406,true,focus,yes,1432061,Chrome,108.0,Windows,10,undefined,undefined,1280 x 720,1280 x 720
S007,22,Vrouwelijk,Rechts,3,27,left,no,50,leftarrow,372,true,focus,yes,1433221,Chrome,108.0,Windows,10,undefined,undefined,1280 x 720,1280 x 720
S007,22,Vrouwelijk,Rechts,3,28,right,no,50,rightarrow,391,true,focus,yes,1434400,Chrome,108.0,Windows,10,undefined,undefined,1280 x 720,1280 x 720
S007,22,Vrouwelijk,Rechts,3,29,right,yes,50,undefined,null,true,focus,yes,1436445,Chrome,108.0,Windows,10,undefined,undefined,1280 x 720,1280 x 720
S007,22,Vrouwelijk,Rechts,3,30,right,no,100,rightarrow,300,true,focus,yes,1437532,Chrome,108.0,Windows,10,undefined,undefined,1280 x 720,1280 x 720
S007,22,Vrouwelijk,Rechts,3,31,right,no,100,rightarrow,337,true,focus,yes,1438653,Chrome,108.0,Windows,10,undefined,undefined,1280 x 720,1280 x 720
S007,22,Vrouwelijk,Rechts,3,32,left,yes,100,leftarrow,409,false,focus,yes,1439856,Chrome,108.0,Windows,10,undefined,undefined,1280 x 720,1280 x 720
S007,22,Vrouwelijk,Rechts,3,33,left,no,50,leftarrow,448,true,focus,yes,1441100,Chrome,108.0,Windows,10,undefined,undefined,1280 x 720,1280 x 720
S007,22,Vrouwelijk,Rechts,3,34,left,yes,50,undefined,null,true,focus,yes,1443151,Chrome,108.0,Windows,10,undefined,undefined,1280 x 720,1280 x 720
S007,22,Vrouwelijk,Rechts,3,35,left,no,100,leftarrow,444,true,focus,yes,1444384,Chrome,108.0,Windows,10,undefined,undefined,1280 x 720,1280 x 720
S007,22,Vrouwelijk,Rechts,3,36,left,no,100,leftarrow,375,true,focus,yes,1445557,Chrome,108.0,Windows,10,undefined,undefined,1280 x 720,1280 x 720
S007,22,Vrouwelijk,Rechts,3,37,right,no,100,rightarrow,448,true,focus,yes,1446780,Chrome,108.0,Windows,10,undefined,undefined,1280 x 720,1280 x 720
S007,22,Vrouwelijk,Rechts,3,38,right,no,100,leftarrow,371,false,focus,yes,1447941,Chrome,108.0,Windows,10,undefined,undefined,1280 x 720,1280 x 720
S007,22,Vrouwelijk,Rechts,3,39,right,no,100,rightarrow,381,true,focus,yes,1449115,Chrome,108.0,Windows,10,undefined,undefined,1280 x 720,1280 x 720
S007,22,Vrouwelijk,Rechts,3,40,right,yes,100,undefined,null,true,focus,yes,1451154,Chrome,108.0,Windows,10,undefined,undefined,1280 x 720,1280 x 720
S007,22,Vrouwelijk,Rechts,3,41,left,yes,150,undefined,null,true,focus,yes,1453199,Chrome,108.0,Windows,10,undefined,undefined,1280 x 720,1280 x 720
S007,22,Vrouwelijk,Rechts,3,42,right,no,200,rightarrow,344,true,focus,yes,1454328,Chrome,108.0,Windows,10,undefined,undefined,1280 x 720,1280 x 720
S007,22,Vrouwelijk,Rechts,3,43,right,no,200,rightarrow,287,true,focus,yes,1455399,Chrome,108.0,Windows,10,undefined,undefined,1280 x 720,1280 x 720
S007,22,Vrouwelijk,Rechts,3,44,right,yes,200,rightarrow,330,false,focus,yes,1456514,Chrome,108.0,Windows,10,undefined,undefined,1280 x 720,1280 x 720
S007,22,Vrouwelijk,Rechts,3,45,left,no,150,leftarrow,389,true,focus,yes,1457687,Chrome,108.0,Windows,10,undefined,undefined,1280 x 720,1280 x 720
S007,22,Vrouwelijk,Rechts,3,46,left,no,150,leftarrow,372,true,focus,yes,1458849,Chrome,108.0,Windows,10,undefined,undefined,1280 x 720,1280 x 720
S007,22,Vrouwelijk,Rechts,3,47,right,no,150,rightarrow,400,true,focus,yes,1460034,Chrome,108.0,Windows,10,undefined,undefined,1280 x 720,1280 x 720
S007,22,Vrouwelijk,Rechts,3,48,left,no,150,leftarrow,418,true,focus,yes,1461233,Chrome,108.0,Windows,10,undefined,undefined,1280 x 720,1280 x 720
S007,22,Vrouwelijk,Rechts,3,49,left,no,150,leftarrow,469,true,focus,yes,1462491,Chrome,108.0,Windows,10,undefined,undefined,1280 x 720,1280 x 720
S007,22,Vrouwelijk,Rechts,3,50,right,yes,150,rightarrow,431,false,focus,yes,1463715,Chrome,108.0,Windows,10,undefined,undefined,1280 x 720,1280 x 720
S007,22,Vrouwelijk,Rechts,3,51,right,no,100,rightarrow,438,true,focus,yes,1464949,Chrome,108.0,Windows,10,undefined,undefined,1280 x 720,1280 x 720
S007,22,Vrouwelijk,Rechts,3,52,left,no,100,leftarrow,447,true,focus,yes,1466179,Chrome,108.0,Windows,10,undefined,undefined,1280 x 720,1280 x 720
S007,22,Vrouwelijk,Rechts,3,53,right,no,100,rightarrow,442,true,focus,yes,1467413,Chrome,108.0,Windows,10,undefined,undefined,1280 x 720,1280 x 720
S007,22,Vrouwelijk,Rechts,3,54,left,no,100,leftarrow,417,true,focus,yes,1468619,Chrome,108.0,Windows,10,undefined,undefined,1280 x 720,1280 x 720
S007,22,Vrouwelijk,Rechts,3,55,left,yes,100,undefined,null,true,focus,yes,1470668,Chrome,108.0,Windows,10,undefined,undefined,1280 x 720,1280 x 720
S007,22,Vrouwelijk,Rechts,3,56,right,no,150,rightarrow,336,true,focus,yes,1471793,Chrome,108.0,Windows,10,undefined,undefined,1280 x 720,1280 x 720
S007,22,Vrouwelijk,Rechts,3,57,left,no,150,leftarrow,425,true,focus,yes,1473008,Chrome,108.0,Windows,10,undefined,undefined,1280 x 720,1280 x 720
S007,22,Vrouwelijk,Rechts,3,58,right,no,150,rightarrow,343,true,focus,yes,1474147,Chrome,108.0,Windows,10,undefined,undefined,1280 x 720,1280 x 720
S007,22,Vrouwelijk,Rechts,3,59,left,no,150,leftarrow,320,true,focus,yes,1475252,Chrome,108.0,Windows,10,undefined,undefined,1280 x 720,1280 x 720
S007,22,Vrouwelijk,Rechts,3,60,left,no,150,rightarrow,280,false,focus,yes,1476324,Chrome,108.0,Windows,10,undefined,undefined,1280 x 720,1280 x 720
S007,22,Vrouwelijk,Rechts,3,61,right,no,150,rightarrow,339,true,focus,yes,1477449,Chrome,108.0,Windows,10,undefined,undefined,1280 x 720,1280 x 720
S007,22,Vrouwelijk,Rechts,3,62,right,yes,150,undefined,null,true,focus,yes,1479495,Chrome,108.0,Windows,10,undefined,undefined,1280 x 720,1280 x 720
S007,22,Vrouwelijk,Rechts,3,63,left,yes,200,leftarrow,445,false,focus,yes,1480730,Chrome,108.0,Windows,10,undefined,undefined,1280 x 720,1280 x 720
S007,22,Vrouwelijk,Rechts,3,64,right,no,150,rightarrow,322,true,focus,yes,1481837,Chrome,108.0,Windows,10,undefined,undefined,1280 x 720,1280 x 720
S007,22,Vrouwelijk,Rechts,3,65,right,no,150,rightarrow,330,true,focus,yes,1482959,Chrome,108.0,Windows,10,undefined,undefined,1280 x 720,1280 x 720
S007,22,Vrouwelijk,Rechts,3,66,right,no,150,rightarrow,311,true,focus,yes,1484068,Chrome,108.0,Windows,10,undefined,undefined,1280 x 720,1280 x 720
S007,22,Vrouwelijk,Rechts,3,67,left,no,150,rightarrow,356,false,focus,yes,1485209,Chrome,108.0,Windows,10,undefined,undefined,1280 x 720,1280 x 720
S007,22,Vrouwelijk,Rechts,3,68,right,no,150,rightarrow,301,true,focus,yes,1486297,Chrome,108.0,Windows,10,undefined,undefined,1280 x 720,1280 x 720
S007,22,Vrouwelijk,Rechts,3,69,left,no,150,leftarrow,440,true,focus,yes,1487530,Chrome,108.0,Windows,10,undefined,undefined,1280 x 720,1280 x 720
S007,22,Vrouwelijk,Rechts,3,70,left,yes,150,leftarrow,398,false,focus,yes,1488712,Chrome,108.0,Windows,10,undefined,undefined,1280 x 720,1280 x 720
S007,22,Vrouwelijk,Rechts,3,71,right,yes,100,rightarrow,317,false,focus,yes,1489827,Chrome,108.0,Windows,10,undefined,undefined,1280 x 720,1280 x 720
S007,22,Vrouwelijk,Rechts,3,72,left,no,50,leftarrow,481,true,focus,yes,1491105,Chrome,108.0,Windows,10,undefined,undefined,1280 x 720,1280 x 720
S007,22,Vrouwelijk,Rechts,3,73,right,no,50,rightarrow,393,true,focus,yes,1492289,Chrome,108.0,Windows,10,undefined,undefined,1280 x 720,1280 x 720
S007,22,Vrouwelijk,Rechts,3,74,right,yes,50,undefined,null,true,focus,yes,1494328,Chrome,108.0,Windows,10,undefined,undefined,1280 x 720,1280 x 720
S007,22,Vrouwelijk,Rechts,3,75,left,no,100,leftarrow,391,true,focus,yes,1495508,Chrome,108.0,Windows,10,undefined,undefined,1280 x 720,1280 x 720
S007,22,Vrouwelijk,Rechts,3,76,left,no,100,leftarrow,396,true,focus,yes,1496686,Chrome,108.0,Windows,10,undefined,undefined,1280 x 720,1280 x 720
S007,22,Vrouwelijk,Rechts,3,77,right,no,100,rightarrow,435,true,focus,yes,1497888,Chrome,108.0,Windows,10,undefined,undefined,1280 x 720,1280 x 720
S007,22,Vrouwelijk,Rechts,3,78,left,no,100,leftarrow,372,true,focus,yes,1499038,Chrome,108.0,Windows,10,undefined,undefined,1280 x 720,1280 x 720
S007,22,Vrouwelijk,Rechts,3,79,right,no,100,rightarrow,409,true,focus,yes,1500237,Chrome,108.0,Windows,10,undefined,undefined,1280 x 720,1280 x 720
S007,22,Vrouwelijk,Rechts,3,80,left,yes,100,undefined,null,true,focus,yes,1502276,Chrome,108.0,Windows,10,undefined,undefined,1280 x 720,1280 x 720
S007,22,Vrouwelijk,Rechts,3,81,right,no,150,rightarrow,360,true,focus,yes,1503426,Chrome,108.0,Windows,10,undefined,undefined,1280 x 720,1280 x 720
S007,22,Vrouwelijk,Rechts,3,82,left,no,150,leftarrow,355,true,focus,yes,1504565,Chrome,108.0,Windows,10,undefined,undefined,1280 x 720,1280 x 720
S007,22,Vrouwelijk,Rechts,3,83,right,no,150,rightarrow,310,true,focus,yes,1505664,Chrome,108.0,Windows,10,undefined,undefined,1280 x 720,1280 x 720
S007,22,Vrouwelijk,Rechts,3,84,left,yes,150,leftarrow,345,false,focus,yes,1506799,Chrome,108.0,Windows,10,undefined,undefined,1280 x 720,1280 x 720
S007,22,Vrouwelijk,Rechts,3,85,right,yes,100,rightarrow,403,false,focus,yes,1507989,Chrome,108.0,Windows,10,undefined,undefined,1280 x 720,1280 x 720
S007,22,Vrouwelijk,Rechts,3,86,left,no,50,leftarrow,404,true,focus,yes,1509173,Chrome,108.0,Windows,10,undefined,undefined,1280 x 720,1280 x 720
S007,22,Vrouwelijk,Rechts,3,87,right,no,50,rightarrow,350,true,focus,yes,1510311,Chrome,108.0,Windows,10,undefined,undefined,1280 x 720,1280 x 720
S007,22,Vrouwelijk,Rechts,3,88,left,no,50,leftarrow,283,true,focus,yes,1511389,Chrome,108.0,Windows,10,undefined,undefined,1280 x 720,1280 x 720
S007,22,Vrouwelijk,Rechts,3,89,left,no,50,leftarrow,446,true,focus,yes,1512617,Chrome,108.0,Windows,10,undefined,undefined,1280 x 720,1280 x 720
S007,22,Vrouwelijk,Rechts,3,90,right,no,50,rightarrow,352,true,focus,yes,1513765,Chrome,108.0,Windows,10,undefined,undefined,1280 x 720,1280 x 720
S007,22,Vrouwelijk,Rechts,3,91,right,no,50,rightarrow,394,true,focus,yes,1514948,Chrome,108.0,Windows,10,undefined,undefined,1280 x 720,1280 x 720
S007,22,Vrouwelijk,Rechts,3,92,left,no,50,leftarrow,366,true,focus,yes,1516099,Chrome,108.0,Windows,10,undefined,undefined,1280 x 720,1280 x 720
S007,22,Vrouwelijk,Rechts,3,93,left,no,50,leftarrow,367,true,focus,yes,1517252,Chrome,108.0,Windows,10,undefined,undefined,1280 x 720,1280 x 720
S007,22,Vrouwelijk,Rechts,3,94,right,no,50,rightarrow,416,true,focus,yes,1518450,Chrome,108.0,Windows,10,undefined,undefined,1280 x 720,1280 x 720
S007,22,Vrouwelijk,Rechts,3,95,left,yes,50,leftarrow,299,false,focus,yes,1519525,Chrome,108.0,Windows,10,undefined,undefined,1280 x 720,1280 x 720
S007,22,Vrouwelijk,Rechts,3,96,right,yes,50,undefined,null,true,focus,yes,1521579,Chrome,108.0,Windows,10,undefined,undefined,1280 x 720,1280 x 720
S007,22,Vrouwelijk,Rechts,3,97,right,no,100,rightarrow,333,true,focus,yes,1522701,Chrome,108.0,Windows,10,undefined,undefined,1280 x 720,1280 x 720
S007,22,Vrouwelijk,Rechts,3,98,left,no,100,leftarrow,372,true,focus,yes,1523843,Chrome,108.0,Windows,10,undefined,undefined,1280 x 720,1280 x 720
S007,22,Vrouwelijk,Rechts,3,99,right,no,100,rightarrow,390,true,focus,yes,1525025,Chrome,108.0,Windows,10,undefined,undefined,1280 x 720,1280 x 720
S007,22,Vrouwelijk,Rechts,3,100,right,yes,100,undefined,null,true,focus,yes,1527068,Chrome,108.0,Windows,10,undefined,undefined,1280 x 720,1280 x 720
S007,22,Vrouwelijk,Rechts,3,101,right,no,150,rightarrow,251,true,focus,yes,1528104,Chrome,108.0,Windows,10,undefined,undefined,1280 x 720,1280 x 720
S007,22,Vrouwelijk,Rechts,3,102,left,no,150,leftarrow,411,true,focus,yes,1529314,Chrome,108.0,Windows,10,undefined,undefined,1280 x 720,1280 x 720
S007,22,Vrouwelijk,Rechts,3,103,left,yes,150,leftarrow,383,false,focus,yes,1530481,Chrome,108.0,Windows,10,undefined,undefined,1280 x 720,1280 x 720
S007,22,Vrouwelijk,Rechts,3,104,left,no,100,leftarrow,485,true,focus,yes,1531749,Chrome,108.0,Windows,10,undefined,undefined,1280 x 720,1280 x 720
S007,22,Vrouwelijk,Rechts,3,105,left,no,100,leftarrow,397,true,focus,yes,1532928,Chrome,108.0,Windows,10,undefined,undefined,1280 x 720,1280 x 720
S007,22,Vrouwelijk,Rechts,3,106,left,yes,100,undefined,null,true,focus,yes,1534976,Chrome,108.0,Windows,10,undefined,undefined,1280 x 720,1280 x 720
S007,22,Vrouwelijk,Rechts,3,107,left,no,150,leftarrow,402,true,focus,yes,1536166,Chrome,108.0,Windows,10,undefined,undefined,1280 x 720,1280 x 720
S007,22,Vrouwelijk,Rechts,3,108,right,yes,150,undefined,null,true,focus,yes,1538229,Chrome,108.0,Windows,10,undefined,undefined,1280 x 720,1280 x 720
S007,22,Vrouwelijk,Rechts,3,109,left,no,200,leftarrow,307,true,focus,yes,1539321,Chrome,108.0,Windows,10,undefined,undefined,1280 x 720,1280 x 720
S007,22,Vrouwelijk,Rechts,3,110,right,no,200,rightarrow,394,true,focus,yes,1540508,Chrome,108.0,Windows,10,undefined,undefined,1280 x 720,1280 x 720
S007,22,Vrouwelijk,Rechts,3,111,right,no,200,rightarrow,382,true,focus,yes,1541674,Chrome,108.0,Windows,10,undefined,undefined,1280 x 720,1280 x 720
S007,22,Vrouwelijk,Rechts,3,112,right,no,200,rightarrow,393,true,focus,yes,1542862,Chrome,108.0,Windows,10,undefined,undefined,1280 x 720,1280 x 720
S007,22,Vrouwelijk,Rechts,3,113,left,no,200,leftarrow,457,true,focus,yes,1544100,Chrome,108.0,Windows,10,undefined,undefined,1280 x 720,1280 x 720
S007,22,Vrouwelijk,Rechts,3,114,left,no,200,leftarrow,368,true,focus,yes,1545247,Chrome,108.0,Windows,10,undefined,undefined,1280 x 720,1280 x 720
S007,22,Vrouwelijk,Rechts,3,115,left,yes,200,leftarrow,400,false,focus,yes,1546436,Chrome,108.0,Windows,10,undefined,undefined,1280 x 720,1280 x 720
S007,22,Vrouwelijk,Rechts,3,116,right,no,150,rightarrow,489,true,focus,yes,1547705,Chrome,108.0,Windows,10,undefined,undefined,1280 x 720,1280 x 720
S007,22,Vrouwelijk,Rechts,3,117,left,no,150,leftarrow,620,true,focus,yes,1549109,Chrome,108.0,Windows,10,undefined,undefined,1280 x 720,1280 x 720
S007,22,Vrouwelijk,Rechts,3,118,right,no,150,rightarrow,373,true,focus,yes,1550247,Chrome,108.0,Windows,10,undefined,undefined,1280 x 720,1280 x 720
S007,22,Vrouwelijk,Rechts,3,119,right,no,150,rightarrow,405,true,focus,yes,1551443,Chrome,108.0,Windows,10,undefined,undefined,1280 x 720,1280 x 720
S007,22,Vrouwelijk,Rechts,3,120,right,yes,150,undefined,null,true,focus,yes,1553498,Chrome,108.0,Windows,10,undefined,undefined,1280 x 720,1280 x 720
S007,22,Vrouwelijk,Rechts,3,121,right,no,200,rightarrow,333,true,focus,yes,1554620,Chrome,108.0,Windows,10,undefined,undefined,1280 x 720,1280 x 720
S007,22,Vrouwelijk,Rechts,3,122,left,no,200,leftarrow,411,true,focus,yes,1555812,Chrome,108.0,Windows,10,undefined,undefined,1280 x 720,1280 x 720
S007,22,Vrouwelijk,Rechts,3,123,left,no,200,leftarrow,392,true,focus,yes,1556988,Chrome,108.0,Windows,10,undefined,undefined,1280 x 720,1280 x 720
S007,22,Vrouwelijk,Rechts,3,124,right,no,200,rightarrow,383,true,focus,yes,1558153,Chrome,108.0,Windows,10,undefined,undefined,1280 x 720,1280 x 720
S007,22,Vrouwelijk,Rechts,3,125,left,yes,200,undefined,null,true,focus,yes,1560205,Chrome,108.0,Windows,10,undefined,undefined,1280 x 720,1280 x 720
S007,22,Vrouwelijk,Rechts,3,126,right,yes,250,rightarrow,277,false,focus,yes,1561256,Chrome,108.0,Windows,10,undefined,undefined,1280 x 720,1280 x 720
S007,22,Vrouwelijk,Rechts,3,127,right,no,200,rightarrow,320,true,focus,yes,1562370,Chrome,108.0,Windows,10,undefined,undefined,1280 x 720,1280 x 720
S007,22,Vrouwelijk,Rechts,3,128,left,no,200,leftarrow,419,true,focus,yes,1563586,Chrome,108.0,Windows,10,undefined,undefined,1280 x 720,1280 x 720
S007,22,Vrouwelijk,Rechts,4,1,left,no,200,leftarrow,425,true,focus,yes,1583211,Chrome,108.0,Windows,10,undefined,undefined,1280 x 720,1280 x 720
S007,22,Vrouwelijk,Rechts,4,2,right,yes,200,rightarrow,283,false,focus,yes,1584277,Chrome,108.0,Windows,10,undefined,undefined,1280 x 720,1280 x 720
S007,22,Vrouwelijk,Rechts,4,3,right,no,150,rightarrow,412,true,focus,yes,1585471,Chrome,108.0,Windows,10,undefined,undefined,1280 x 720,1280 x 720
S007,22,Vrouwelijk,Rechts,4,4,left,no,150,leftarrow,450,true,focus,yes,1586717,Chrome,108.0,Windows,10,undefined,undefined,1280 x 720,1280 x 720
S007,22,Vrouwelijk,Rechts,4,5,left,no,150,leftarrow,455,true,focus,yes,1587961,Chrome,108.0,Windows,10,undefined,undefined,1280 x 720,1280 x 720
S007,22,Vrouwelijk,Rechts,4,6,right,no,150,rightarrow,352,true,focus,yes,1589097,Chrome,108.0,Windows,10,undefined,undefined,1280 x 720,1280 x 720
S007,22,Vrouwelijk,Rechts,4,7,right,no,150,rightarrow,473,true,focus,yes,1590358,Chrome,108.0,Windows,10,undefined,undefined,1280 x 720,1280 x 720
S007,22,Vrouwelijk,Rechts,4,8,left,yes,150,undefined,null,true,focus,yes,1592378,Chrome,108.0,Windows,10,undefined,undefined,1280 x 720,1280 x 720
S007,22,Vrouwelijk,Rechts,4,9,right,no,200,rightarrow,270,true,focus,yes,1593437,Chrome,108.0,Windows,10,undefined,undefined,1280 x 720,1280 x 720
S007,22,Vrouwelijk,Rechts,4,10,left,no,200,leftarrow,394,true,focus,yes,1594611,Chrome,108.0,Windows,10,undefined,undefined,1280 x 720,1280 x 720
S007,22,Vrouwelijk,Rechts,4,11,right,yes,200,rightarrow,364,false,focus,yes,1595771,Chrome,108.0,Windows,10,undefined,undefined,1280 x 720,1280 x 720
S007,22,Vrouwelijk,Rechts,4,12,left,no,150,leftarrow,444,true,focus,yes,1596997,Chrome,108.0,Windows,10,undefined,undefined,1280 x 720,1280 x 720
S007,22,Vrouwelijk,Rechts,4,13,left,yes,150,leftarrow,382,false,focus,yes,1598159,Chrome,108.0,Windows,10,undefined,undefined,1280 x 720,1280 x 720
S007,22,Vrouwelijk,Rechts,4,14,right,no,100,rightarrow,354,true,focus,yes,1599310,Chrome,108.0,Windows,10,undefined,undefined,1280 x 720,1280 x 720
S007,22,Vrouwelijk,Rechts,4,15,left,no,100,leftarrow,506,true,focus,yes,1600604,Chrome,108.0,Windows,10,undefined,undefined,1280 x 720,1280 x 720
S007,22,Vrouwelijk,Rechts,4,16,right,no,100,rightarrow,380,true,focus,yes,1601767,Chrome,108.0,Windows,10,undefined,undefined,1280 x 720,1280 x 720
S007,22,Vrouwelijk,Rechts,4,17,left,no,100,leftarrow,477,true,focus,yes,1603044,Chrome,108.0,Windows,10,undefined,undefined,1280 x 720,1280 x 720
S007,22,Vrouwelijk,Rechts,4,18,left,no,100,leftarrow,1107,true,focus,yes,1604933,Chrome,108.0,Windows,10,undefined,undefined,1280 x 720,1280 x 720
S007,22,Vrouwelijk,Rechts,4,19,left,yes,100,undefined,null,true,focus,yes,1606983,Chrome,108.0,Windows,10,undefined,undefined,1280 x 720,1280 x 720
S007,22,Vrouwelijk,Rechts,4,20,right,no,150,rightarrow,270,true,focus,yes,1608042,Chrome,108.0,Windows,10,undefined,undefined,1280 x 720,1280 x 720
S007,22,Vrouwelijk,Rechts,4,21,right,yes,150,rightarrow,387,false,focus,yes,1609212,Chrome,108.0,Windows,10,undefined,undefined,1280 x 720,1280 x 720
S007,22,Vrouwelijk,Rechts,4,22,right,no,100,rightarrow,404,true,focus,yes,1610404,Chrome,108.0,Windows,10,undefined,undefined,1280 x 720,1280 x 720
S007,22,Vrouwelijk,Rechts,4,23,right,no,100,rightarrow,379,true,focus,yes,1611573,Chrome,108.0,Windows,10,undefined,undefined,1280 x 720,1280 x 720
S007,22,Vrouwelijk,Rechts,4,24,left,no,100,leftarrow,358,true,focus,yes,1612712,Chrome,108.0,Windows,10,undefined,undefined,1280 x 720,1280 x 720
S007,22,Vrouwelijk,Rechts,4,25,right,no,100,rightarrow,348,true,focus,yes,1613846,Chrome,108.0,Windows,10,undefined,undefined,1280 x 720,1280 x 720
S007,22,Vrouwelijk,Rechts,4,26,left,no,100,leftarrow,314,true,focus,yes,1614945,Chrome,108.0,Windows,10,undefined,undefined,1280 x 720,1280 x 720
S007,22,Vrouwelijk,Rechts,4,27,right,no,100,rightarrow,340,true,focus,yes,1616082,Chrome,108.0,Windows,10,undefined,undefined,1280 x 720,1280 x 720
S007,22,Vrouwelijk,Rechts,4,28,left,no,100,leftarrow,305,true,focus,yes,1617183,Chrome,108.0,Windows,10,undefined,undefined,1280 x 720,1280 x 720
S007,22,Vrouwelijk,Rechts,4,29,left,yes,100,leftarrow,346,false,focus,yes,1618321,Chrome,108.0,Windows,10,undefined,undefined,1280 x 720,1280 x 720
S007,22,Vrouwelijk,Rechts,4,31,right,yes,50,undefined,null,true,focus,yes,1621472,Chrome,108.0,Windows,10,undefined,undefined,1280 x 720,1280 x 720
S007,22,Vrouwelijk,Rechts,4,30,right,no,50,rightarrow,329,true,focus,yes,1619435,Chrome,108.0,Windows,10,undefined,undefined,1280 x 720,1280 x 720
S007,22,Vrouwelijk,Rechts,4,32,left,no,100,leftarrow,360,true,focus,yes,1622622,Chrome,108.0,Windows,10,undefined,undefined,1280 x 720,1280 x 720
S007,22,Vrouwelijk,Rechts,4,33,left,no,100,leftarrow,377,true,focus,yes,1623798,Chrome,108.0,Windows,10,undefined,undefined,1280 x 720,1280 x 720
S007,22,Vrouwelijk,Rechts,4,34,right,no,100,rightarrow,519,true,focus,yes,1625102,Chrome,108.0,Windows,10,undefined,undefined,1280 x 720,1280 x 720
S007,22,Vrouwelijk,Rechts,4,35,left,no,100,leftarrow,412,true,focus,yes,1626300,Chrome,108.0,Windows,10,undefined,undefined,1280 x 720,1280 x 720
S007,22,Vrouwelijk,Rechts,4,36,left,no,100,leftarrow,349,true,focus,yes,1627429,Chrome,108.0,Windows,10,undefined,undefined,1280 x 720,1280 x 720
S007,22,Vrouwelijk,Rechts,4,37,right,no,100,rightarrow,399,true,focus,yes,1628615,Chrome,108.0,Windows,10,undefined,undefined,1280 x 720,1280 x 720
S007,22,Vrouwelijk,Rechts,4,38,right,no,100,rightarrow,421,true,focus,yes,1629814,Chrome,108.0,Windows,10,undefined,undefined,1280 x 720,1280 x 720
S007,22,Vrouwelijk,Rechts,4,39,right,yes,100,undefined,null,true,focus,yes,1631873,Chrome,108.0,Windows,10,undefined,undefined,1280 x 720,1280 x 720
S007,22,Vrouwelijk,Rechts,4,40,left,yes,150,leftarrow,389,false,focus,yes,1633047,Chrome,108.0,Windows,10,undefined,undefined,1280 x 720,1280 x 720
S007,22,Vrouwelijk,Rechts,4,41,right,no,100,rightarrow,455,true,focus,yes,1634289,Chrome,108.0,Windows,10,undefined,undefined,1280 x 720,1280 x 720
S007,22,Vrouwelijk,Rechts,4,42,right,yes,100,undefined,null,true,focus,yes,1636327,Chrome,108.0,Windows,10,undefined,undefined,1280 x 720,1280 x 720
S007,22,Vrouwelijk,Rechts,4,43,left,no,150,leftarrow,402,true,focus,yes,1637517,Chrome,108.0,Windows,10,undefined,undefined,1280 x 720,1280 x 720
S007,22,Vrouwelijk,Rechts,4,44,left,no,150,leftarrow,402,true,focus,yes,1638695,Chrome,108.0,Windows,10,undefined,undefined,1280 x 720,1280 x 720
S007,22,Vrouwelijk,Rechts,4,45,right,no,150,rightarrow,410,true,focus,yes,1639896,Chrome,108.0,Windows,10,undefined,undefined,1280 x 720,1280 x 720
S007,22,Vrouwelijk,Rechts,4,46,left,no,150,leftarrow,341,true,focus,yes,1641020,Chrome,108.0,Windows,10,undefined,undefined,1280 x 720,1280 x 720
S007,22,Vrouwelijk,Rechts,4,47,right,no,150,rightarrow,384,true,focus,yes,1642195,Chrome,108.0,Windows,10,undefined,undefined,1280 x 720,1280 x 720
S007,22,Vrouwelijk,Rechts,4,48,left,yes,150,leftarrow,331,false,focus,yes,1643307,Chrome,108.0,Windows,10,undefined,undefined,1280 x 720,1280 x 720
S007,22,Vrouwelijk,Rechts,4,49,right,no,100,rightarrow,294,true,focus,yes,1644382,Chrome,108.0,Windows,10,undefined,undefined,1280 x 720,1280 x 720
S007,22,Vrouwelijk,Rechts,4,50,left,no,100,leftarrow,473,true,focus,yes,1645642,Chrome,108.0,Windows,10,undefined,undefined,1280 x 720,1280 x 720
S007,22,Vrouwelijk,Rechts,4,51,left,no,100,leftarrow,461,true,focus,yes,1646886,Chrome,108.0,Windows,10,undefined,undefined,1280 x 720,1280 x 720
S007,22,Vrouwelijk,Rechts,4,52,left,yes,100,undefined,null,true,focus,yes,1648938,Chrome,108.0,Windows,10,undefined,undefined,1280 x 720,1280 x 720
S007,22,Vrouwelijk,Rechts,4,53,right,no,150,rightarrow,277,true,focus,yes,1650002,Chrome,108.0,Windows,10,undefined,undefined,1280 x 720,1280 x 720
S007,22,Vrouwelijk,Rechts,4,54,right,yes,150,undefined,null,true,focus,yes,1652060,Chrome,108.0,Windows,10,undefined,undefined,1280 x 720,1280 x 720
S007,22,Vrouwelijk,Rechts,4,55,right,no,200,rightarrow,395,true,focus,yes,1653245,Chrome,108.0,Windows,10,undefined,undefined,1280 x 720,1280 x 720
S007,22,Vrouwelijk,Rechts,4,56,left,no,200,leftarrow,413,true,focus,yes,1654439,Chrome,108.0,Windows,10,undefined,undefined,1280 x 720,1280 x 720
S007,22,Vrouwelijk,Rechts,4,57,left,no,200,leftarrow,371,true,focus,yes,1655602,Chrome,108.0,Windows,10,undefined,undefined,1280 x 720,1280 x 720
S007,22,Vrouwelijk,Rechts,4,58,left,no,200,leftarrow,359,true,focus,yes,1656742,Chrome,108.0,Windows,10,undefined,undefined,1280 x 720,1280 x 720
S007,22,Vrouwelijk,Rechts,4,59,right,no,200,rightarrow,564,true,focus,yes,1658092,Chrome,108.0,Windows,10,undefined,undefined,1280 x 720,1280 x 720
S007,22,Vrouwelijk,Rechts,4,60,right,no,200,rightarrow,617,true,focus,yes,1659493,Chrome,108.0,Windows,10,undefined,undefined,1280 x 720,1280 x 720
S007,22,Vrouwelijk,Rechts,4,61,left,no,200,leftarrow,421,true,focus,yes,1660692,Chrome,108.0,Windows,10,undefined,undefined,1280 x 720,1280 x 720
S007,22,Vrouwelijk,Rechts,4,62,right,yes,200,rightarrow,353,false,focus,yes,1661830,Chrome,108.0,Windows,10,undefined,undefined,1280 x 720,1280 x 720
S007,22,Vrouwelijk,Rechts,4,63,right,no,150,rightarrow,394,true,focus,yes,1662989,Chrome,108.0,Windows,10,undefined,undefined,1280 x 720,1280 x 720
S007,22,Vrouwelijk,Rechts,4,64,left,yes,150,leftarrow,332,false,focus,yes,1664103,Chrome,108.0,Windows,10,undefined,undefined,1280 x 720,1280 x 720
S007,22,Vrouwelijk,Rechts,4,65,left,yes,100,undefined,null,true,focus,yes,1666154,Chrome,108.0,Windows,10,undefined,undefined,1280 x 720,1280 x 720
S007,22,Vrouwelijk,Rechts,4,66,left,no,150,leftarrow,440,true,focus,yes,1667380,Chrome,108.0,Windows,10,undefined,undefined,1280 x 720,1280 x 720
S007,22,Vrouwelijk,Rechts,4,67,right,yes,150,rightarrow,352,false,focus,yes,1668516,Chrome,108.0,Windows,10,undefined,undefined,1280 x 720,1280 x 720
S007,22,Vrouwelijk,Rechts,4,68,right,no,100,rightarrow,424,true,focus,yes,1669721,Chrome,108.0,Windows,10,undefined,undefined,1280 x 720,1280 x 720
S007,22,Vrouwelijk,Rechts,4,69,right,no,100,rightarrow,407,true,focus,yes,1670917,Chrome,108.0,Windows,10,undefined,undefined,1280 x 720,1280 x 720
S007,22,Vrouwelijk,Rechts,4,70,left,no,100,leftarrow,458,true,focus,yes,1672161,Chrome,108.0,Windows,10,undefined,undefined,1280 x 720,1280 x 720
S007,22,Vrouwelijk,Rechts,4,71,right,no,100,rightarrow,408,true,focus,yes,1673356,Chrome,108.0,Windows,10,undefined,undefined,1280 x 720,1280 x 720
S007,22,Vrouwelijk,Rechts,4,72,left,no,100,leftarrow,378,true,focus,yes,1674520,Chrome,108.0,Windows,10,undefined,undefined,1280 x 720,1280 x 720
S007,22,Vrouwelijk,Rechts,4,73,right,yes,100,undefined,null,true,focus,yes,1676563,Chrome,108.0,Windows,10,undefined,undefined,1280 x 720,1280 x 720
S007,22,Vrouwelijk,Rechts,4,74,right,no,150,rightarrow,291,true,focus,yes,1677644,Chrome,108.0,Windows,10,undefined,undefined,1280 x 720,1280 x 720
S007,22,Vrouwelijk,Rechts,4,75,left,no,150,leftarrow,335,true,focus,yes,1678767,Chrome,108.0,Windows,10,undefined,undefined,1280 x 720,1280 x 720
S007,22,Vrouwelijk,Rechts,4,76,right,no,150,rightarrow,356,true,focus,yes,1679918,Chrome,108.0,Windows,10,undefined,undefined,1280 x 720,1280 x 720
S007,22,Vrouwelijk,Rechts,4,77,left,no,150,leftarrow,296,true,focus,yes,1681007,Chrome,108.0,Windows,10,undefined,undefined,1280 x 720,1280 x 720
S007,22,Vrouwelijk,Rechts,4,78,right,no,150,rightarrow,290,true,focus,yes,1682098,Chrome,108.0,Windows,10,undefined,undefined,1280 x 720,1280 x 720
S007,22,Vrouwelijk,Rechts,4,79,left,yes,150,leftarrow,338,false,focus,yes,1683231,Chrome,108.0,Windows,10,undefined,undefined,1280 x 720,1280 x 720
S007,22,Vrouwelijk,Rechts,4,80,left,no,100,leftarrow,426,true,focus,yes,1684448,Chrome,108.0,Windows,10,undefined,undefined,1280 x 720,1280 x 720
S007,22,Vrouwelijk,Rechts,4,81,right,no,100,rightarrow,374,true,focus,yes,1685607,Chrome,108.0,Windows,10,undefined,undefined,1280 x 720,1280 x 720
S007,22,Vrouwelijk,Rechts,4,82,right,yes,100,rightarrow,355,false,focus,yes,1686735,Chrome,108.0,Windows,10,undefined,undefined,1280 x 720,1280 x 720
S007,22,Vrouwelijk,Rechts,4,83,left,no,50,leftarrow,427,true,focus,yes,1687949,Chrome,108.0,Windows,10,undefined,undefined,1280 x 720,1280 x 720
S007,22,Vrouwelijk,Rechts,4,84,left,no,50,leftarrow,370,true,focus,yes,1689110,Chrome,108.0,Windows,10,undefined,undefined,1280 x 720,1280 x 720
S007,22,Vrouwelijk,Rechts,4,85,right,no,50,rightarrow,457,true,focus,yes,1690354,Chrome,108.0,Windows,10,undefined,undefined,1280 x 720,1280 x 720
S007,22,Vrouwelijk,Rechts,4,86,left,yes,50,undefined,null,true,focus,yes,1692404,Chrome,108.0,Windows,10,undefined,undefined,1280 x 720,1280 x 720
S007,22,Vrouwelijk,Rechts,4,87,right,no,100,rightarrow,371,true,focus,yes,1693560,Chrome,108.0,Windows,10,undefined,undefined,1280 x 720,1280 x 720
S007,22,Vrouwelijk,Rechts,4,88,left,no,100,leftarrow,34,true,focus,yes,1694384,Chrome,108.0,Windows,10,undefined,undefined,1280 x 720,1280 x 720
S007,22,Vrouwelijk,Rechts,4,89,left,no,100,leftarrow,349,true,focus,yes,1695516,Chrome,108.0,Windows,10,undefined,undefined,1280 x 720,1280 x 720
S007,22,Vrouwelijk,Rechts,4,90,right,yes,100,rightarrow,291,false,focus,yes,1696589,Chrome,108.0,Windows,10,undefined,undefined,1280 x 720,1280 x 720
S007,22,Vrouwelijk,Rechts,4,91,left,yes,50,undefined,null,true,focus,yes,1698646,Chrome,108.0,Windows,10,undefined,undefined,1280 x 720,1280 x 720
S007,22,Vrouwelijk,Rechts,4,92,right,no,100,rightarrow,355,true,focus,yes,1699790,Chrome,108.0,Windows,10,undefined,undefined,1280 x 720,1280 x 720
S007,22,Vrouwelijk,Rechts,4,93,left,no,100,leftarrow,314,true,focus,yes,1700894,Chrome,108.0,Windows,10,undefined,undefined,1280 x 720,1280 x 720
S007,22,Vrouwelijk,Rechts,4,94,right,no,100,undefined,null,false,focus,yes,1702939,Chrome,108.0,Windows,10,undefined,undefined,1280 x 720,1280 x 720
S007,22,Vrouwelijk,Rechts,4,95,right,no,100,undefined,null,false,focus,yes,1704998,Chrome,108.0,Windows,10,undefined,undefined,1280 x 720,1280 x 720
S007,22,Vrouwelijk,Rechts,4,96,left,no,100,undefined,null,false,focus,yes,1707043,Chrome,108.0,Windows,10,undefined,undefined,1280 x 720,1280 x 720
S007,22,Vrouwelijk,Rechts,4,97,left,no,100,undefined,null,false,focus,yes,1709097,Chrome,108.0,Windows,10,undefined,undefined,1280 x 720,1280 x 720
S007,22,Vrouwelijk,Rechts,4,98,right,no,100,rightarrow,247,true,focus,yes,1710135,Chrome,108.0,Windows,10,undefined,undefined,1280 x 720,1280 x 720
S007,22,Vrouwelijk,Rechts,4,99,left,yes,100,leftarrow,307,false,focus,yes,1711232,Chrome,108.0,Windows,10,undefined,undefined,1280 x 720,1280 x 720
S007,22,Vrouwelijk,Rechts,4,100,right,no,50,rightarrow,344,true,focus,yes,1712368,Chrome,108.0,Windows,10,undefined,undefined,1280 x 720,1280 x 720
S007,22,Vrouwelijk,Rechts,4,101,right,yes,50,undefined,null,true,focus,yes,1714424,Chrome,108.0,Windows,10,undefined,undefined,1280 x 720,1280 x 720
S007,22,Vrouwelijk,Rechts,4,102,right,no,100,rightarrow,287,true,focus,yes,1715496,Chrome,108.0,Windows,10,undefined,undefined,1280 x 720,1280 x 720
S007,22,Vrouwelijk,Rechts,4,103,left,no,100,leftarrow,328,true,focus,yes,1716622,Chrome,108.0,Windows,10,undefined,undefined,1280 x 720,1280 x 720
S007,22,Vrouwelijk,Rechts,4,104,left,no,100,leftarrow,392,true,focus,yes,1717800,Chrome,108.0,Windows,10,undefined,undefined,1280 x 720,1280 x 720
S007,22,Vrouwelijk,Rechts,4,105,right,no,100,rightarrow,364,true,focus,yes,1718954,Chrome,108.0,Windows,10,undefined,undefined,1280 x 720,1280 x 720
S007,22,Vrouwelijk,Rechts,4,106,right,yes,100,rightarrow,370,false,focus,yes,1720106,Chrome,108.0,Windows,10,undefined,undefined,1280 x 720,1280 x 720
S007,22,Vrouwelijk,Rechts,4,107,left,yes,50,undefined,null,true,focus,yes,1722163,Chrome,108.0,Windows,10,undefined,undefined,1280 x 720,1280 x 720
S007,22,Vrouwelijk,Rechts,4,108,right,no,100,rightarrow,437,true,focus,yes,1723386,Chrome,108.0,Windows,10,undefined,undefined,1280 x 720,1280 x 720
S007,22,Vrouwelijk,Rechts,4,109,left,no,100,leftarrow,345,true,focus,yes,1724516,Chrome,108.0,Windows,10,undefined,undefined,1280 x 720,1280 x 720
S007,22,Vrouwelijk,Rechts,4,110,left,no,100,leftarrow,378,true,focus,yes,1725672,Chrome,108.0,Windows,10,undefined,undefined,1280 x 720,1280 x 720
S007,22,Vrouwelijk,Rechts,4,111,left,no,100,leftarrow,335,true,focus,yes,1726807,Chrome,108.0,Windows,10,undefined,undefined,1280 x 720,1280 x 720
S007,22,Vrouwelijk,Rechts,4,112,right,no,100,rightarrow,522,true,focus,yes,1728109,Chrome,108.0,Windows,10,undefined,undefined,1280 x 720,1280 x 720
S007,22,Vrouwelijk,Rechts,4,113,right,yes,100,undefined,null,true,focus,yes,1730178,Chrome,108.0,Windows,10,undefined,undefined,1280 x 720,1280 x 720
S007,22,Vrouwelijk,Rechts,4,114,right,no,150,rightarrow,389,true,focus,yes,1731355,Chrome,108.0,Windows,10,undefined,undefined,1280 x 720,1280 x 720
S007,22,Vrouwelijk,Rechts,4,115,left,yes,150,leftarrow,385,false,focus,yes,1732529,Chrome,108.0,Windows,10,undefined,undefined,1280 x 720,1280 x 720
S007,22,Vrouwelijk,Rechts,4,116,left,no,100,leftarrow,450,true,focus,yes,1733776,Chrome,108.0,Windows,10,undefined,undefined,1280 x 720,1280 x 720
S007,22,Vrouwelijk,Rechts,4,117,right,no,100,rightarrow,322,true,focus,yes,1734875,Chrome,108.0,Windows,10,undefined,undefined,1280 x 720,1280 x 720
S007,22,Vrouwelijk,Rechts,4,118,left,no,100,leftarrow,337,true,focus,yes,1736001,Chrome,108.0,Windows,10,undefined,undefined,1280 x 720,1280 x 720
S007,22,Vrouwelijk,Rechts,4,119,left,no,100,leftarrow,431,true,focus,yes,1737225,Chrome,108.0,Windows,10,undefined,undefined,1280 x 720,1280 x 720
S007,22,Vrouwelijk,Rechts,4,120,right,no,100,rightarrow,399,true,focus,yes,1738415,Chrome,108.0,Windows,10,undefined,undefined,1280 x 720,1280 x 720
S007,22,Vrouwelijk,Rechts,4,121,left,no,100,leftarrow,467,true,focus,yes,1739678,Chrome,108.0,Windows,10,undefined,undefined,1280 x 720,1280 x 720
S007,22,Vrouwelijk,Rechts,4,122,right,no,100,rightarrow,388,true,focus,yes,1740857,Chrome,108.0,Windows,10,undefined,undefined,1280 x 720,1280 x 720
S007,22,Vrouwelijk,Rechts,4,123,right,no,100,rightarrow,390,true,focus,yes,1742038,Chrome,108.0,Windows,10,undefined,undefined,1280 x 720,1280 x 720
S007,22,Vrouwelijk,Rechts,4,124,left,no,100,leftarrow,309,true,focus,yes,1743137,Chrome,108.0,Windows,10,undefined,undefined,1280 x 720,1280 x 720
S007,22,Vrouwelijk,Rechts,4,125,left,no,100,leftarrow,443,true,focus,yes,1744369,Chrome,108.0,Windows,10,undefined,undefined,1280 x 720,1280 x 720
S007,22,Vrouwelijk,Rechts,4,126,left,yes,100,leftarrow,384,false,focus,yes,1745551,Chrome,108.0,Windows,10,undefined,undefined,1280 x 720,1280 x 720
S007,22,Vrouwelijk,Rechts,4,127,right,no,50,rightarrow,349,true,focus,yes,1746698,Chrome,108.0,Windows,10,undefined,undefined,1280 x 720,1280 x 720
S007,22,Vrouwelijk,Rechts,4,128,right,yes,50,undefined,null,true,focus,yes,1748722,Chrome,108.0,Windows,10,undefined,undefined,1280 x 720,1280 x 720
S007,22,Vrouwelijk,Rechts,5,1,right,yes,100,undefined,null,true,focus,yes,1769093,Chrome,108.0,Windows,10,undefined,undefined,1280 x 720,1280 x 720
S007,22,Vrouwelijk,Rechts,5,2,right,no,150,rightarrow,426,true,focus,yes,1770308,Chrome,108.0,Windows,10,undefined,undefined,1280 x 720,1280 x 720
S007,22,Vrouwelijk,Rechts,5,3,left,no,150,leftarrow,387,true,focus,yes,1771479,Chrome,108.0,Windows,10,undefined,undefined,1280 x 720,1280 x 720
S007,22,Vrouwelijk,Rechts,5,4,left,no,150,leftarrow,406,true,focus,yes,1772673,Chrome,108.0,Windows,10,undefined,undefined,1280 x 720,1280 x 720
S007,22,Vrouwelijk,Rechts,5,5,left,no,150,leftarrow,391,true,focus,yes,1773855,Chrome,108.0,Windows,10,undefined,undefined,1280 x 720,1280 x 720
S007,22,Vrouwelijk,Rechts,5,6,right,no,150,rightarrow,352,true,focus,yes,1774993,Chrome,108.0,Windows,10,undefined,undefined,1280 x 720,1280 x 720
S007,22,Vrouwelijk,Rechts,5,7,right,no,150,rightarrow,312,true,focus,yes,1776102,Chrome,108.0,Windows,10,undefined,undefined,1280 x 720,1280 x 720
S007,22,Vrouwelijk,Rechts,5,8,left,yes,150,leftarrow,375,false,focus,yes,1777266,Chrome,108.0,Windows,10,undefined,undefined,1280 x 720,1280 x 720
S007,22,Vrouwelijk,Rechts,5,9,left,no,100,leftarrow,400,true,focus,yes,1778449,Chrome,108.0,Windows,10,undefined,undefined,1280 x 720,1280 x 720
S007,22,Vrouwelijk,Rechts,5,10,left,no,100,leftarrow,398,true,focus,yes,1779644,Chrome,108.0,Windows,10,undefined,undefined,1280 x 720,1280 x 720
S007,22,Vrouwelijk,Rechts,5,11,right,no,100,rightarrow,354,true,focus,yes,1780791,Chrome,108.0,Windows,10,undefined,undefined,1280 x 720,1280 x 720
S007,22,Vrouwelijk,Rechts,5,12,right,no,100,rightarrow,278,true,focus,yes,1781860,Chrome,108.0,Windows,10,undefined,undefined,1280 x 720,1280 x 720
S007,22,Vrouwelijk,Rechts,5,13,right,no,100,rightarrow,392,true,focus,yes,1783041,Chrome,108.0,Windows,10,undefined,undefined,1280 x 720,1280 x 720
S007,22,Vrouwelijk,Rechts,5,14,left,yes,100,leftarrow,414,false,focus,yes,1784245,Chrome,108.0,Windows,10,undefined,undefined,1280 x 720,1280 x 720
S007,22,Vrouwelijk,Rechts,5,15,right,yes,50,undefined,null,true,focus,yes,1786305,Chrome,108.0,Windows,10,undefined,undefined,1280 x 720,1280 x 720
S007,22,Vrouwelijk,Rechts,5,16,left,no,100,leftarrow,475,true,focus,yes,1787570,Chrome,108.0,Windows,10,undefined,undefined,1280 x 720,1280 x 720
S007,22,Vrouwelijk,Rechts,5,17,right,no,100,rightarrow,377,true,focus,yes,1788741,Chrome,108.0,Windows,10,undefined,undefined,1280 x 720,1280 x 720
S007,22,Vrouwelijk,Rechts,5,18,right,no,100,rightarrow,518,true,focus,yes,1790027,Chrome,108.0,Windows,10,undefined,undefined,1280 x 720,1280 x 720
S007,22,Vrouwelijk,Rechts,5,19,left,no,100,leftarrow,361,true,focus,yes,1791174,Chrome,108.0,Windows,10,undefined,undefined,1280 x 720,1280 x 720
S007,22,Vrouwelijk,Rechts,5,20,left,yes,100,leftarrow,341,false,focus,yes,1792302,Chrome,108.0,Windows,10,undefined,undefined,1280 x 720,1280 x 720
S007,22,Vrouwelijk,Rechts,5,21,right,yes,50,rightarrow,338,false,focus,yes,1793430,Chrome,108.0,Windows,10,undefined,undefined,1280 x 720,1280 x 720
S007,22,Vrouwelijk,Rechts,5,22,left,no,50,leftarrow,506,true,focus,yes,1794735,Chrome,108.0,Windows,10,undefined,undefined,1280 x 720,1280 x 720
S007,22,Vrouwelijk,Rechts,5,23,right,no,50,rightarrow,369,true,focus,yes,1795902,Chrome,108.0,Windows,10,undefined,undefined,1280 x 720,1280 x 720
S007,22,Vrouwelijk,Rechts,5,24,left,no,50,leftarrow,381,true,focus,yes,1797071,Chrome,108.0,Windows,10,undefined,undefined,1280 x 720,1280 x 720
S007,22,Vrouwelijk,Rechts,5,25,right,no,50,rightarrow,297,true,focus,yes,1798163,Chrome,108.0,Windows,10,undefined,undefined,1280 x 720,1280 x 720
S007,22,Vrouwelijk,Rechts,5,26,left,no,50,leftarrow,334,true,focus,yes,1799281,Chrome,108.0,Windows,10,undefined,undefined,1280 x 720,1280 x 720
S007,22,Vrouwelijk,Rechts,5,27,right,no,50,rightarrow,332,true,focus,yes,1800405,Chrome,108.0,Windows,10,undefined,undefined,1280 x 720,1280 x 720
S007,22,Vrouwelijk,Rechts,5,28,left,no,50,leftarrow,300,true,focus,yes,1801502,Chrome,108.0,Windows,10,undefined,undefined,1280 x 720,1280 x 720
S007,22,Vrouwelijk,Rechts,5,29,right,yes,50,rightarrow,421,false,focus,yes,1802704,Chrome,108.0,Windows,10,undefined,undefined,1280 x 720,1280 x 720
S007,22,Vrouwelijk,Rechts,5,30,left,no,50,leftarrow,813,true,focus,yes,1804304,Chrome,108.0,Windows,10,undefined,undefined,1280 x 720,1280 x 720
S007,22,Vrouwelijk,Rechts,5,31,left,yes,50,undefined,null,true,focus,yes,1806357,Chrome,108.0,Windows,10,undefined,undefined,1280 x 720,1280 x 720
S007,22,Vrouwelijk,Rechts,5,32,right,no,100,rightarrow,380,true,focus,yes,1807528,Chrome,108.0,Windows,10,undefined,undefined,1280 x 720,1280 x 720
S007,22,Vrouwelijk,Rechts,5,33,right,no,100,rightarrow,361,true,focus,yes,1808668,Chrome,108.0,Windows,10,undefined,undefined,1280 x 720,1280 x 720
S007,22,Vrouwelijk,Rechts,5,34,left,no,100,leftarrow,504,true,focus,yes,1809958,Chrome,108.0,Windows,10,undefined,undefined,1280 x 720,1280 x 720
S007,22,Vrouwelijk,Rechts,5,35,right,no,100,rightarrow,412,true,focus,yes,1811158,Chrome,108.0,Windows,10,undefined,undefined,1280 x 720,1280 x 720
S007,22,Vrouwelijk,Rechts,5,36,left,no,100,leftarrow,489,true,focus,yes,1812448,Chrome,108.0,Windows,10,undefined,undefined,1280 x 720,1280 x 720
S007,22,Vrouwelijk,Rechts,5,37,left,no,100,leftarrow,521,true,focus,yes,1813751,Chrome,108.0,Windows,10,undefined,undefined,1280 x 720,1280 x 720
S007,22,Vrouwelijk,Rechts,5,38,left,yes,100,undefined,null,true,focus,yes,1815805,Chrome,108.0,Windows,10,undefined,undefined,1280 x 720,1280 x 720
S007,22,Vrouwelijk,Rechts,5,39,right,yes,150,rightarrow,343,false,focus,yes,1816939,Chrome,108.0,Windows,10,undefined,undefined,1280 x 720,1280 x 720
S007,22,Vrouwelijk,Rechts,5,40,right,no,100,rightarrow,448,true,focus,yes,1818175,Chrome,108.0,Windows,10,undefined,undefined,1280 x 720,1280 x 720
S007,22,Vrouwelijk,Rechts,5,41,right,no,100,rightarrow,384,true,focus,yes,1819355,Chrome,108.0,Windows,10,undefined,undefined,1280 x 720,1280 x 720
S007,22,Vrouwelijk,Rechts,5,42,left,no,100,leftarrow,420,true,focus,yes,1820566,Chrome,108.0,Windows,10,undefined,undefined,1280 x 720,1280 x 720
S007,22,Vrouwelijk,Rechts,5,43,left,no,100,leftarrow,389,true,focus,yes,1821746,Chrome,108.0,Windows,10,undefined,undefined,1280 x 720,1280 x 720
S007,22,Vrouwelijk,Rechts,5,44,right,no,100,rightarrow,385,true,focus,yes,1822917,Chrome,108.0,Windows,10,undefined,undefined,1280 x 720,1280 x 720
S007,22,Vrouwelijk,Rechts,5,45,left,yes,100,undefined,null,true,focus,yes,1824975,Chrome,108.0,Windows,10,undefined,undefined,1280 x 720,1280 x 720
S007,22,Vrouwelijk,Rechts,5,46,right,yes,150,rightarrow,263,false,focus,yes,1826027,Chrome,108.0,Windows,10,undefined,undefined,1280 x 720,1280 x 720
S007,22,Vrouwelijk,Rechts,5,47,left,no,100,leftarrow,337,true,focus,yes,1827158,Chrome,108.0,Windows,10,undefined,undefined,1280 x 720,1280 x 720
S007,22,Vrouwelijk,Rechts,5,48,right,no,100,rightarrow,404,true,focus,yes,1828345,Chrome,108.0,Windows,10,undefined,undefined,1280 x 720,1280 x 720
S007,22,Vrouwelijk,Rechts,5,49,left,no,100,leftarrow,531,true,focus,yes,1829664,Chrome,108.0,Windows,10,undefined,undefined,1280 x 720,1280 x 720
S007,22,Vrouwelijk,Rechts,5,50,left,no,100,leftarrow,497,true,focus,yes,1830926,Chrome,108.0,Windows,10,undefined,undefined,1280 x 720,1280 x 720
S007,22,Vrouwelijk,Rechts,5,51,right,no,100,leftarrow,393,false,focus,yes,1832104,Chrome,108.0,Windows,10,undefined,undefined,1280 x 720,1280 x 720
S007,22,Vrouwelijk,Rechts,5,52,right,no,100,rightarrow,402,true,focus,yes,1833289,Chrome,108.0,Windows,10,undefined,undefined,1280 x 720,1280 x 720
S007,22,Vrouwelijk,Rechts,5,53,right,no,100,rightarrow,439,true,focus,yes,1834516,Chrome,108.0,Windows,10,undefined,undefined,1280 x 720,1280 x 720
S007,22,Vrouwelijk,Rechts,5,54,left,yes,100,undefined,null,true,focus,yes,1836551,Chrome,108.0,Windows,10,undefined,undefined,1280 x 720,1280 x 720
S007,22,Vrouwelijk,Rechts,5,55,left,no,150,leftarrow,448,true,focus,yes,1837789,Chrome,108.0,Windows,10,undefined,undefined,1280 x 720,1280 x 720
S007,22,Vrouwelijk,Rechts,5,56,right,yes,150,rightarrow,386,false,focus,yes,1838969,Chrome,108.0,Windows,10,undefined,undefined,1280 x 720,1280 x 720
S007,22,Vrouwelijk,Rechts,5,57,right,no,100,rightarrow,333,true,focus,yes,1840092,Chrome,108.0,Windows,10,undefined,undefined,1280 x 720,1280 x 720
S007,22,Vrouwelijk,Rechts,5,58,right,no,100,rightarrow,539,true,focus,yes,1841427,Chrome,108.0,Windows,10,undefined,undefined,1280 x 720,1280 x 720
S007,22,Vrouwelijk,Rechts,5,59,left,no,100,leftarrow,448,true,focus,yes,1842672,Chrome,108.0,Windows,10,undefined,undefined,1280 x 720,1280 x 720
S007,22,Vrouwelijk,Rechts,5,60,right,no,100,rightarrow,405,true,focus,yes,1843872,Chrome,108.0,Windows,10,undefined,undefined,1280 x 720,1280 x 720
S007,22,Vrouwelijk,Rechts,5,61,left,no,100,leftarrow,411,true,focus,yes,1845077,Chrome,108.0,Windows,10,undefined,undefined,1280 x 720,1280 x 720
S007,22,Vrouwelijk,Rechts,5,62,left,no,100,leftarrow,698,true,focus,yes,1846570,Chrome,108.0,Windows,10,undefined,undefined,1280 x 720,1280 x 720
S007,22,Vrouwelijk,Rechts,5,63,right,yes,100,undefined,null,true,focus,yes,1848629,Chrome,108.0,Windows,10,undefined,undefined,1280 x 720,1280 x 720
S007,22,Vrouwelijk,Rechts,5,64,left,yes,150,leftarrow,342,false,focus,yes,1849759,Chrome,108.0,Windows,10,undefined,undefined,1280 x 720,1280 x 720
S007,22,Vrouwelijk,Rechts,5,65,left,no,100,leftarrow,472,true,focus,yes,1851016,Chrome,108.0,Windows,10,undefined,undefined,1280 x 720,1280 x 720
S007,22,Vrouwelijk,Rechts,5,66,left,no,100,leftarrow,509,true,focus,yes,1852316,Chrome,108.0,Windows,10,undefined,undefined,1280 x 720,1280 x 720
S007,22,Vrouwelijk,Rechts,5,67,left,no,100,rightarrow,672,false,focus,yes,1853783,Chrome,108.0,Windows,10,undefined,undefined,1280 x 720,1280 x 720
S007,22,Vrouwelijk,Rechts,5,68,right,no,100,rightarrow,350,true,focus,yes,1854934,Chrome,108.0,Windows,10,undefined,undefined,1280 x 720,1280 x 720
S007,22,Vrouwelijk,Rechts,5,69,left,yes,100,undefined,null,true,focus,yes,1856997,Chrome,108.0,Windows,10,undefined,undefined,1280 x 720,1280 x 720
S007,22,Vrouwelijk,Rechts,5,70,right,no,150,rightarrow,-117,false,focus,yes,1857667,Chrome,108.0,Windows,10,undefined,undefined,1280 x 720,1280 x 720
S007,22,Vrouwelijk,Rechts,5,71,right,no,150,rightarrow,403,true,focus,yes,1858857,Chrome,108.0,Windows,10,undefined,undefined,1280 x 720,1280 x 720
S007,22,Vrouwelijk,Rechts,5,72,right,yes,150,rightarrow,405,false,focus,yes,1860047,Chrome,108.0,Windows,10,undefined,undefined,1280 x 720,1280 x 720
S007,22,Vrouwelijk,Rechts,5,73,left,yes,100,leftarrow,315,false,focus,yes,1861162,Chrome,108.0,Windows,10,undefined,undefined,1280 x 720,1280 x 720
S007,22,Vrouwelijk,Rechts,5,74,right,yes,50,undefined,null,true,focus,yes,1863210,Chrome,108.0,Windows,10,undefined,undefined,1280 x 720,1280 x 720
S007,22,Vrouwelijk,Rechts,5,75,left,no,100,leftarrow,433,true,focus,yes,1864430,Chrome,108.0,Windows,10,undefined,undefined,1280 x 720,1280 x 720
S007,22,Vrouwelijk,Rechts,5,76,right,no,100,rightarrow,321,true,focus,yes,1865542,Chrome,108.0,Windows,10,undefined,undefined,1280 x 720,1280 x 720
S007,22,Vrouwelijk,Rechts,5,77,right,no,100,rightarrow,378,true,focus,yes,1866710,Chrome,108.0,Windows,10,undefined,undefined,1280 x 720,1280 x 720
S007,22,Vrouwelijk,Rechts,5,78,left,no,100,leftarrow,352,true,focus,yes,1867858,Chrome,108.0,Windows,10,undefined,undefined,1280 x 720,1280 x 720
S007,22,Vrouwelijk,Rechts,5,79,right,no,100,rightarrow,362,true,focus,yes,1869010,Chrome,108.0,Windows,10,undefined,undefined,1280 x 720,1280 x 720
S007,22,Vrouwelijk,Rechts,5,80,left,no,100,leftarrow,394,true,focus,yes,1870188,Chrome,108.0,Windows,10,undefined,undefined,1280 x 720,1280 x 720
S007,22,Vrouwelijk,Rechts,5,81,left,no,100,leftarrow,407,true,focus,yes,1871378,Chrome,108.0,Windows,10,undefined,undefined,1280 x 720,1280 x 720
S007,22,Vrouwelijk,Rechts,5,82,right,no,100,rightarrow,372,true,focus,yes,1872538,Chrome,108.0,Windows,10,undefined,undefined,1280 x 720,1280 x 720
S007,22,Vrouwelijk,Rechts,5,83,right,yes,100,rightarrow,407,false,focus,yes,1873733,Chrome,108.0,Windows,10,undefined,undefined,1280 x 720,1280 x 720
S007,22,Vrouwelijk,Rechts,5,84,left,no,50,leftarrow,344,true,focus,yes,1874861,Chrome,108.0,Windows,10,undefined,undefined,1280 x 720,1280 x 720
S007,22,Vrouwelijk,Rechts,5,85,left,no,50,leftarrow,447,true,focus,yes,1876097,Chrome,108.0,Windows,10,undefined,undefined,1280 x 720,1280 x 720
S007,22,Vrouwelijk,Rechts,5,86,left,yes,50,undefined,null,true,focus,yes,1878153,Chrome,108.0,Windows,10,undefined,undefined,1280 x 720,1280 x 720
S007,22,Vrouwelijk,Rechts,5,87,right,no,100,rightarrow,403,true,focus,yes,1879343,Chrome,108.0,Windows,10,undefined,undefined,1280 x 720,1280 x 720
S007,22,Vrouwelijk,Rechts,5,88,right,no,100,rightarrow,348,true,focus,yes,1880485,Chrome,108.0,Windows,10,undefined,undefined,1280 x 720,1280 x 720
S007,22,Vrouwelijk,Rechts,5,89,right,no,100,rightarrow,366,true,focus,yes,1881631,Chrome,108.0,Windows,10,undefined,undefined,1280 x 720,1280 x 720
S007,22,Vrouwelijk,Rechts,5,90,left,no,100,leftarrow,394,true,focus,yes,1882819,Chrome,108.0,Windows,10,undefined,undefined,1280 x 720,1280 x 720
S007,22,Vrouwelijk,Rechts,5,91,right,no,100,rightarrow,363,true,focus,yes,1883966,Chrome,108.0,Windows,10,undefined,undefined,1280 x 720,1280 x 720
S007,22,Vrouwelijk,Rechts,5,92,left,no,100,leftarrow,327,true,focus,yes,1885063,Chrome,108.0,Windows,10,undefined,undefined,1280 x 720,1280 x 720
S007,22,Vrouwelijk,Rechts,5,93,right,no,100,rightarrow,330,true,focus,yes,1886182,Chrome,108.0,Windows,10,undefined,undefined,1280 x 720,1280 x 720
S007,22,Vrouwelijk,Rechts,5,94,left,yes,100,leftarrow,409,false,focus,yes,1887390,Chrome,108.0,Windows,10,undefined,undefined,1280 x 720,1280 x 720
S007,22,Vrouwelijk,Rechts,5,95,left,no,50,leftarrow,392,true,focus,yes,1888584,Chrome,108.0,Windows,10,undefined,undefined,1280 x 720,1280 x 720
S007,22,Vrouwelijk,Rechts,5,96,right,yes,50,undefined,null,true,focus,yes,1890641,Chrome,108.0,Windows,10,undefined,undefined,1280 x 720,1280 x 720
S007,22,Vrouwelijk,Rechts,5,97,left,no,100,undefined,null,false,focus,yes,1892691,Chrome,108.0,Windows,10,undefined,undefined,1280 x 720,1280 x 720
S007,22,Vrouwelijk,Rechts,5,98,left,no,100,undefined,null,false,focus,yes,1894746,Chrome,108.0,Windows,10,undefined,undefined,1280 x 720,1280 x 720
S007,22,Vrouwelijk,Rechts,5,99,right,no,100,rightarrow,581,true,focus,yes,1896120,Chrome,108.0,Windows,10,undefined,undefined,1280 x 720,1280 x 720
S007,22,Vrouwelijk,Rechts,5,100,left,no,100,leftarrow,405,true,focus,yes,1897307,Chrome,108.0,Windows,10,undefined,undefined,1280 x 720,1280 x 720
S007,22,Vrouwelijk,Rechts,5,101,right,no,100,rightarrow,260,true,focus,yes,1898359,Chrome,108.0,Windows,10,undefined,undefined,1280 x 720,1280 x 720
S007,22,Vrouwelijk,Rechts,5,102,right,yes,100,rightarrow,326,false,focus,yes,1899477,Chrome,108.0,Windows,10,undefined,undefined,1280 x 720,1280 x 720
S007,22,Vrouwelijk,Rechts,5,103,left,yes,50,undefined,null,true,focus,yes,1901531,Chrome,108.0,Windows,10,undefined,undefined,1280 x 720,1280 x 720
S007,22,Vrouwelijk,Rechts,5,104,right,no,100,rightarrow,257,true,focus,yes,1902577,Chrome,108.0,Windows,10,undefined,undefined,1280 x 720,1280 x 720
S007,22,Vrouwelijk,Rechts,5,105,right,no,100,rightarrow,316,true,focus,yes,1903690,Chrome,108.0,Windows,10,undefined,undefined,1280 x 720,1280 x 720
S007,22,Vrouwelijk,Rechts,5,106,left,yes,100,rightarrow,365,false,focus,yes,1904853,Chrome,108.0,Windows,10,undefined,undefined,1280 x 720,1280 x 720
S007,22,Vrouwelijk,Rechts,5,107,left,no,50,rightarrow,339,false,focus,yes,1905972,Chrome,108.0,Windows,10,undefined,undefined,1280 x 720,1280 x 720
S007,22,Vrouwelijk,Rechts,5,108,right,yes,50,rightarrow,358,false,focus,yes,1907124,Chrome,108.0,Windows,10,undefined,undefined,1280 x 720,1280 x 720
S007,22,Vrouwelijk,Rechts,5,109,left,no,50,leftarrow,309,true,focus,yes,1908218,Chrome,108.0,Windows,10,undefined,undefined,1280 x 720,1280 x 720
S007,22,Vrouwelijk,Rechts,5,110,left,no,50,leftarrow,394,true,focus,yes,1909401,Chrome,108.0,Windows,10,undefined,undefined,1280 x 720,1280 x 720
S007,22,Vrouwelijk,Rechts,5,111,right,no,50,rightarrow,429,true,focus,yes,1910624,Chrome,108.0,Windows,10,undefined,undefined,1280 x 720,1280 x 720
S007,22,Vrouwelijk,Rechts,5,112,right,no,50,rightarrow,552,true,focus,yes,1911971,Chrome,108.0,Windows,10,undefined,undefined,1280 x 720,1280 x 720
S007,22,Vrouwelijk,Rechts,5,113,right,yes,50,undefined,null,true,focus,yes,1914011,Chrome,108.0,Windows,10,undefined,undefined,1280 x 720,1280 x 720
S007,22,Vrouwelijk,Rechts,5,114,right,no,100,leftarrow,282,false,focus,yes,1915084,Chrome,108.0,Windows,10,undefined,undefined,1280 x 720,1280 x 720
S007,22,Vrouwelijk,Rechts,5,115,left,yes,100,undefined,null,true,focus,yes,1917124,Chrome,108.0,Windows,10,undefined,undefined,1280 x 720,1280 x 720
S007,22,Vrouwelijk,Rechts,5,116,right,no,150,rightarrow,385,true,focus,yes,1918301,Chrome,108.0,Windows,10,undefined,undefined,1280 x 720,1280 x 720
S007,22,Vrouwelijk,Rechts,5,117,right,no,150,rightarrow,376,true,focus,yes,1919468,Chrome,108.0,Windows,10,undefined,undefined,1280 x 720,1280 x 720
S007,22,Vrouwelijk,Rechts,5,118,left,no,150,leftarrow,446,true,focus,yes,1920699,Chrome,108.0,Windows,10,undefined,undefined,1280 x 720,1280 x 720
S007,22,Vrouwelijk,Rechts,5,119,left,no,150,leftarrow,387,true,focus,yes,1921880,Chrome,108.0,Windows,10,undefined,undefined,1280 x 720,1280 x 720
S007,22,Vrouwelijk,Rechts,5,120,left,no,150,leftarrow,437,true,focus,yes,1923108,Chrome,108.0,Windows,10,undefined,undefined,1280 x 720,1280 x 720
S007,22,Vrouwelijk,Rechts,5,121,right,no,150,rightarrow,493,true,focus,yes,1924387,Chrome,108.0,Windows,10,undefined,undefined,1280 x 720,1280 x 720
S007,22,Vrouwelijk,Rechts,5,122,left,yes,150,leftarrow,297,false,focus,yes,1925478,Chrome,108.0,Windows,10,undefined,undefined,1280 x 720,1280 x 720
S007,22,Vrouwelijk,Rechts,5,123,right,yes,100,undefined,null,true,focus,yes,1927535,Chrome,108.0,Windows,10,undefined,undefined,1280 x 720,1280 x 720
S007,22,Vrouwelijk,Rechts,5,124,left,no,150,rightarrow,319,false,focus,yes,1928647,Chrome,108.0,Windows,10,undefined,undefined,1280 x 720,1280 x 720
S007,22,Vrouwelijk,Rechts,5,125,right,no,150,rightarrow,329,true,focus,yes,1929772,Chrome,108.0,Windows,10,undefined,undefined,1280 x 720,1280 x 720
S007,22,Vrouwelijk,Rechts,5,126,right,no,150,rightarrow,432,true,focus,yes,1930989,Chrome,108.0,Windows,10,undefined,undefined,1280 x 720,1280 x 720
S007,22,Vrouwelijk,Rechts,5,127,left,no,150,leftarrow,372,true,focus,yes,1932154,Chrome,108.0,Windows,10,undefined,undefined,1280 x 720,1280 x 720
S007,22,Vrouwelijk,Rechts,5,128,left,no,150,leftarrow,361,true,focus,yes,1933305,Chrome,108.0,Windows,10,undefined,undefined,1280 x 720,1280 x 720
S007,22,Vrouwelijk,Rechts,6,1,left,yes,150,leftarrow,445,false,focus,yes,1952593,Chrome,108.0,Windows,10,undefined,undefined,1280 x 720,1280 x 720
S007,22,Vrouwelijk,Rechts,6,2,right,yes,100,rightarrow,260,false,focus,yes,1953646,Chrome,108.0,Windows,10,undefined,undefined,1280 x 720,1280 x 720
S007,22,Vrouwelijk,Rechts,6,3,right,no,50,rightarrow,397,true,focus,yes,1954835,Chrome,108.0,Windows,10,undefined,undefined,1280 x 720,1280 x 720
S007,22,Vrouwelijk,Rechts,6,4,left,no,50,leftarrow,315,true,focus,yes,1955931,Chrome,108.0,Windows,10,undefined,undefined,1280 x 720,1280 x 720
S007,22,Vrouwelijk,Rechts,6,5,left,no,50,leftarrow,352,true,focus,yes,1957070,Chrome,108.0,Windows,10,undefined,undefined,1280 x 720,1280 x 720
S007,22,Vrouwelijk,Rechts,6,6,right,no,50,rightarrow,312,true,focus,yes,1958173,Chrome,108.0,Windows,10,undefined,undefined,1280 x 720,1280 x 720
S007,22,Vrouwelijk,Rechts,6,7,right,no,50,rightarrow,341,true,focus,yes,1959303,Chrome,108.0,Windows,10,undefined,undefined,1280 x 720,1280 x 720
S007,22,Vrouwelijk,Rechts,6,8,left,no,50,leftarrow,330,true,focus,yes,1960425,Chrome,108.0,Windows,10,undefined,undefined,1280 x 720,1280 x 720
S007,22,Vrouwelijk,Rechts,6,9,left,no,50,leftarrow,309,true,focus,yes,1961518,Chrome,108.0,Windows,10,undefined,undefined,1280 x 720,1280 x 720
S007,22,Vrouwelijk,Rechts,6,10,left,no,50,leftarrow,419,true,focus,yes,1962726,Chrome,108.0,Windows,10,undefined,undefined,1280 x 720,1280 x 720
S007,22,Vrouwelijk,Rechts,6,11,right,no,50,rightarrow,381,true,focus,yes,1963900,Chrome,108.0,Windows,10,undefined,undefined,1280 x 720,1280 x 720
S007,22,Vrouwelijk,Rechts,6,12,right,yes,50,undefined,null,true,focus,yes,1965964,Chrome,108.0,Windows,10,undefined,undefined,1280 x 720,1280 x 720
S007,22,Vrouwelijk,Rechts,6,13,left,yes,100,leftarrow,431,false,focus,yes,1967184,Chrome,108.0,Windows,10,undefined,undefined,1280 x 720,1280 x 720
S007,22,Vrouwelijk,Rechts,6,14,right,no,50,rightarrow,429,true,focus,yes,1968404,Chrome,108.0,Windows,10,undefined,undefined,1280 x 720,1280 x 720
S007,22,Vrouwelijk,Rechts,6,15,right,no,50,rightarrow,461,true,focus,yes,1969646,Chrome,108.0,Windows,10,undefined,undefined,1280 x 720,1280 x 720
S007,22,Vrouwelijk,Rechts,6,16,left,no,50,leftarrow,828,true,focus,yes,1971268,Chrome,108.0,Windows,10,undefined,undefined,1280 x 720,1280 x 720
S007,22,Vrouwelijk,Rechts,6,17,right,no,50,rightarrow,342,true,focus,yes,1972401,Chrome,108.0,Windows,10,undefined,undefined,1280 x 720,1280 x 720
S007,22,Vrouwelijk,Rechts,6,18,left,no,50,leftarrow,311,true,focus,yes,1973506,Chrome,108.0,Windows,10,undefined,undefined,1280 x 720,1280 x 720
S007,22,Vrouwelijk,Rechts,6,19,left,yes,50,undefined,null,true,focus,yes,1975552,Chrome,108.0,Windows,10,undefined,undefined,1280 x 720,1280 x 720
S007,22,Vrouwelijk,Rechts,6,20,right,no,100,rightarrow,635,true,focus,yes,1976979,Chrome,108.0,Windows,10,undefined,undefined,1280 x 720,1280 x 720
S007,22,Vrouwelijk,Rechts,6,21,right,yes,100,undefined,null,true,focus,yes,1979032,Chrome,108.0,Windows,10,undefined,undefined,1280 x 720,1280 x 720
S007,22,Vrouwelijk,Rechts,6,22,right,no,150,rightarrow,419,true,focus,yes,1980242,Chrome,108.0,Windows,10,undefined,undefined,1280 x 720,1280 x 720
S007,22,Vrouwelijk,Rechts,6,23,left,no,150,leftarrow,380,true,focus,yes,1981412,Chrome,108.0,Windows,10,undefined,undefined,1280 x 720,1280 x 720
S007,22,Vrouwelijk,Rechts,6,24,left,no,150,leftarrow,372,true,focus,yes,1982579,Chrome,108.0,Windows,10,undefined,undefined,1280 x 720,1280 x 720
S007,22,Vrouwelijk,Rechts,6,25,right,no,150,rightarrow,494,true,focus,yes,1983865,Chrome,108.0,Windows,10,undefined,undefined,1280 x 720,1280 x 720
S007,22,Vrouwelijk,Rechts,6,26,left,no,150,leftarrow,673,true,focus,yes,1985331,Chrome,108.0,Windows,10,undefined,undefined,1280 x 720,1280 x 720
S007,22,Vrouwelijk,Rechts,6,27,left,no,150,leftarrow,408,true,focus,yes,1986528,Chrome,108.0,Windows,10,undefined,undefined,1280 x 720,1280 x 720
S007,22,Vrouwelijk,Rechts,6,28,right,no,150,rightarrow,372,true,focus,yes,1987683,Chrome,108.0,Windows,10,undefined,undefined,1280 x 720,1280 x 720
S007,22,Vrouwelijk,Rechts,6,29,left,no,150,rightarrow,-81,false,focus,yes,1988392,Chrome,108.0,Windows,10,undefined,undefined,1280 x 720,1280 x 720
