participantID;age;gender;handedness;block_i;trial_i;stim;signal;SSD;response;rt;correct;focus;Fullscreen;time_elapsed;browser_name;browser_version;os_name;os_version;tablet;mobile;screen_resolution;window_resolution
H036;23;Mannelijk;Rechts;0;1;right;no;200;rightarrow;497;true;focus;yes;598653;Chrome;112.0;Windows;10;undefined;undefined;1536 x 864;1536 x 864
H036;23;Mannelijk;Rechts;0;2;left;yes;200;leftarrow;315;false;focus;yes;600498;Chrome;112.0;Windows;10;undefined;undefined;1536 x 864;1536 x 864
H036;23;Mannelijk;Rechts;0;3;left;no;150;leftarrow;322;true;focus;yes;602351;Chrome;112.0;Windows;10;undefined;undefined;1536 x 864;1536 x 864
H036;23;Mannelijk;Rechts;0;4;left;no;150;leftarrow;380;true;focus;yes;604265;Chrome;112.0;Windows;10;undefined;undefined;1536 x 864;1536 x 864
H036;23;Mannelijk;Rechts;0;5;right;no;150;rightarrow;302;true;focus;yes;606114;Chrome;112.0;Windows;10;undefined;undefined;1536 x 864;1536 x 864
H036;23;Mannelijk;Rechts;0;6;right;no;150;rightarrow;309;true;focus;yes;607955;Chrome;112.0;Windows;10;undefined;undefined;1536 x 864;1536 x 864
H036;23;Mannelijk;Rechts;0;7;left;no;150;leftarrow;268;true;focus;yes;609757;Chrome;112.0;Windows;10;undefined;undefined;1536 x 864;1536 x 864
H036;23;Mannelijk;Rechts;0;8;right;yes;150;rightarrow;227;false;focus;yes;611504;Chrome;112.0;Windows;10;undefined;undefined;1536 x 864;1536 x 864
H036;23;Mannelijk;Rechts;1;1;right;no;100;rightarrow;298;true;focus;yes;633315;Chrome;112.0;Windows;10;undefined;undefined;1536 x 864;1536 x 864
H036;23;Mannelijk;Rechts;1;2;right;no;100;rightarrow;287;true;focus;yes;634365;Chrome;112.0;Windows;10;undefined;undefined;1536 x 864;1536 x 864
H036;23;Mannelijk;Rechts;1;3;left;yes;100;leftarrow;341;false;focus;yes;635469;Chrome;112.0;Windows;10;undefined;undefined;1536 x 864;1536 x 864
H036;23;Mannelijk;Rechts;1;4;right;no;50;rightarrow;303;true;focus;yes;636548;Chrome;112.0;Windows;10;undefined;undefined;1536 x 864;1536 x 864
H036;23;Mannelijk;Rechts;1;5;left;no;50;leftarrow;312;true;focus;yes;637630;Chrome;112.0;Windows;10;undefined;undefined;1536 x 864;1536 x 864
H036;23;Mannelijk;Rechts;1;6;left;no;50;leftarrow;335;true;focus;yes;638734;Chrome;112.0;Windows;10;undefined;undefined;1536 x 864;1536 x 864
H036;23;Mannelijk;Rechts;1;7;right;yes;50;rightarrow;323;false;focus;yes;639824;Chrome;112.0;Windows;10;undefined;undefined;1536 x 864;1536 x 864
H036;23;Mannelijk;Rechts;1;8;left;no;50;leftarrow;297;true;focus;yes;640885;Chrome;112.0;Windows;10;undefined;undefined;1536 x 864;1536 x 864
H036;23;Mannelijk;Rechts;1;9;right;no;50;rightarrow;271;true;focus;yes;641938;Chrome;112.0;Windows;10;undefined;undefined;1536 x 864;1536 x 864
H036;23;Mannelijk;Rechts;1;10;left;no;50;leftarrow;240;true;focus;yes;642958;Chrome;112.0;Windows;10;undefined;undefined;1536 x 864;1536 x 864
H036;23;Mannelijk;Rechts;1;11;left;yes;50;leftarrow;331;false;focus;yes;644057;Chrome;112.0;Windows;10;undefined;undefined;1536 x 864;1536 x 864
H036;23;Mannelijk;Rechts;1;12;left;no;50;leftarrow;274;true;focus;yes;645099;Chrome;112.0;Windows;10;undefined;undefined;1536 x 864;1536 x 864
H036;23;Mannelijk;Rechts;1;13;right;yes;50;undefined;null;true;focus;yes;647104;Chrome;112.0;Windows;10;undefined;undefined;1536 x 864;1536 x 864
H036;23;Mannelijk;Rechts;1;14;right;no;100;rightarrow;431;true;focus;yes;648300;Chrome;112.0;Windows;10;undefined;undefined;1536 x 864;1536 x 864
H036;23;Mannelijk;Rechts;1;15;right;no;100;rightarrow;387;true;focus;yes;649453;Chrome;112.0;Windows;10;undefined;undefined;1536 x 864;1536 x 864
H036;23;Mannelijk;Rechts;1;16;left;no;100;leftarrow;331;true;focus;yes;650547;Chrome;112.0;Windows;10;undefined;undefined;1536 x 864;1536 x 864
H036;23;Mannelijk;Rechts;1;17;right;no;100;rightarrow;320;true;focus;yes;651652;Chrome;112.0;Windows;10;undefined;undefined;1536 x 864;1536 x 864
H036;23;Mannelijk;Rechts;1;18;left;no;100;leftarrow;269;true;focus;yes;652699;Chrome;112.0;Windows;10;undefined;undefined;1536 x 864;1536 x 864
H036;23;Mannelijk;Rechts;1;19;left;yes;100;leftarrow;320;false;focus;yes;653789;Chrome;112.0;Windows;10;undefined;undefined;1536 x 864;1536 x 864
H036;23;Mannelijk;Rechts;1;20;left;no;50;leftarrow;357;true;focus;yes;654924;Chrome;112.0;Windows;10;undefined;undefined;1536 x 864;1536 x 864
H036;23;Mannelijk;Rechts;1;21;right;no;50;rightarrow;305;true;focus;yes;655993;Chrome;112.0;Windows;10;undefined;undefined;1536 x 864;1536 x 864
H036;23;Mannelijk;Rechts;1;22;left;no;50;leftarrow;314;true;focus;yes;657071;Chrome;112.0;Windows;10;undefined;undefined;1536 x 864;1536 x 864
H036;23;Mannelijk;Rechts;1;23;right;no;50;rightarrow;296;true;focus;yes;658138;Chrome;112.0;Windows;10;undefined;undefined;1536 x 864;1536 x 864
H036;23;Mannelijk;Rechts;1;24;right;yes;50;leftarrow;602;false;focus;yes;659510;Chrome;112.0;Windows;10;undefined;undefined;1536 x 864;1536 x 864
H036;23;Mannelijk;Rechts;1;25;right;yes;50;leftarrow;484;false;focus;yes;660765;Chrome;112.0;Windows;10;undefined;undefined;1536 x 864;1536 x 864
H036;23;Mannelijk;Rechts;1;26;left;no;50;leftarrow;463;true;focus;yes;662001;Chrome;112.0;Windows;10;undefined;undefined;1536 x 864;1536 x 864
H036;23;Mannelijk;Rechts;1;27;right;no;50;rightarrow;450;true;focus;yes;663221;Chrome;112.0;Windows;10;undefined;undefined;1536 x 864;1536 x 864
H036;23;Mannelijk;Rechts;1;28;right;no;50;leftarrow;204;false;focus;yes;664198;Chrome;112.0;Windows;10;undefined;undefined;1536 x 864;1536 x 864
H036;23;Mannelijk;Rechts;1;29;right;no;50;rightarrow;337;true;focus;yes;665301;Chrome;112.0;Windows;10;undefined;undefined;1536 x 864;1536 x 864
H036;23;Mannelijk;Rechts;1;30;left;no;50;leftarrow;342;true;focus;yes;666411;Chrome;112.0;Windows;10;undefined;undefined;1536 x 864;1536 x 864
H036;23;Mannelijk;Rechts;1;31;left;yes;50;leftarrow;566;false;focus;yes;667752;Chrome;112.0;Windows;10;undefined;undefined;1536 x 864;1536 x 864
H036;23;Mannelijk;Rechts;1;32;left;no;50;leftarrow;431;true;focus;yes;668946;Chrome;112.0;Windows;10;undefined;undefined;1536 x 864;1536 x 864
H036;23;Mannelijk;Rechts;1;33;left;no;50;leftarrow;322;true;focus;yes;670056;Chrome;112.0;Windows;10;undefined;undefined;1536 x 864;1536 x 864
H036;23;Mannelijk;Rechts;1;34;right;yes;50;rightarrow;389;false;focus;yes;671217;Chrome;112.0;Windows;10;undefined;undefined;1536 x 864;1536 x 864
H036;23;Mannelijk;Rechts;1;35;right;no;50;rightarrow;348;true;focus;yes;672590;Chrome;112.0;Windows;10;undefined;undefined;1536 x 864;1536 x 864
H036;23;Mannelijk;Rechts;1;36;left;no;50;leftarrow;319;true;focus;yes;673680;Chrome;112.0;Windows;10;undefined;undefined;1536 x 864;1536 x 864
H036;23;Mannelijk;Rechts;1;37;left;yes;50;rightarrow;576;false;focus;yes;675026;Chrome;112.0;Windows;10;undefined;undefined;1536 x 864;1536 x 864
H036;23;Mannelijk;Rechts;1;38;left;no;50;leftarrow;401;true;focus;yes;676184;Chrome;112.0;Windows;10;undefined;undefined;1536 x 864;1536 x 864
H036;23;Mannelijk;Rechts;1;39;right;no;50;rightarrow;330;true;focus;yes;677278;Chrome;112.0;Windows;10;undefined;undefined;1536 x 864;1536 x 864
H036;23;Mannelijk;Rechts;1;40;right;no;50;leftarrow;598;false;focus;yes;678645;Chrome;112.0;Windows;10;undefined;undefined;1536 x 864;1536 x 864
H036;23;Mannelijk;Rechts;1;41;left;no;50;leftarrow;356;true;focus;yes;679774;Chrome;112.0;Windows;10;undefined;undefined;1536 x 864;1536 x 864
H036;23;Mannelijk;Rechts;1;42;left;yes;50;rightarrow;509;false;focus;yes;681044;Chrome;112.0;Windows;10;undefined;undefined;1536 x 864;1536 x 864
H036;23;Mannelijk;Rechts;1;43;left;no;50;leftarrow;655;true;focus;yes;682464;Chrome;112.0;Windows;10;undefined;undefined;1536 x 864;1536 x 864
H036;23;Mannelijk;Rechts;1;44;right;no;50;rightarrow;380;true;focus;yes;683617;Chrome;112.0;Windows;10;undefined;undefined;1536 x 864;1536 x 864
H036;23;Mannelijk;Rechts;1;45;right;no;50;rightarrow;410;true;focus;yes;684797;Chrome;112.0;Windows;10;undefined;undefined;1536 x 864;1536 x 864
H036;23;Mannelijk;Rechts;1;46;right;yes;50;leftarrow;494;false;focus;yes;686053;Chrome;112.0;Windows;10;undefined;undefined;1536 x 864;1536 x 864
H036;23;Mannelijk;Rechts;1;47;left;no;50;leftarrow;487;true;focus;yes;687315;Chrome;112.0;Windows;10;undefined;undefined;1536 x 864;1536 x 864
H036;23;Mannelijk;Rechts;1;48;right;no;50;rightarrow;460;true;focus;yes;688535;Chrome;112.0;Windows;10;undefined;undefined;1536 x 864;1536 x 864
H036;23;Mannelijk;Rechts;1;49;right;no;50;rightarrow;375;true;focus;yes;689685;Chrome;112.0;Windows;10;undefined;undefined;1536 x 864;1536 x 864
H036;23;Mannelijk;Rechts;1;50;right;no;50;rightarrow;387;true;focus;yes;690835;Chrome;112.0;Windows;10;undefined;undefined;1536 x 864;1536 x 864
H036;23;Mannelijk;Rechts;1;51;right;no;50;rightarrow;368;true;focus;yes;691970;Chrome;112.0;Windows;10;undefined;undefined;1536 x 864;1536 x 864
H036;23;Mannelijk;Rechts;1;52;left;no;50;leftarrow;392;true;focus;yes;693134;Chrome;112.0;Windows;10;undefined;undefined;1536 x 864;1536 x 864
H036;23;Mannelijk;Rechts;1;53;right;yes;50;leftarrow;475;false;focus;yes;694376;Chrome;112.0;Windows;10;undefined;undefined;1536 x 864;1536 x 864
H036;23;Mannelijk;Rechts;1;54;left;no;50;leftarrow;400;true;focus;yes;695547;Chrome;112.0;Windows;10;undefined;undefined;1536 x 864;1536 x 864
H036;23;Mannelijk;Rechts;1;55;left;yes;50;rightarrow;481;false;focus;yes;696795;Chrome;112.0;Windows;10;undefined;undefined;1536 x 864;1536 x 864
H036;23;Mannelijk;Rechts;1;56;left;no;50;leftarrow;369;true;focus;yes;697930;Chrome;112.0;Windows;10;undefined;undefined;1536 x 864;1536 x 864
H036;23;Mannelijk;Rechts;1;57;right;no;50;rightarrow;373;true;focus;yes;699074;Chrome;112.0;Windows;10;undefined;undefined;1536 x 864;1536 x 864
H036;23;Mannelijk;Rechts;1;58;right;no;50;rightarrow;352;true;focus;yes;700200;Chrome;112.0;Windows;10;undefined;undefined;1536 x 864;1536 x 864
H036;23;Mannelijk;Rechts;1;59;right;yes;50;leftarrow;449;false;focus;yes;701430;Chrome;112.0;Windows;10;undefined;undefined;1536 x 864;1536 x 864
H036;23;Mannelijk;Rechts;1;60;left;yes;50;rightarrow;599;false;focus;yes;702801;Chrome;112.0;Windows;10;undefined;undefined;1536 x 864;1536 x 864
H036;23;Mannelijk;Rechts;1;61;right;no;50;rightarrow;473;true;focus;yes;704041;Chrome;112.0;Windows;10;undefined;undefined;1536 x 864;1536 x 864
H036;23;Mannelijk;Rechts;1;62;left;no;50;leftarrow;338;true;focus;yes;705153;Chrome;112.0;Windows;10;undefined;undefined;1536 x 864;1536 x 864
H036;23;Mannelijk;Rechts;1;63;left;no;50;leftarrow;346;true;focus;yes;706257;Chrome;112.0;Windows;10;undefined;undefined;1536 x 864;1536 x 864
H036;23;Mannelijk;Rechts;1;64;left;no;50;leftarrow;309;true;focus;yes;707334;Chrome;112.0;Windows;10;undefined;undefined;1536 x 864;1536 x 864
H036;23;Mannelijk;Rechts;1;65;left;no;50;leftarrow;331;true;focus;yes;708429;Chrome;112.0;Windows;10;undefined;undefined;1536 x 864;1536 x 864
H036;23;Mannelijk;Rechts;1;66;right;yes;50;rightarrow;384;false;focus;yes;709588;Chrome;112.0;Windows;10;undefined;undefined;1536 x 864;1536 x 864
H036;23;Mannelijk;Rechts;1;67;right;no;50;rightarrow;605;true;focus;yes;711212;Chrome;112.0;Windows;10;undefined;undefined;1536 x 864;1536 x 864
H036;23;Mannelijk;Rechts;1;68;right;no;50;rightarrow;329;true;focus;yes;712303;Chrome;112.0;Windows;10;undefined;undefined;1536 x 864;1536 x 864
H036;23;Mannelijk;Rechts;1;69;left;no;50;leftarrow;387;true;focus;yes;713468;Chrome;112.0;Windows;10;undefined;undefined;1536 x 864;1536 x 864
H036;23;Mannelijk;Rechts;1;70;right;no;50;rightarrow;322;true;focus;yes;714562;Chrome;112.0;Windows;10;undefined;undefined;1536 x 864;1536 x 864
H036;23;Mannelijk;Rechts;1;71;left;yes;50;rightarrow;540;false;focus;yes;715859;Chrome;112.0;Windows;10;undefined;undefined;1536 x 864;1536 x 864
H036;23;Mannelijk;Rechts;1;72;left;no;50;leftarrow;371;true;focus;yes;717006;Chrome;112.0;Windows;10;undefined;undefined;1536 x 864;1536 x 864
H036;23;Mannelijk;Rechts;1;73;left;yes;50;rightarrow;528;false;focus;yes;718305;Chrome;112.0;Windows;10;undefined;undefined;1536 x 864;1536 x 864
H036;23;Mannelijk;Rechts;1;74;left;no;50;leftarrow;393;true;focus;yes;719476;Chrome;112.0;Windows;10;undefined;undefined;1536 x 864;1536 x 864
H036;23;Mannelijk;Rechts;1;75;right;no;50;leftarrow;397;false;focus;yes;720647;Chrome;112.0;Windows;10;undefined;undefined;1536 x 864;1536 x 864
H036;23;Mannelijk;Rechts;1;76;right;no;50;rightarrow;391;true;focus;yes;721803;Chrome;112.0;Windows;10;undefined;undefined;1536 x 864;1536 x 864
H036;23;Mannelijk;Rechts;1;77;left;no;50;leftarrow;341;true;focus;yes;722908;Chrome;112.0;Windows;10;undefined;undefined;1536 x 864;1536 x 864
H036;23;Mannelijk;Rechts;1;78;right;no;50;leftarrow;403;false;focus;yes;724075;Chrome;112.0;Windows;10;undefined;undefined;1536 x 864;1536 x 864
H036;23;Mannelijk;Rechts;1;79;left;no;50;leftarrow;367;true;focus;yes;725202;Chrome;112.0;Windows;10;undefined;undefined;1536 x 864;1536 x 864
H036;23;Mannelijk;Rechts;1;80;right;yes;50;leftarrow;516;false;focus;yes;726488;Chrome;112.0;Windows;10;undefined;undefined;1536 x 864;1536 x 864
H036;23;Mannelijk;Rechts;1;81;left;yes;50;rightarrow;458;false;focus;yes;727712;Chrome;112.0;Windows;10;undefined;undefined;1536 x 864;1536 x 864
H036;23;Mannelijk;Rechts;1;82;right;no;50;rightarrow;507;true;focus;yes;728984;Chrome;112.0;Windows;10;undefined;undefined;1536 x 864;1536 x 864
H036;23;Mannelijk;Rechts;1;83;right;no;50;rightarrow;347;true;focus;yes;730107;Chrome;112.0;Windows;10;undefined;undefined;1536 x 864;1536 x 864
H036;23;Mannelijk;Rechts;1;84;right;yes;50;leftarrow;497;false;focus;yes;731375;Chrome;112.0;Windows;10;undefined;undefined;1536 x 864;1536 x 864
H036;23;Mannelijk;Rechts;1;85;left;no;50;leftarrow;441;true;focus;yes;732590;Chrome;112.0;Windows;10;undefined;undefined;1536 x 864;1536 x 864
H036;23;Mannelijk;Rechts;1;86;left;no;50;leftarrow;317;true;focus;yes;733680;Chrome;112.0;Windows;10;undefined;undefined;1536 x 864;1536 x 864
H036;23;Mannelijk;Rechts;1;87;right;no;50;rightarrow;352;true;focus;yes;734805;Chrome;112.0;Windows;10;undefined;undefined;1536 x 864;1536 x 864
H036;23;Mannelijk;Rechts;1;88;left;no;50;leftarrow;320;true;focus;yes;735889;Chrome;112.0;Windows;10;undefined;undefined;1536 x 864;1536 x 864
H036;23;Mannelijk;Rechts;1;89;right;no;50;rightarrow;334;true;focus;yes;736982;Chrome;112.0;Windows;10;undefined;undefined;1536 x 864;1536 x 864
H036;23;Mannelijk;Rechts;1;90;right;yes;50;leftarrow;503;false;focus;yes;738257;Chrome;112.0;Windows;10;undefined;undefined;1536 x 864;1536 x 864
H036;23;Mannelijk;Rechts;1;91;left;no;50;leftarrow;404;true;focus;yes;739436;Chrome;112.0;Windows;10;undefined;undefined;1536 x 864;1536 x 864
H036;23;Mannelijk;Rechts;1;92;right;no;50;rightarrow;315;true;focus;yes;740522;Chrome;112.0;Windows;10;undefined;undefined;1536 x 864;1536 x 864
H036;23;Mannelijk;Rechts;1;93;left;yes;50;leftarrow;364;false;focus;yes;741662;Chrome;112.0;Windows;10;undefined;undefined;1536 x 864;1536 x 864
H036;23;Mannelijk;Rechts;1;94;left;no;50;leftarrow;424;true;focus;yes;742865;Chrome;112.0;Windows;10;undefined;undefined;1536 x 864;1536 x 864
H036;23;Mannelijk;Rechts;1;95;right;no;50;rightarrow;334;true;focus;yes;743975;Chrome;112.0;Windows;10;undefined;undefined;1536 x 864;1536 x 864
H036;23;Mannelijk;Rechts;1;96;left;no;50;leftarrow;385;true;focus;yes;745134;Chrome;112.0;Windows;10;undefined;undefined;1536 x 864;1536 x 864
H036;23;Mannelijk;Rechts;1;97;left;no;50;leftarrow;333;true;focus;yes;746230;Chrome;112.0;Windows;10;undefined;undefined;1536 x 864;1536 x 864
H036;23;Mannelijk;Rechts;1;98;right;yes;50;leftarrow;512;false;focus;yes;747513;Chrome;112.0;Windows;10;undefined;undefined;1536 x 864;1536 x 864
H036;23;Mannelijk;Rechts;1;99;left;no;50;leftarrow;338;true;focus;yes;748610;Chrome;112.0;Windows;10;undefined;undefined;1536 x 864;1536 x 864
H036;23;Mannelijk;Rechts;1;100;right;no;50;rightarrow;557;true;focus;yes;749933;Chrome;112.0;Windows;10;undefined;undefined;1536 x 864;1536 x 864
H036;23;Mannelijk;Rechts;1;101;left;no;50;leftarrow;346;true;focus;yes;751047;Chrome;112.0;Windows;10;undefined;undefined;1536 x 864;1536 x 864
H036;23;Mannelijk;Rechts;1;102;right;no;50;rightarrow;295;true;focus;yes;752124;Chrome;112.0;Windows;10;undefined;undefined;1536 x 864;1536 x 864
H036;23;Mannelijk;Rechts;1;103;left;yes;50;leftarrow;374;false;focus;yes;753269;Chrome;112.0;Windows;10;undefined;undefined;1536 x 864;1536 x 864
H036;23;Mannelijk;Rechts;1;104;right;no;50;rightarrow;308;true;focus;yes;754351;Chrome;112.0;Windows;10;undefined;undefined;1536 x 864;1536 x 864
H036;23;Mannelijk;Rechts;1;105;right;no;50;rightarrow;304;true;focus;yes;755425;Chrome;112.0;Windows;10;undefined;undefined;1536 x 864;1536 x 864
H036;23;Mannelijk;Rechts;1;106;left;no;50;leftarrow;388;true;focus;yes;756586;Chrome;112.0;Windows;10;undefined;undefined;1536 x 864;1536 x 864
H036;23;Mannelijk;Rechts;1;107;right;no;50;rightarrow;544;true;focus;yes;757903;Chrome;112.0;Windows;10;undefined;undefined;1536 x 864;1536 x 864
H036;23;Mannelijk;Rechts;1;108;right;yes;50;leftarrow;593;false;focus;yes;759268;Chrome;112.0;Windows;10;undefined;undefined;1536 x 864;1536 x 864
H036;23;Mannelijk;Rechts;1;109;left;no;50;leftarrow;342;true;focus;yes;760370;Chrome;112.0;Windows;10;undefined;undefined;1536 x 864;1536 x 864
H036;23;Mannelijk;Rechts;1;110;right;no;50;rightarrow;623;true;focus;yes;761758;Chrome;112.0;Windows;10;undefined;undefined;1536 x 864;1536 x 864
H036;23;Mannelijk;Rechts;1;111;left;no;50;leftarrow;311;true;focus;yes;762832;Chrome;112.0;Windows;10;undefined;undefined;1536 x 864;1536 x 864
H036;23;Mannelijk;Rechts;1;112;left;yes;50;rightarrow;695;false;focus;yes;764293;Chrome;112.0;Windows;10;undefined;undefined;1536 x 864;1536 x 864
H036;23;Mannelijk;Rechts;1;113;right;no;50;rightarrow;301;true;focus;yes;765370;Chrome;112.0;Windows;10;undefined;undefined;1536 x 864;1536 x 864
H036;23;Mannelijk;Rechts;1;114;right;yes;50;rightarrow;412;false;focus;yes;766552;Chrome;112.0;Windows;10;undefined;undefined;1536 x 864;1536 x 864
H036;23;Mannelijk;Rechts;1;115;right;no;50;rightarrow;563;true;focus;yes;768131;Chrome;112.0;Windows;10;undefined;undefined;1536 x 864;1536 x 864
H036;23;Mannelijk;Rechts;1;116;right;no;50;rightarrow;504;true;focus;yes;769416;Chrome;112.0;Windows;10;undefined;undefined;1536 x 864;1536 x 864
H036;23;Mannelijk;Rechts;1;117;left;no;50;leftarrow;399;true;focus;yes;770593;Chrome;112.0;Windows;10;undefined;undefined;1536 x 864;1536 x 864
H036;23;Mannelijk;Rechts;1;118;left;no;50;leftarrow;306;true;focus;yes;771665;Chrome;112.0;Windows;10;undefined;undefined;1536 x 864;1536 x 864
H036;23;Mannelijk;Rechts;1;119;left;no;50;leftarrow;344;true;focus;yes;772779;Chrome;112.0;Windows;10;undefined;undefined;1536 x 864;1536 x 864
H036;23;Mannelijk;Rechts;1;120;left;yes;50;rightarrow;495;false;focus;yes;774051;Chrome;112.0;Windows;10;undefined;undefined;1536 x 864;1536 x 864
H036;23;Mannelijk;Rechts;1;121;left;no;50;leftarrow;352;true;focus;yes;775180;Chrome;112.0;Windows;10;undefined;undefined;1536 x 864;1536 x 864
H036;23;Mannelijk;Rechts;1;122;left;no;50;leftarrow;296;true;focus;yes;776249;Chrome;112.0;Windows;10;undefined;undefined;1536 x 864;1536 x 864
H036;23;Mannelijk;Rechts;1;123;right;no;50;rightarrow;551;true;focus;yes;777580;Chrome;112.0;Windows;10;undefined;undefined;1536 x 864;1536 x 864
H036;23;Mannelijk;Rechts;1;124;right;no;50;rightarrow;296;true;focus;yes;778658;Chrome;112.0;Windows;10;undefined;undefined;1536 x 864;1536 x 864
H036;23;Mannelijk;Rechts;1;125;right;no;50;rightarrow;289;true;focus;yes;779705;Chrome;112.0;Windows;10;undefined;undefined;1536 x 864;1536 x 864
H036;23;Mannelijk;Rechts;1;126;left;no;50;leftarrow;399;true;focus;yes;780880;Chrome;112.0;Windows;10;undefined;undefined;1536 x 864;1536 x 864
H036;23;Mannelijk;Rechts;1;127;left;yes;50;rightarrow;472;false;focus;yes;782122;Chrome;112.0;Windows;10;undefined;undefined;1536 x 864;1536 x 864
H036;23;Mannelijk;Rechts;1;128;right;yes;50;leftarrow;532;false;focus;yes;783419;Chrome;112.0;Windows;10;undefined;undefined;1536 x 864;1536 x 864
H036;23;Mannelijk;Rechts;2;1;left;no;50;leftarrow;362;true;focus;yes;942710;Chrome;112.0;Windows;10;undefined;undefined;1536 x 864;1536 x 864
H036;23;Mannelijk;Rechts;2;2;left;no;50;leftarrow;370;true;focus;yes;943851;Chrome;112.0;Windows;10;undefined;undefined;1536 x 864;1536 x 864
H036;23;Mannelijk;Rechts;2;3;right;no;50;rightarrow;327;true;focus;yes;944952;Chrome;112.0;Windows;10;undefined;undefined;1536 x 864;1536 x 864
H036;23;Mannelijk;Rechts;2;4;left;yes;50;undefined;null;true;focus;yes;946973;Chrome;112.0;Windows;10;undefined;undefined;1536 x 864;1536 x 864
H036;23;Mannelijk;Rechts;2;5;left;no;100;leftarrow;447;true;focus;yes;948177;Chrome;112.0;Windows;10;undefined;undefined;1536 x 864;1536 x 864
H036;23;Mannelijk;Rechts;2;6;right;yes;100;rightarrow;314;false;focus;yes;949271;Chrome;112.0;Windows;10;undefined;undefined;1536 x 864;1536 x 864
H036;23;Mannelijk;Rechts;2;7;right;no;50;rightarrow;448;true;focus;yes;950485;Chrome;112.0;Windows;10;undefined;undefined;1536 x 864;1536 x 864
H036;23;Mannelijk;Rechts;2;8;right;no;50;rightarrow;348;true;focus;yes;951602;Chrome;112.0;Windows;10;undefined;undefined;1536 x 864;1536 x 864
H036;23;Mannelijk;Rechts;2;9;left;no;50;leftarrow;340;true;focus;yes;952700;Chrome;112.0;Windows;10;undefined;undefined;1536 x 864;1536 x 864
H036;23;Mannelijk;Rechts;2;10;left;no;50;leftarrow;337;true;focus;yes;953796;Chrome;112.0;Windows;10;undefined;undefined;1536 x 864;1536 x 864
H036;23;Mannelijk;Rechts;2;11;right;yes;50;undefined;null;true;focus;yes;955831;Chrome;112.0;Windows;10;undefined;undefined;1536 x 864;1536 x 864
H036;23;Mannelijk;Rechts;2;12;right;no;100;rightarrow;363;true;focus;yes;956976;Chrome;112.0;Windows;10;undefined;undefined;1536 x 864;1536 x 864
H036;23;Mannelijk;Rechts;2;13;right;no;100;rightarrow;318;true;focus;yes;958069;Chrome;112.0;Windows;10;undefined;undefined;1536 x 864;1536 x 864
H036;23;Mannelijk;Rechts;2;14;right;no;100;rightarrow;335;true;focus;yes;959174;Chrome;112.0;Windows;10;undefined;undefined;1536 x 864;1536 x 864
H036;23;Mannelijk;Rechts;2;15;left;no;100;leftarrow;332;true;focus;yes;960284;Chrome;112.0;Windows;10;undefined;undefined;1536 x 864;1536 x 864
H036;23;Mannelijk;Rechts;2;16;left;yes;100;undefined;null;true;focus;yes;962302;Chrome;112.0;Windows;10;undefined;undefined;1536 x 864;1536 x 864
H036;23;Mannelijk;Rechts;2;17;right;no;150;rightarrow;391;true;focus;yes;963468;Chrome;112.0;Windows;10;undefined;undefined;1536 x 864;1536 x 864
H036;23;Mannelijk;Rechts;2;18;left;no;150;leftarrow;483;true;focus;yes;964714;Chrome;112.0;Windows;10;undefined;undefined;1536 x 864;1536 x 864
H036;23;Mannelijk;Rechts;2;19;left;no;150;leftarrow;342;true;focus;yes;965822;Chrome;112.0;Windows;10;undefined;undefined;1536 x 864;1536 x 864
H036;23;Mannelijk;Rechts;2;20;right;no;150;rightarrow;367;true;focus;yes;966965;Chrome;112.0;Windows;10;undefined;undefined;1536 x 864;1536 x 864
H036;23;Mannelijk;Rechts;2;21;left;no;150;leftarrow;306;true;focus;yes;968041;Chrome;112.0;Windows;10;undefined;undefined;1536 x 864;1536 x 864
H036;23;Mannelijk;Rechts;2;22;right;no;150;rightarrow;273;true;focus;yes;969080;Chrome;112.0;Windows;10;undefined;undefined;1536 x 864;1536 x 864
H036;23;Mannelijk;Rechts;2;23;right;yes;150;undefined;null;true;focus;yes;971103;Chrome;112.0;Windows;10;undefined;undefined;1536 x 864;1536 x 864
H036;23;Mannelijk;Rechts;2;24;left;yes;200;undefined;null;true;focus;yes;973127;Chrome;112.0;Windows;10;undefined;undefined;1536 x 864;1536 x 864
H036;23;Mannelijk;Rechts;2;25;right;no;250;rightarrow;552;true;focus;yes;974458;Chrome;112.0;Windows;10;undefined;undefined;1536 x 864;1536 x 864
H036;23;Mannelijk;Rechts;2;26;left;no;250;leftarrow;290;true;focus;yes;975524;Chrome;112.0;Windows;10;undefined;undefined;1536 x 864;1536 x 864
H036;23;Mannelijk;Rechts;2;27;left;yes;250;leftarrow;333;false;focus;yes;976617;Chrome;112.0;Windows;10;undefined;undefined;1536 x 864;1536 x 864
H036;23;Mannelijk;Rechts;2;28;left;no;200;leftarrow;524;true;focus;yes;977917;Chrome;112.0;Windows;10;undefined;undefined;1536 x 864;1536 x 864
H036;23;Mannelijk;Rechts;2;29;left;no;200;leftarrow;373;true;focus;yes;979064;Chrome;112.0;Windows;10;undefined;undefined;1536 x 864;1536 x 864
H036;23;Mannelijk;Rechts;2;30;right;no;200;rightarrow;350;true;focus;yes;980194;Chrome;112.0;Windows;10;undefined;undefined;1536 x 864;1536 x 864
H036;23;Mannelijk;Rechts;2;31;right;yes;200;rightarrow;286;false;focus;yes;981253;Chrome;112.0;Windows;10;undefined;undefined;1536 x 864;1536 x 864
H036;23;Mannelijk;Rechts;2;32;right;no;150;rightarrow;275;true;focus;yes;982298;Chrome;112.0;Windows;10;undefined;undefined;1536 x 864;1536 x 864
H036;23;Mannelijk;Rechts;2;33;left;no;150;leftarrow;360;true;focus;yes;983425;Chrome;112.0;Windows;10;undefined;undefined;1536 x 864;1536 x 864
H036;23;Mannelijk;Rechts;2;34;right;yes;150;undefined;null;true;focus;yes;985457;Chrome;112.0;Windows;10;undefined;undefined;1536 x 864;1536 x 864
H036;23;Mannelijk;Rechts;2;35;right;no;200;rightarrow;684;true;focus;yes;986918;Chrome;112.0;Windows;10;undefined;undefined;1536 x 864;1536 x 864
H036;23;Mannelijk;Rechts;2;36;right;no;200;rightarrow;361;true;focus;yes;988046;Chrome;112.0;Windows;10;undefined;undefined;1536 x 864;1536 x 864
H036;23;Mannelijk;Rechts;2;37;right;no;200;rightarrow;254;true;focus;yes;989065;Chrome;112.0;Windows;10;undefined;undefined;1536 x 864;1536 x 864
H036;23;Mannelijk;Rechts;2;38;left;no;200;leftarrow;377;true;focus;yes;990217;Chrome;112.0;Windows;10;undefined;undefined;1536 x 864;1536 x 864
H036;23;Mannelijk;Rechts;2;39;left;yes;200;undefined;null;true;focus;yes;992242;Chrome;112.0;Windows;10;undefined;undefined;1536 x 864;1536 x 864
H036;23;Mannelijk;Rechts;2;40;left;no;250;leftarrow;412;true;focus;yes;993424;Chrome;112.0;Windows;10;undefined;undefined;1536 x 864;1536 x 864
H036;23;Mannelijk;Rechts;2;41;right;no;250;rightarrow;445;true;focus;yes;994631;Chrome;112.0;Windows;10;undefined;undefined;1536 x 864;1536 x 864
H036;23;Mannelijk;Rechts;2;42;right;yes;250;rightarrow;612;false;focus;yes;996021;Chrome;112.0;Windows;10;undefined;undefined;1536 x 864;1536 x 864
H036;23;Mannelijk;Rechts;2;43;right;no;200;rightarrow;993;true;focus;yes;997784;Chrome;112.0;Windows;10;undefined;undefined;1536 x 864;1536 x 864
H036;23;Mannelijk;Rechts;2;44;left;no;200;leftarrow;493;true;focus;yes;999059;Chrome;112.0;Windows;10;undefined;undefined;1536 x 864;1536 x 864
H036;23;Mannelijk;Rechts;2;45;right;no;200;rightarrow;495;true;focus;yes;1000322;Chrome;112.0;Windows;10;undefined;undefined;1536 x 864;1536 x 864
H036;23;Mannelijk;Rechts;2;46;left;no;200;rightarrow;457;false;focus;yes;1001542;Chrome;112.0;Windows;10;undefined;undefined;1536 x 864;1536 x 864
H036;23;Mannelijk;Rechts;2;47;left;yes;200;leftarrow;348;false;focus;yes;1002661;Chrome;112.0;Windows;10;undefined;undefined;1536 x 864;1536 x 864
H036;23;Mannelijk;Rechts;2;48;left;no;150;leftarrow;841;true;focus;yes;1004284;Chrome;112.0;Windows;10;undefined;undefined;1536 x 864;1536 x 864
H036;23;Mannelijk;Rechts;2;49;right;no;150;rightarrow;312;true;focus;yes;1005358;Chrome;112.0;Windows;10;undefined;undefined;1536 x 864;1536 x 864
H036;23;Mannelijk;Rechts;2;50;left;no;150;leftarrow;367;true;focus;yes;1006494;Chrome;112.0;Windows;10;undefined;undefined;1536 x 864;1536 x 864
H036;23;Mannelijk;Rechts;2;51;right;no;150;rightarrow;296;true;focus;yes;1007563;Chrome;112.0;Windows;10;undefined;undefined;1536 x 864;1536 x 864
H036;23;Mannelijk;Rechts;2;52;right;no;150;leftarrow;301;false;focus;yes;1008630;Chrome;112.0;Windows;10;undefined;undefined;1536 x 864;1536 x 864
H036;23;Mannelijk;Rechts;2;53;left;no;150;leftarrow;320;true;focus;yes;1009708;Chrome;112.0;Windows;10;undefined;undefined;1536 x 864;1536 x 864
H036;23;Mannelijk;Rechts;2;54;left;no;150;leftarrow;300;true;focus;yes;1010780;Chrome;112.0;Windows;10;undefined;undefined;1536 x 864;1536 x 864
H036;23;Mannelijk;Rechts;2;55;left;yes;150;leftarrow;321;false;focus;yes;1011872;Chrome;112.0;Windows;10;undefined;undefined;1536 x 864;1536 x 864
H036;23;Mannelijk;Rechts;2;56;right;yes;100;rightarrow;318;false;focus;yes;1012972;Chrome;112.0;Windows;10;undefined;undefined;1536 x 864;1536 x 864
H036;23;Mannelijk;Rechts;2;57;left;no;50;leftarrow;357;true;focus;yes;1014095;Chrome;112.0;Windows;10;undefined;undefined;1536 x 864;1536 x 864
H036;23;Mannelijk;Rechts;2;58;right;no;50;rightarrow;318;true;focus;yes;1015182;Chrome;112.0;Windows;10;undefined;undefined;1536 x 864;1536 x 864
H036;23;Mannelijk;Rechts;2;59;right;yes;50;undefined;null;true;focus;yes;1017208;Chrome;112.0;Windows;10;undefined;undefined;1536 x 864;1536 x 864
H036;23;Mannelijk;Rechts;2;60;left;no;100;leftarrow;314;true;focus;yes;1018281;Chrome;112.0;Windows;10;undefined;undefined;1536 x 864;1536 x 864
H036;23;Mannelijk;Rechts;2;61;right;no;100;rightarrow;345;true;focus;yes;1019385;Chrome;112.0;Windows;10;undefined;undefined;1536 x 864;1536 x 864
H036;23;Mannelijk;Rechts;2;62;left;yes;100;undefined;null;true;focus;yes;1021415;Chrome;112.0;Windows;10;undefined;undefined;1536 x 864;1536 x 864
H036;23;Mannelijk;Rechts;2;63;right;no;150;rightarrow;278;true;focus;yes;1022469;Chrome;112.0;Windows;10;undefined;undefined;1536 x 864;1536 x 864
H036;23;Mannelijk;Rechts;2;64;left;no;150;leftarrow;342;true;focus;yes;1023583;Chrome;112.0;Windows;10;undefined;undefined;1536 x 864;1536 x 864
H036;23;Mannelijk;Rechts;2;65;right;yes;150;rightarrow;523;false;focus;yes;1024888;Chrome;112.0;Windows;10;undefined;undefined;1536 x 864;1536 x 864
H036;23;Mannelijk;Rechts;2;66;left;yes;100;leftarrow;272;false;focus;yes;1025935;Chrome;112.0;Windows;10;undefined;undefined;1536 x 864;1536 x 864
H036;23;Mannelijk;Rechts;2;67;left;no;50;leftarrow;528;true;focus;yes;1027229;Chrome;112.0;Windows;10;undefined;undefined;1536 x 864;1536 x 864
H036;23;Mannelijk;Rechts;2;68;left;no;50;leftarrow;354;true;focus;yes;1028351;Chrome;112.0;Windows;10;undefined;undefined;1536 x 864;1536 x 864
H036;23;Mannelijk;Rechts;2;69;right;no;50;rightarrow;393;true;focus;yes;1029514;Chrome;112.0;Windows;10;undefined;undefined;1536 x 864;1536 x 864
H036;23;Mannelijk;Rechts;2;70;left;no;50;leftarrow;352;true;focus;yes;1030630;Chrome;112.0;Windows;10;undefined;undefined;1536 x 864;1536 x 864
H036;23;Mannelijk;Rechts;2;71;right;no;50;rightarrow;377;true;focus;yes;1031766;Chrome;112.0;Windows;10;undefined;undefined;1536 x 864;1536 x 864
H036;23;Mannelijk;Rechts;2;72;right;no;50;rightarrow;366;true;focus;yes;1032904;Chrome;112.0;Windows;10;undefined;undefined;1536 x 864;1536 x 864
H036;23;Mannelijk;Rechts;2;73;left;no;50;leftarrow;433;true;focus;yes;1034102;Chrome;112.0;Windows;10;undefined;undefined;1536 x 864;1536 x 864
H036;23;Mannelijk;Rechts;2;74;right;no;50;rightarrow;507;true;focus;yes;1035373;Chrome;112.0;Windows;10;undefined;undefined;1536 x 864;1536 x 864
H036;23;Mannelijk;Rechts;2;75;left;no;50;leftarrow;337;true;focus;yes;1036481;Chrome;112.0;Windows;10;undefined;undefined;1536 x 864;1536 x 864
H036;23;Mannelijk;Rechts;2;76;right;no;50;rightarrow;413;true;focus;yes;1037678;Chrome;112.0;Windows;10;undefined;undefined;1536 x 864;1536 x 864
H036;23;Mannelijk;Rechts;2;77;left;yes;50;undefined;null;true;focus;yes;1039715;Chrome;112.0;Windows;10;undefined;undefined;1536 x 864;1536 x 864
H036;23;Mannelijk;Rechts;2;78;right;no;100;rightarrow;525;true;focus;yes;1041016;Chrome;112.0;Windows;10;undefined;undefined;1536 x 864;1536 x 864
H036;23;Mannelijk;Rechts;2;79;left;no;100;leftarrow;423;true;focus;yes;1042200;Chrome;112.0;Windows;10;undefined;undefined;1536 x 864;1536 x 864
H036;23;Mannelijk;Rechts;2;80;right;yes;100;undefined;null;true;focus;yes;1044227;Chrome;112.0;Windows;10;undefined;undefined;1536 x 864;1536 x 864
H036;23;Mannelijk;Rechts;2;81;right;no;150;rightarrow;337;true;focus;yes;1045328;Chrome;112.0;Windows;10;undefined;undefined;1536 x 864;1536 x 864
H036;23;Mannelijk;Rechts;2;82;right;yes;150;undefined;null;true;focus;yes;1047364;Chrome;112.0;Windows;10;undefined;undefined;1536 x 864;1536 x 864
H036;23;Mannelijk;Rechts;2;83;right;no;200;rightarrow;452;true;focus;yes;1048578;Chrome;112.0;Windows;10;undefined;undefined;1536 x 864;1536 x 864
H036;23;Mannelijk;Rechts;2;84;right;no;200;rightarrow;583;true;focus;yes;1049935;Chrome;112.0;Windows;10;undefined;undefined;1536 x 864;1536 x 864
H036;23;Mannelijk;Rechts;2;85;left;no;200;leftarrow;533;true;focus;yes;1051236;Chrome;112.0;Windows;10;undefined;undefined;1536 x 864;1536 x 864
H036;23;Mannelijk;Rechts;2;86;left;no;200;leftarrow;498;true;focus;yes;1052498;Chrome;112.0;Windows;10;undefined;undefined;1536 x 864;1536 x 864
H036;23;Mannelijk;Rechts;2;87;left;no;200;leftarrow;546;true;focus;yes;1053822;Chrome;112.0;Windows;10;undefined;undefined;1536 x 864;1536 x 864
H036;23;Mannelijk;Rechts;2;88;left;yes;200;undefined;null;true;focus;yes;1055849;Chrome;112.0;Windows;10;undefined;undefined;1536 x 864;1536 x 864
H036;23;Mannelijk;Rechts;2;89;left;yes;250;undefined;null;true;focus;yes;1057877;Chrome;112.0;Windows;10;undefined;undefined;1536 x 864;1536 x 864
H036;23;Mannelijk;Rechts;2;90;left;no;300;leftarrow;576;true;focus;yes;1059217;Chrome;112.0;Windows;10;undefined;undefined;1536 x 864;1536 x 864
H036;23;Mannelijk;Rechts;2;91;left;no;300;leftarrow;319;true;focus;yes;1060301;Chrome;112.0;Windows;10;undefined;undefined;1536 x 864;1536 x 864
H036;23;Mannelijk;Rechts;2;92;right;no;300;rightarrow;538;true;focus;yes;1061620;Chrome;112.0;Windows;10;undefined;undefined;1536 x 864;1536 x 864
H036;23;Mannelijk;Rechts;2;93;left;no;300;leftarrow;547;true;focus;yes;1062944;Chrome;112.0;Windows;10;undefined;undefined;1536 x 864;1536 x 864
H036;23;Mannelijk;Rechts;2;94;right;no;300;rightarrow;376;true;focus;yes;1064087;Chrome;112.0;Windows;10;undefined;undefined;1536 x 864;1536 x 864
H036;23;Mannelijk;Rechts;2;95;right;no;300;rightarrow;494;true;focus;yes;1065356;Chrome;112.0;Windows;10;undefined;undefined;1536 x 864;1536 x 864
H036;23;Mannelijk;Rechts;2;96;right;yes;300;undefined;null;true;focus;yes;1067376;Chrome;112.0;Windows;10;undefined;undefined;1536 x 864;1536 x 864
H036;23;Mannelijk;Rechts;2;97;right;no;350;rightarrow;747;true;focus;yes;1068893;Chrome;112.0;Windows;10;undefined;undefined;1536 x 864;1536 x 864
H036;23;Mannelijk;Rechts;2;98;right;no;350;rightarrow;339;true;focus;yes;1070004;Chrome;112.0;Windows;10;undefined;undefined;1536 x 864;1536 x 864
H036;23;Mannelijk;Rechts;2;99;right;yes;350;rightarrow;508;false;focus;yes;1071284;Chrome;112.0;Windows;10;undefined;undefined;1536 x 864;1536 x 864
H036;23;Mannelijk;Rechts;2;100;right;no;300;rightarrow;674;true;focus;yes;1072726;Chrome;112.0;Windows;10;undefined;undefined;1536 x 864;1536 x 864
H036;23;Mannelijk;Rechts;2;101;left;no;300;leftarrow;713;true;focus;yes;1074202;Chrome;112.0;Windows;10;undefined;undefined;1536 x 864;1536 x 864
H036;23;Mannelijk;Rechts;2;102;left;yes;300;undefined;null;true;focus;yes;1076223;Chrome;112.0;Windows;10;undefined;undefined;1536 x 864;1536 x 864
H036;23;Mannelijk;Rechts;2;103;left;no;350;leftarrow;762;true;focus;yes;1077751;Chrome;112.0;Windows;10;undefined;undefined;1536 x 864;1536 x 864
H036;23;Mannelijk;Rechts;2;104;left;no;350;leftarrow;745;true;focus;yes;1079270;Chrome;112.0;Windows;10;undefined;undefined;1536 x 864;1536 x 864
H036;23;Mannelijk;Rechts;2;105;right;no;350;rightarrow;649;true;focus;yes;1080687;Chrome;112.0;Windows;10;undefined;undefined;1536 x 864;1536 x 864
H036;23;Mannelijk;Rechts;2;106;left;no;350;leftarrow;580;true;focus;yes;1082032;Chrome;112.0;Windows;10;undefined;undefined;1536 x 864;1536 x 864
H036;23;Mannelijk;Rechts;2;107;right;no;350;rightarrow;369;true;focus;yes;1083179;Chrome;112.0;Windows;10;undefined;undefined;1536 x 864;1536 x 864
H036;23;Mannelijk;Rechts;2;108;right;yes;350;undefined;null;true;focus;yes;1085203;Chrome;112.0;Windows;10;undefined;undefined;1536 x 864;1536 x 864
H036;23;Mannelijk;Rechts;2;109;left;no;400;leftarrow;696;true;focus;yes;1086667;Chrome;112.0;Windows;10;undefined;undefined;1536 x 864;1536 x 864
H036;23;Mannelijk;Rechts;2;110;left;no;400;leftarrow;862;true;focus;yes;1088288;Chrome;112.0;Windows;10;undefined;undefined;1536 x 864;1536 x 864
H036;23;Mannelijk;Rechts;2;111;right;no;400;rightarrow;395;true;focus;yes;1089454;Chrome;112.0;Windows;10;undefined;undefined;1536 x 864;1536 x 864
H036;23;Mannelijk;Rechts;2;112;left;yes;400;leftarrow;537;false;focus;yes;1090769;Chrome;112.0;Windows;10;undefined;undefined;1536 x 864;1536 x 864
H036;23;Mannelijk;Rechts;2;113;right;no;350;rightarrow;830;true;focus;yes;1092365;Chrome;112.0;Windows;10;undefined;undefined;1536 x 864;1536 x 864
H036;23;Mannelijk;Rechts;2;114;left;yes;350;undefined;null;true;focus;yes;1094399;Chrome;112.0;Windows;10;undefined;undefined;1536 x 864;1536 x 864
H036;23;Mannelijk;Rechts;2;115;right;no;400;rightarrow;340;true;focus;yes;1095511;Chrome;112.0;Windows;10;undefined;undefined;1536 x 864;1536 x 864
H036;23;Mannelijk;Rechts;2;116;left;no;400;leftarrow;516;true;focus;yes;1096798;Chrome;112.0;Windows;10;undefined;undefined;1536 x 864;1536 x 864
H036;23;Mannelijk;Rechts;2;117;right;no;400;rightarrow;530;true;focus;yes;1098084;Chrome;112.0;Windows;10;undefined;undefined;1536 x 864;1536 x 864
H036;23;Mannelijk;Rechts;2;118;left;no;400;leftarrow;655;true;focus;yes;1099515;Chrome;112.0;Windows;10;undefined;undefined;1536 x 864;1536 x 864
H036;23;Mannelijk;Rechts;2;119;right;yes;400;rightarrow;360;false;focus;yes;1100645;Chrome;112.0;Windows;10;undefined;undefined;1536 x 864;1536 x 864
H036;23;Mannelijk;Rechts;2;120;left;no;350;leftarrow;501;true;focus;yes;1101918;Chrome;112.0;Windows;10;undefined;undefined;1536 x 864;1536 x 864
H036;23;Mannelijk;Rechts;2;121;right;yes;350;rightarrow;507;false;focus;yes;1103199;Chrome;112.0;Windows;10;undefined;undefined;1536 x 864;1536 x 864
H036;23;Mannelijk;Rechts;2;122;left;no;300;leftarrow;297;true;focus;yes;1104269;Chrome;112.0;Windows;10;undefined;undefined;1536 x 864;1536 x 864
H036;23;Mannelijk;Rechts;2;123;left;yes;300;leftarrow;722;false;focus;yes;1105750;Chrome;112.0;Windows;10;undefined;undefined;1536 x 864;1536 x 864
H036;23;Mannelijk;Rechts;2;124;right;no;250;rightarrow;636;true;focus;yes;1107156;Chrome;112.0;Windows;10;undefined;undefined;1536 x 864;1536 x 864
H036;23;Mannelijk;Rechts;2;125;left;no;250;leftarrow;707;true;focus;yes;1108632;Chrome;112.0;Windows;10;undefined;undefined;1536 x 864;1536 x 864
H036;23;Mannelijk;Rechts;2;126;right;no;250;rightarrow;893;true;focus;yes;1110294;Chrome;112.0;Windows;10;undefined;undefined;1536 x 864;1536 x 864
H036;23;Mannelijk;Rechts;2;127;left;no;250;leftarrow;457;true;focus;yes;1111520;Chrome;112.0;Windows;10;undefined;undefined;1536 x 864;1536 x 864
H036;23;Mannelijk;Rechts;2;128;right;no;250;rightarrow;451;true;focus;yes;1112742;Chrome;112.0;Windows;10;undefined;undefined;1536 x 864;1536 x 864
H036;23;Mannelijk;Rechts;3;1;right;no;250;rightarrow;398;true;focus;yes;1170000;Chrome;112.0;Windows;10;undefined;undefined;1536 x 864;1536 x 864
H036;23;Mannelijk;Rechts;3;2;left;no;250;leftarrow;299;true;focus;yes;1171077;Chrome;112.0;Windows;10;undefined;undefined;1536 x 864;1536 x 864
H036;23;Mannelijk;Rechts;3;3;right;no;250;rightarrow;385;true;focus;yes;1172232;Chrome;112.0;Windows;10;undefined;undefined;1536 x 864;1536 x 864
H036;23;Mannelijk;Rechts;3;4;left;yes;250;undefined;null;true;focus;yes;1174248;Chrome;112.0;Windows;10;undefined;undefined;1536 x 864;1536 x 864
H036;23;Mannelijk;Rechts;3;5;left;no;300;leftarrow;499;true;focus;yes;1175511;Chrome;112.0;Windows;10;undefined;undefined;1536 x 864;1536 x 864
H036;23;Mannelijk;Rechts;3;6;left;no;300;leftarrow;599;true;focus;yes;1176884;Chrome;112.0;Windows;10;undefined;undefined;1536 x 864;1536 x 864
H036;23;Mannelijk;Rechts;3;7;right;no;300;rightarrow;537;true;focus;yes;1178185;Chrome;112.0;Windows;10;undefined;undefined;1536 x 864;1536 x 864
H036;23;Mannelijk;Rechts;3;8;right;yes;300;undefined;null;true;focus;yes;1180205;Chrome;112.0;Windows;10;undefined;undefined;1536 x 864;1536 x 864
H036;23;Mannelijk;Rechts;3;9;right;no;350;rightarrow;392;true;focus;yes;1181377;Chrome;112.0;Windows;10;undefined;undefined;1536 x 864;1536 x 864
H036;23;Mannelijk;Rechts;3;10;right;yes;350;rightarrow;433;false;focus;yes;1182582;Chrome;112.0;Windows;10;undefined;undefined;1536 x 864;1536 x 864
H036;23;Mannelijk;Rechts;3;11;left;yes;300;undefined;null;true;focus;yes;1184609;Chrome;112.0;Windows;10;undefined;undefined;1536 x 864;1536 x 864
H036;23;Mannelijk;Rechts;3;12;left;no;350;leftarrow;600;true;focus;yes;1185973;Chrome;112.0;Windows;10;undefined;undefined;1536 x 864;1536 x 864
H036;23;Mannelijk;Rechts;3;13;left;no;350;leftarrow;641;true;focus;yes;1187377;Chrome;112.0;Windows;10;undefined;undefined;1536 x 864;1536 x 864
H036;23;Mannelijk;Rechts;3;14;right;no;350;rightarrow;690;true;focus;yes;1188838;Chrome;112.0;Windows;10;undefined;undefined;1536 x 864;1536 x 864
H036;23;Mannelijk;Rechts;3;15;right;no;350;rightarrow;634;true;focus;yes;1190240;Chrome;112.0;Windows;10;undefined;undefined;1536 x 864;1536 x 864
H036;23;Mannelijk;Rechts;3;16;left;no;350;leftarrow;576;true;focus;yes;1191585;Chrome;112.0;Windows;10;undefined;undefined;1536 x 864;1536 x 864
H036;23;Mannelijk;Rechts;3;17;left;no;350;leftarrow;476;true;focus;yes;1192832;Chrome;112.0;Windows;10;undefined;undefined;1536 x 864;1536 x 864
H036;23;Mannelijk;Rechts;3;18;left;no;350;leftarrow;611;true;focus;yes;1194211;Chrome;112.0;Windows;10;undefined;undefined;1536 x 864;1536 x 864
H036;23;Mannelijk;Rechts;3;19;left;no;350;leftarrow;634;true;focus;yes;1195618;Chrome;112.0;Windows;10;undefined;undefined;1536 x 864;1536 x 864
H036;23;Mannelijk;Rechts;3;20;left;yes;350;undefined;null;true;focus;yes;1197650;Chrome;112.0;Windows;10;undefined;undefined;1536 x 864;1536 x 864
H036;23;Mannelijk;Rechts;3;21;right;yes;400;undefined;null;true;focus;yes;1199689;Chrome;112.0;Windows;10;undefined;undefined;1536 x 864;1536 x 864
H036;23;Mannelijk;Rechts;3;22;right;no;450;rightarrow;668;true;focus;yes;1201124;Chrome;112.0;Windows;10;undefined;undefined;1536 x 864;1536 x 864
H036;23;Mannelijk;Rechts;3;23;right;no;450;rightarrow;426;true;focus;yes;1202319;Chrome;112.0;Windows;10;undefined;undefined;1536 x 864;1536 x 864
H036;23;Mannelijk;Rechts;3;24;right;no;450;rightarrow;420;true;focus;yes;1203497;Chrome;112.0;Windows;10;undefined;undefined;1536 x 864;1536 x 864
H036;23;Mannelijk;Rechts;3;25;right;no;450;rightarrow;716;true;focus;yes;1204979;Chrome;112.0;Windows;10;undefined;undefined;1536 x 864;1536 x 864
H036;23;Mannelijk;Rechts;3;26;left;no;450;leftarrow;769;true;focus;yes;1206520;Chrome;112.0;Windows;10;undefined;undefined;1536 x 864;1536 x 864
H036;23;Mannelijk;Rechts;3;27;right;no;450;rightarrow;900;true;focus;yes;1208192;Chrome;112.0;Windows;10;undefined;undefined;1536 x 864;1536 x 864
H036;23;Mannelijk;Rechts;3;28;left;no;450;leftarrow;552;true;focus;yes;1209509;Chrome;112.0;Windows;10;undefined;undefined;1536 x 864;1536 x 864
H036;23;Mannelijk;Rechts;3;29;right;no;450;rightarrow;500;true;focus;yes;1210773;Chrome;112.0;Windows;10;undefined;undefined;1536 x 864;1536 x 864
H036;23;Mannelijk;Rechts;3;30;left;no;450;leftarrow;612;true;focus;yes;1212160;Chrome;112.0;Windows;10;undefined;undefined;1536 x 864;1536 x 864
H036;23;Mannelijk;Rechts;3;31;right;yes;450;rightarrow;601;false;focus;yes;1213536;Chrome;112.0;Windows;10;undefined;undefined;1536 x 864;1536 x 864
H036;23;Mannelijk;Rechts;3;32;left;yes;400;undefined;null;true;focus;yes;1215568;Chrome;112.0;Windows;10;undefined;undefined;1536 x 864;1536 x 864
H036;23;Mannelijk;Rechts;3;33;left;no;450;leftarrow;665;true;focus;yes;1217004;Chrome;112.0;Windows;10;undefined;undefined;1536 x 864;1536 x 864
H036;23;Mannelijk;Rechts;3;34;left;no;450;leftarrow;605;true;focus;yes;1218388;Chrome;112.0;Windows;10;undefined;undefined;1536 x 864;1536 x 864
H036;23;Mannelijk;Rechts;3;35;right;no;450;rightarrow;988;true;focus;yes;1220153;Chrome;112.0;Windows;10;undefined;undefined;1536 x 864;1536 x 864
H036;23;Mannelijk;Rechts;3;36;left;yes;450;undefined;null;true;focus;yes;1222182;Chrome;112.0;Windows;10;undefined;undefined;1536 x 864;1536 x 864
H036;23;Mannelijk;Rechts;3;37;right;no;500;rightarrow;813;true;focus;yes;1223756;Chrome;112.0;Windows;10;undefined;undefined;1536 x 864;1536 x 864
H036;23;Mannelijk;Rechts;3;38;right;yes;500;rightarrow;653;false;focus;yes;1225176;Chrome;112.0;Windows;10;undefined;undefined;1536 x 864;1536 x 864
H036;23;Mannelijk;Rechts;3;39;right;no;450;rightarrow;813;true;focus;yes;1226753;Chrome;112.0;Windows;10;undefined;undefined;1536 x 864;1536 x 864
H036;23;Mannelijk;Rechts;3;40;left;no;450;leftarrow;1239;true;focus;yes;1228759;Chrome;112.0;Windows;10;undefined;undefined;1536 x 864;1536 x 864
H036;23;Mannelijk;Rechts;3;41;left;no;450;leftarrow;779;true;focus;yes;1230308;Chrome;112.0;Windows;10;undefined;undefined;1536 x 864;1536 x 864
H036;23;Mannelijk;Rechts;3;42;left;yes;450;undefined;null;true;focus;yes;1232331;Chrome;112.0;Windows;10;undefined;undefined;1536 x 864;1536 x 864
H036;23;Mannelijk;Rechts;3;43;left;no;500;leftarrow;620;true;focus;yes;1233710;Chrome;112.0;Windows;10;undefined;undefined;1536 x 864;1536 x 864
H036;23;Mannelijk;Rechts;3;44;right;yes;500;undefined;null;true;focus;yes;1235751;Chrome;112.0;Windows;10;undefined;undefined;1536 x 864;1536 x 864
H036;23;Mannelijk;Rechts;3;45;left;no;550;leftarrow;684;true;focus;yes;1237204;Chrome;112.0;Windows;10;undefined;undefined;1536 x 864;1536 x 864
H036;23;Mannelijk;Rechts;3;46;right;no;550;rightarrow;689;true;focus;yes;1238660;Chrome;112.0;Windows;10;undefined;undefined;1536 x 864;1536 x 864
H036;23;Mannelijk;Rechts;3;47;right;no;550;rightarrow;688;true;focus;yes;1240122;Chrome;112.0;Windows;10;undefined;undefined;1536 x 864;1536 x 864
H036;23;Mannelijk;Rechts;3;48;right;no;550;rightarrow;717;true;focus;yes;1241606;Chrome;112.0;Windows;10;undefined;undefined;1536 x 864;1536 x 864
H036;23;Mannelijk;Rechts;3;49;right;no;550;rightarrow;742;true;focus;yes;1243132;Chrome;112.0;Windows;10;undefined;undefined;1536 x 864;1536 x 864
H036;23;Mannelijk;Rechts;3;50;right;no;550;rightarrow;765;true;focus;yes;1244662;Chrome;112.0;Windows;10;undefined;undefined;1536 x 864;1536 x 864
H036;23;Mannelijk;Rechts;3;51;left;no;550;leftarrow;737;true;focus;yes;1246169;Chrome;112.0;Windows;10;undefined;undefined;1536 x 864;1536 x 864
H036;23;Mannelijk;Rechts;3;52;left;no;550;leftarrow;879;true;focus;yes;1247819;Chrome;112.0;Windows;10;undefined;undefined;1536 x 864;1536 x 864
H036;23;Mannelijk;Rechts;3;53;right;no;550;rightarrow;615;true;focus;yes;1249208;Chrome;112.0;Windows;10;undefined;undefined;1536 x 864;1536 x 864
H036;23;Mannelijk;Rechts;3;54;left;no;550;leftarrow;601;true;focus;yes;1250571;Chrome;112.0;Windows;10;undefined;undefined;1536 x 864;1536 x 864
H036;23;Mannelijk;Rechts;3;55;right;yes;550;rightarrow;700;false;focus;yes;1252032;Chrome;112.0;Windows;10;undefined;undefined;1536 x 864;1536 x 864
H036;23;Mannelijk;Rechts;3;56;left;yes;500;undefined;null;true;focus;yes;1254063;Chrome;112.0;Windows;10;undefined;undefined;1536 x 864;1536 x 864
H036;23;Mannelijk;Rechts;3;57;left;yes;550;leftarrow;510;false;focus;yes;1255366;Chrome;112.0;Windows;10;undefined;undefined;1536 x 864;1536 x 864
H036;23;Mannelijk;Rechts;3;58;left;no;500;leftarrow;833;true;focus;yes;1256962;Chrome;112.0;Windows;10;undefined;undefined;1536 x 864;1536 x 864
H036;23;Mannelijk;Rechts;3;59;left;no;500;leftarrow;630;true;focus;yes;1258374;Chrome;112.0;Windows;10;undefined;undefined;1536 x 864;1536 x 864
H036;23;Mannelijk;Rechts;3;60;left;no;500;leftarrow;784;true;focus;yes;1259934;Chrome;112.0;Windows;10;undefined;undefined;1536 x 864;1536 x 864
H036;23;Mannelijk;Rechts;3;61;right;no;500;rightarrow;771;true;focus;yes;1261491;Chrome;112.0;Windows;10;undefined;undefined;1536 x 864;1536 x 864
H036;23;Mannelijk;Rechts;3;62;right;no;500;rightarrow;850;true;focus;yes;1263112;Chrome;112.0;Windows;10;undefined;undefined;1536 x 864;1536 x 864
H036;23;Mannelijk;Rechts;3;63;right;yes;500;undefined;null;true;focus;yes;1265148;Chrome;112.0;Windows;10;undefined;undefined;1536 x 864;1536 x 864
H036;23;Mannelijk;Rechts;3;64;right;no;550;rightarrow;727;true;focus;yes;1266647;Chrome;112.0;Windows;10;undefined;undefined;1536 x 864;1536 x 864
H036;23;Mannelijk;Rechts;3;65;left;no;550;leftarrow;726;true;focus;yes;1268149;Chrome;112.0;Windows;10;undefined;undefined;1536 x 864;1536 x 864
H036;23;Mannelijk;Rechts;3;66;right;no;550;rightarrow;673;true;focus;yes;1269598;Chrome;112.0;Windows;10;undefined;undefined;1536 x 864;1536 x 864
H036;23;Mannelijk;Rechts;3;67;left;yes;550;leftarrow;683;false;focus;yes;1271061;Chrome;112.0;Windows;10;undefined;undefined;1536 x 864;1536 x 864
H036;23;Mannelijk;Rechts;3;68;right;no;500;rightarrow;902;true;focus;yes;1272734;Chrome;112.0;Windows;10;undefined;undefined;1536 x 864;1536 x 864
H036;23;Mannelijk;Rechts;3;69;left;no;500;leftarrow;958;true;focus;yes;1274461;Chrome;112.0;Windows;10;undefined;undefined;1536 x 864;1536 x 864
H036;23;Mannelijk;Rechts;3;70;right;yes;500;undefined;null;true;focus;yes;1276481;Chrome;112.0;Windows;10;undefined;undefined;1536 x 864;1536 x 864
H036;23;Mannelijk;Rechts;3;71;right;no;550;rightarrow;610;true;focus;yes;1277864;Chrome;112.0;Windows;10;undefined;undefined;1536 x 864;1536 x 864
H036;23;Mannelijk;Rechts;3;72;left;no;550;undefined;null;false;focus;yes;1279906;Chrome;112.0;Windows;10;undefined;undefined;1536 x 864;1536 x 864
H036;23;Mannelijk;Rechts;3;73;right;no;550;rightarrow;995;true;focus;yes;1281665;Chrome;112.0;Windows;10;undefined;undefined;1536 x 864;1536 x 864
H036;23;Mannelijk;Rechts;3;74;left;no;550;leftarrow;1028;true;focus;yes;1283463;Chrome;112.0;Windows;10;undefined;undefined;1536 x 864;1536 x 864
H036;23;Mannelijk;Rechts;3;75;right;yes;550;undefined;null;true;focus;yes;1285482;Chrome;112.0;Windows;10;undefined;undefined;1536 x 864;1536 x 864
H036;23;Mannelijk;Rechts;3;76;left;no;600;leftarrow;686;true;focus;yes;1286937;Chrome;112.0;Windows;10;undefined;undefined;1536 x 864;1536 x 864
H036;23;Mannelijk;Rechts;3;77;right;no;600;rightarrow;935;true;focus;yes;1288640;Chrome;112.0;Windows;10;undefined;undefined;1536 x 864;1536 x 864
H036;23;Mannelijk;Rechts;3;78;right;no;600;rightarrow;889;true;focus;yes;1290298;Chrome;112.0;Windows;10;undefined;undefined;1536 x 864;1536 x 864
H036;23;Mannelijk;Rechts;3;79;left;yes;600;leftarrow;704;false;focus;yes;1291769;Chrome;112.0;Windows;10;undefined;undefined;1536 x 864;1536 x 864
H036;23;Mannelijk;Rechts;3;80;left;no;550;leftarrow;815;true;focus;yes;1293349;Chrome;112.0;Windows;10;undefined;undefined;1536 x 864;1536 x 864
H036;23;Mannelijk;Rechts;3;81;right;yes;550;undefined;null;true;focus;yes;1295375;Chrome;112.0;Windows;10;undefined;undefined;1536 x 864;1536 x 864
H036;23;Mannelijk;Rechts;3;82;left;yes;600;leftarrow;616;false;focus;yes;1296767;Chrome;112.0;Windows;10;undefined;undefined;1536 x 864;1536 x 864
H036;23;Mannelijk;Rechts;3;83;right;no;550;rightarrow;868;true;focus;yes;1298397;Chrome;112.0;Windows;10;undefined;undefined;1536 x 864;1536 x 864
H036;23;Mannelijk;Rechts;3;84;right;no;550;rightarrow;937;true;focus;yes;1300094;Chrome;112.0;Windows;10;undefined;undefined;1536 x 864;1536 x 864
H036;23;Mannelijk;Rechts;3;85;right;no;550;rightarrow;925;true;focus;yes;1301803;Chrome;112.0;Windows;10;undefined;undefined;1536 x 864;1536 x 864
H036;23;Mannelijk;Rechts;3;86;left;no;550;leftarrow;741;true;focus;yes;1303320;Chrome;112.0;Windows;10;undefined;undefined;1536 x 864;1536 x 864
H036;23;Mannelijk;Rechts;3;87;left;no;550;leftarrow;704;true;focus;yes;1304801;Chrome;112.0;Windows;10;undefined;undefined;1536 x 864;1536 x 864
H036;23;Mannelijk;Rechts;3;88;left;no;550;leftarrow;703;true;focus;yes;1306272;Chrome;112.0;Windows;10;undefined;undefined;1536 x 864;1536 x 864
H036;23;Mannelijk;Rechts;3;89;right;no;550;rightarrow;779;true;focus;yes;1307813;Chrome;112.0;Windows;10;undefined;undefined;1536 x 864;1536 x 864
H036;23;Mannelijk;Rechts;3;90;left;no;550;leftarrow;750;true;focus;yes;1309350;Chrome;112.0;Windows;10;undefined;undefined;1536 x 864;1536 x 864
H036;23;Mannelijk;Rechts;3;91;right;no;550;rightarrow;566;true;focus;yes;1310687;Chrome;112.0;Windows;10;undefined;undefined;1536 x 864;1536 x 864
H036;23;Mannelijk;Rechts;3;92;right;no;550;rightarrow;496;true;focus;yes;1311953;Chrome;112.0;Windows;10;undefined;undefined;1536 x 864;1536 x 864
H036;23;Mannelijk;Rechts;3;93;left;no;550;leftarrow;477;true;focus;yes;1313203;Chrome;112.0;Windows;10;undefined;undefined;1536 x 864;1536 x 864
H036;23;Mannelijk;Rechts;3;94;right;yes;550;rightarrow;663;false;focus;yes;1314645;Chrome;112.0;Windows;10;undefined;undefined;1536 x 864;1536 x 864
H036;23;Mannelijk;Rechts;3;95;left;no;500;leftarrow;529;true;focus;yes;1315946;Chrome;112.0;Windows;10;undefined;undefined;1536 x 864;1536 x 864
H036;23;Mannelijk;Rechts;3;96;left;yes;500;leftarrow;589;false;focus;yes;1317315;Chrome;112.0;Windows;10;undefined;undefined;1536 x 864;1536 x 864
H036;23;Mannelijk;Rechts;3;97;right;yes;450;undefined;null;true;focus;yes;1319348;Chrome;112.0;Windows;10;undefined;undefined;1536 x 864;1536 x 864
H036;23;Mannelijk;Rechts;3;98;right;no;500;rightarrow;669;true;focus;yes;1320778;Chrome;112.0;Windows;10;undefined;undefined;1536 x 864;1536 x 864
H036;23;Mannelijk;Rechts;3;99;left;yes;500;undefined;null;true;focus;yes;1322804;Chrome;112.0;Windows;10;undefined;undefined;1536 x 864;1536 x 864
H036;23;Mannelijk;Rechts;3;100;left;no;550;leftarrow;681;true;focus;yes;1324257;Chrome;112.0;Windows;10;undefined;undefined;1536 x 864;1536 x 864
H036;23;Mannelijk;Rechts;3;101;right;no;550;rightarrow;407;true;focus;yes;1325431;Chrome;112.0;Windows;10;undefined;undefined;1536 x 864;1536 x 864
H036;23;Mannelijk;Rechts;3;102;right;no;550;rightarrow;566;true;focus;yes;1326761;Chrome;112.0;Windows;10;undefined;undefined;1536 x 864;1536 x 864
H036;23;Mannelijk;Rechts;3;103;left;no;550;leftarrow;506;true;focus;yes;1328042;Chrome;112.0;Windows;10;undefined;undefined;1536 x 864;1536 x 864
H036;23;Mannelijk;Rechts;3;104;left;no;550;leftarrow;463;true;focus;yes;1329266;Chrome;112.0;Windows;10;undefined;undefined;1536 x 864;1536 x 864
H036;23;Mannelijk;Rechts;3;105;right;no;550;rightarrow;360;true;focus;yes;1330394;Chrome;112.0;Windows;10;undefined;undefined;1536 x 864;1536 x 864
H036;23;Mannelijk;Rechts;3;106;right;no;550;rightarrow;450;true;focus;yes;1331608;Chrome;112.0;Windows;10;undefined;undefined;1536 x 864;1536 x 864
H036;23;Mannelijk;Rechts;3;107;right;no;550;rightarrow;385;true;focus;yes;1332759;Chrome;112.0;Windows;10;undefined;undefined;1536 x 864;1536 x 864
H036;23;Mannelijk;Rechts;3;108;left;no;550;leftarrow;446;true;focus;yes;1333982;Chrome;112.0;Windows;10;undefined;undefined;1536 x 864;1536 x 864
H036;23;Mannelijk;Rechts;3;109;right;yes;550;rightarrow;431;false;focus;yes;1335183;Chrome;112.0;Windows;10;undefined;undefined;1536 x 864;1536 x 864
H036;23;Mannelijk;Rechts;3;110;left;yes;500;leftarrow;401;false;focus;yes;1336367;Chrome;112.0;Windows;10;undefined;undefined;1536 x 864;1536 x 864
H036;23;Mannelijk;Rechts;3;111;left;no;450;leftarrow;368;true;focus;yes;1337501;Chrome;112.0;Windows;10;undefined;undefined;1536 x 864;1536 x 864
H036;23;Mannelijk;Rechts;3;112;left;no;450;leftarrow;339;true;focus;yes;1338605;Chrome;112.0;Windows;10;undefined;undefined;1536 x 864;1536 x 864
H036;23;Mannelijk;Rechts;3;113;right;no;450;rightarrow;375;true;focus;yes;1339752;Chrome;112.0;Windows;10;undefined;undefined;1536 x 864;1536 x 864
H036;23;Mannelijk;Rechts;3;114;left;no;450;leftarrow;498;true;focus;yes;1341011;Chrome;112.0;Windows;10;undefined;undefined;1536 x 864;1536 x 864
H036;23;Mannelijk;Rechts;3;115;right;no;450;rightarrow;341;true;focus;yes;1342125;Chrome;112.0;Windows;10;undefined;undefined;1536 x 864;1536 x 864
H036;23;Mannelijk;Rechts;3;116;left;no;450;leftarrow;406;true;focus;yes;1343309;Chrome;112.0;Windows;10;undefined;undefined;1536 x 864;1536 x 864
H036;23;Mannelijk;Rechts;3;117;left;no;450;leftarrow;363;true;focus;yes;1344441;Chrome;112.0;Windows;10;undefined;undefined;1536 x 864;1536 x 864
H036;23;Mannelijk;Rechts;3;118;right;yes;450;rightarrow;343;false;focus;yes;1345547;Chrome;112.0;Windows;10;undefined;undefined;1536 x 864;1536 x 864
H036;23;Mannelijk;Rechts;3;119;left;yes;400;leftarrow;380;false;focus;yes;1346696;Chrome;112.0;Windows;10;undefined;undefined;1536 x 864;1536 x 864
H036;23;Mannelijk;Rechts;3;120;right;no;350;rightarrow;354;true;focus;yes;1347822;Chrome;112.0;Windows;10;undefined;undefined;1536 x 864;1536 x 864
H036;23;Mannelijk;Rechts;3;121;right;no;350;rightarrow;351;true;focus;yes;1348955;Chrome;112.0;Windows;10;undefined;undefined;1536 x 864;1536 x 864
H036;23;Mannelijk;Rechts;3;122;left;no;350;leftarrow;377;true;focus;yes;1350099;Chrome;112.0;Windows;10;undefined;undefined;1536 x 864;1536 x 864
H036;23;Mannelijk;Rechts;3;123;left;yes;350;undefined;null;true;focus;yes;1352133;Chrome;112.0;Windows;10;undefined;undefined;1536 x 864;1536 x 864
H036;23;Mannelijk;Rechts;3;124;right;yes;400;undefined;null;true;focus;yes;1354162;Chrome;112.0;Windows;10;undefined;undefined;1536 x 864;1536 x 864
H036;23;Mannelijk;Rechts;3;125;right;no;450;rightarrow;639;true;focus;yes;1355575;Chrome;112.0;Windows;10;undefined;undefined;1536 x 864;1536 x 864
H036;23;Mannelijk;Rechts;3;126;right;no;450;rightarrow;561;true;focus;yes;1356902;Chrome;112.0;Windows;10;undefined;undefined;1536 x 864;1536 x 864
H036;23;Mannelijk;Rechts;3;127;left;no;450;leftarrow;606;true;focus;yes;1358273;Chrome;112.0;Windows;10;undefined;undefined;1536 x 864;1536 x 864
H036;23;Mannelijk;Rechts;3;128;left;no;450;leftarrow;663;true;focus;yes;1359715;Chrome;112.0;Windows;10;undefined;undefined;1536 x 864;1536 x 864
H036;23;Mannelijk;Rechts;4;1;right;no;450;rightarrow;404;true;focus;yes;1544130;Chrome;112.0;Windows;10;undefined;undefined;1536 x 864;1536 x 864
H036;23;Mannelijk;Rechts;4;2;left;no;450;leftarrow;438;true;focus;yes;1545349;Chrome;112.0;Windows;10;undefined;undefined;1536 x 864;1536 x 864
H036;23;Mannelijk;Rechts;4;3;right;no;450;rightarrow;514;true;focus;yes;1546641;Chrome;112.0;Windows;10;undefined;undefined;1536 x 864;1536 x 864
H036;23;Mannelijk;Rechts;4;4;left;no;450;leftarrow;524;true;focus;yes;1547926;Chrome;112.0;Windows;10;undefined;undefined;1536 x 864;1536 x 864
H036;23;Mannelijk;Rechts;4;5;right;yes;450;undefined;null;true;focus;yes;1549941;Chrome;112.0;Windows;10;undefined;undefined;1536 x 864;1536 x 864
H036;23;Mannelijk;Rechts;4;6;left;no;500;leftarrow;644;true;focus;yes;1551357;Chrome;112.0;Windows;10;undefined;undefined;1536 x 864;1536 x 864
H036;23;Mannelijk;Rechts;4;7;right;no;500;leftarrow;604;false;focus;yes;1552729;Chrome;112.0;Windows;10;undefined;undefined;1536 x 864;1536 x 864
H036;23;Mannelijk;Rechts;4;8;left;yes;500;undefined;null;true;focus;yes;1554766;Chrome;112.0;Windows;10;undefined;undefined;1536 x 864;1536 x 864
H036;23;Mannelijk;Rechts;4;9;right;no;550;rightarrow;778;true;focus;yes;1556310;Chrome;112.0;Windows;10;undefined;undefined;1536 x 864;1536 x 864
H036;23;Mannelijk;Rechts;4;10;right;no;550;rightarrow;766;true;focus;yes;1557852;Chrome;112.0;Windows;10;undefined;undefined;1536 x 864;1536 x 864
H036;23;Mannelijk;Rechts;4;11;right;yes;550;rightarrow;750;false;focus;yes;1559370;Chrome;112.0;Windows;10;undefined;undefined;1536 x 864;1536 x 864
H036;23;Mannelijk;Rechts;4;12;left;no;500;leftarrow;752;true;focus;yes;1560892;Chrome;112.0;Windows;10;undefined;undefined;1536 x 864;1536 x 864
H036;23;Mannelijk;Rechts;4;13;left;no;500;leftarrow;912;true;focus;yes;1562574;Chrome;112.0;Windows;10;undefined;undefined;1536 x 864;1536 x 864
H036;23;Mannelijk;Rechts;4;14;left;no;500;leftarrow;766;true;focus;yes;1564104;Chrome;112.0;Windows;10;undefined;undefined;1536 x 864;1536 x 864
H036;23;Mannelijk;Rechts;4;15;right;no;500;rightarrow;704;true;focus;yes;1565578;Chrome;112.0;Windows;10;undefined;undefined;1536 x 864;1536 x 864
H036;23;Mannelijk;Rechts;4;16;left;yes;500;undefined;null;true;focus;yes;1567607;Chrome;112.0;Windows;10;undefined;undefined;1536 x 864;1536 x 864
H036;23;Mannelijk;Rechts;4;17;right;no;550;rightarrow;707;true;focus;yes;1569088;Chrome;112.0;Windows;10;undefined;undefined;1536 x 864;1536 x 864
H036;23;Mannelijk;Rechts;4;18;left;yes;550;undefined;null;true;focus;yes;1571120;Chrome;112.0;Windows;10;undefined;undefined;1536 x 864;1536 x 864
H036;23;Mannelijk;Rechts;4;19;left;no;600;leftarrow;895;true;focus;yes;1572785;Chrome;112.0;Windows;10;undefined;undefined;1536 x 864;1536 x 864
H036;23;Mannelijk;Rechts;4;20;right;yes;600;rightarrow;769;false;focus;yes;1574323;Chrome;112.0;Windows;10;undefined;undefined;1536 x 864;1536 x 864
H036;23;Mannelijk;Rechts;4;21;left;no;550;leftarrow;992;true;focus;yes;1576086;Chrome;112.0;Windows;10;undefined;undefined;1536 x 864;1536 x 864
H036;23;Mannelijk;Rechts;4;22;right;no;550;rightarrow;994;true;focus;yes;1577853;Chrome;112.0;Windows;10;undefined;undefined;1536 x 864;1536 x 864
H036;23;Mannelijk;Rechts;4;23;left;no;550;leftarrow;768;true;focus;yes;1579383;Chrome;112.0;Windows;10;undefined;undefined;1536 x 864;1536 x 864
H036;23;Mannelijk;Rechts;4;24;right;no;550;rightarrow;808;true;focus;yes;1580961;Chrome;112.0;Windows;10;undefined;undefined;1536 x 864;1536 x 864
H036;23;Mannelijk;Rechts;4;25;left;no;550;leftarrow;756;true;focus;yes;1582493;Chrome;112.0;Windows;10;undefined;undefined;1536 x 864;1536 x 864
H036;23;Mannelijk;Rechts;4;26;right;yes;550;undefined;null;true;focus;yes;1584524;Chrome;112.0;Windows;10;undefined;undefined;1536 x 864;1536 x 864
H036;23;Mannelijk;Rechts;4;27;right;no;600;rightarrow;802;true;focus;yes;1586087;Chrome;112.0;Windows;10;undefined;undefined;1536 x 864;1536 x 864
H036;23;Mannelijk;Rechts;4;28;left;yes;600;undefined;null;true;focus;yes;1588116;Chrome;112.0;Windows;10;undefined;undefined;1536 x 864;1536 x 864
H036;23;Mannelijk;Rechts;4;29;left;no;650;leftarrow;393;true;focus;yes;1589280;Chrome;112.0;Windows;10;undefined;undefined;1536 x 864;1536 x 864
H036;23;Mannelijk;Rechts;4;30;left;no;650;leftarrow;936;true;focus;yes;1590984;Chrome;112.0;Windows;10;undefined;undefined;1536 x 864;1536 x 864
H036;23;Mannelijk;Rechts;4;31;right;no;650;rightarrow;955;true;focus;yes;1592715;Chrome;112.0;Windows;10;undefined;undefined;1536 x 864;1536 x 864
H036;23;Mannelijk;Rechts;4;32;right;no;650;rightarrow;714;true;focus;yes;1594193;Chrome;112.0;Windows;10;undefined;undefined;1536 x 864;1536 x 864
H036;23;Mannelijk;Rechts;4;33;left;yes;650;leftarrow;668;false;focus;yes;1595632;Chrome;112.0;Windows;10;undefined;undefined;1536 x 864;1536 x 864
H036;23;Mannelijk;Rechts;4;34;right;no;600;rightarrow;1105;true;focus;yes;1597505;Chrome;112.0;Windows;10;undefined;undefined;1536 x 864;1536 x 864
H036;23;Mannelijk;Rechts;4;35;right;yes;600;undefined;null;true;focus;yes;1599544;Chrome;112.0;Windows;10;undefined;undefined;1536 x 864;1536 x 864
H036;23;Mannelijk;Rechts;4;36;left;no;650;leftarrow;525;true;focus;yes;1600830;Chrome;112.0;Windows;10;undefined;undefined;1536 x 864;1536 x 864
H036;23;Mannelijk;Rechts;4;37;right;no;650;rightarrow;825;true;focus;yes;1602420;Chrome;112.0;Windows;10;undefined;undefined;1536 x 864;1536 x 864
H036;23;Mannelijk;Rechts;4;38;right;no;650;rightarrow;820;true;focus;yes;1604006;Chrome;112.0;Windows;10;undefined;undefined;1536 x 864;1536 x 864
H036;23;Mannelijk;Rechts;4;39;left;no;650;leftarrow;845;true;focus;yes;1605623;Chrome;112.0;Windows;10;undefined;undefined;1536 x 864;1536 x 864
H036;23;Mannelijk;Rechts;4;40;left;no;650;leftarrow;838;true;focus;yes;1607239;Chrome;112.0;Windows;10;undefined;undefined;1536 x 864;1536 x 864
H036;23;Mannelijk;Rechts;4;41;right;no;650;rightarrow;740;true;focus;yes;1608756;Chrome;112.0;Windows;10;undefined;undefined;1536 x 864;1536 x 864
H036;23;Mannelijk;Rechts;4;42;left;no;650;leftarrow;624;true;focus;yes;1610151;Chrome;112.0;Windows;10;undefined;undefined;1536 x 864;1536 x 864
H036;23;Mannelijk;Rechts;4;43;left;no;650;leftarrow;888;true;focus;yes;1611810;Chrome;112.0;Windows;10;undefined;undefined;1536 x 864;1536 x 864
H036;23;Mannelijk;Rechts;4;44;right;no;650;rightarrow;733;true;focus;yes;1613315;Chrome;112.0;Windows;10;undefined;undefined;1536 x 864;1536 x 864
H036;23;Mannelijk;Rechts;4;45;left;no;650;leftarrow;734;true;focus;yes;1614831;Chrome;112.0;Windows;10;undefined;undefined;1536 x 864;1536 x 864
H036;23;Mannelijk;Rechts;4;46;right;no;650;rightarrow;782;true;focus;yes;1616388;Chrome;112.0;Windows;10;undefined;undefined;1536 x 864;1536 x 864
H036;23;Mannelijk;Rechts;4;47;right;yes;650;undefined;null;true;focus;yes;1618407;Chrome;112.0;Windows;10;undefined;undefined;1536 x 864;1536 x 864
H036;23;Mannelijk;Rechts;4;48;left;yes;700;leftarrow;786;false;focus;yes;1619975;Chrome;112.0;Windows;10;undefined;undefined;1536 x 864;1536 x 864
H036;23;Mannelijk;Rechts;4;49;right;no;650;rightarrow;1123;true;focus;yes;1621861;Chrome;112.0;Windows;10;undefined;undefined;1536 x 864;1536 x 864
H036;23;Mannelijk;Rechts;4;50;left;no;650;leftarrow;792;true;focus;yes;1623433;Chrome;112.0;Windows;10;undefined;undefined;1536 x 864;1536 x 864
H036;23;Mannelijk;Rechts;4;51;left;no;650;leftarrow;967;true;focus;yes;1625180;Chrome;112.0;Windows;10;undefined;undefined;1536 x 864;1536 x 864
H036;23;Mannelijk;Rechts;4;52;left;no;650;leftarrow;790;true;focus;yes;1626751;Chrome;112.0;Windows;10;undefined;undefined;1536 x 864;1536 x 864
H036;23;Mannelijk;Rechts;4;53;right;no;650;rightarrow;1069;true;focus;yes;1628596;Chrome;112.0;Windows;10;undefined;undefined;1536 x 864;1536 x 864
H036;23;Mannelijk;Rechts;4;54;right;yes;650;undefined;null;true;focus;yes;1630626;Chrome;112.0;Windows;10;undefined;undefined;1536 x 864;1536 x 864
H036;23;Mannelijk;Rechts;4;55;right;no;700;rightarrow;882;true;focus;yes;1632268;Chrome;112.0;Windows;10;undefined;undefined;1536 x 864;1536 x 864
H036;23;Mannelijk;Rechts;4;56;left;yes;700;leftarrow;882;false;focus;yes;1633924;Chrome;112.0;Windows;10;undefined;undefined;1536 x 864;1536 x 864
H036;23;Mannelijk;Rechts;4;57;left;no;650;leftarrow;896;true;focus;yes;1635583;Chrome;112.0;Windows;10;undefined;undefined;1536 x 864;1536 x 864
H036;23;Mannelijk;Rechts;4;58;left;yes;650;leftarrow;716;false;focus;yes;1637068;Chrome;112.0;Windows;10;undefined;undefined;1536 x 864;1536 x 864
H036;23;Mannelijk;Rechts;4;59;right;no;600;rightarrow;904;true;focus;yes;1638735;Chrome;112.0;Windows;10;undefined;undefined;1536 x 864;1536 x 864
H036;23;Mannelijk;Rechts;4;60;right;no;600;rightarrow;822;true;focus;yes;1640326;Chrome;112.0;Windows;10;undefined;undefined;1536 x 864;1536 x 864
H036;23;Mannelijk;Rechts;4;61;right;yes;600;undefined;null;true;focus;yes;1642362;Chrome;112.0;Windows;10;undefined;undefined;1536 x 864;1536 x 864
H036;23;Mannelijk;Rechts;4;62;left;no;650;leftarrow;728;true;focus;yes;1643866;Chrome;112.0;Windows;10;undefined;undefined;1536 x 864;1536 x 864
H036;23;Mannelijk;Rechts;4;63;right;no;650;rightarrow;724;true;focus;yes;1645362;Chrome;112.0;Windows;10;undefined;undefined;1536 x 864;1536 x 864
H036;23;Mannelijk;Rechts;4;64;left;no;650;leftarrow;924;true;focus;yes;1647058;Chrome;112.0;Windows;10;undefined;undefined;1536 x 864;1536 x 864
H036;23;Mannelijk;Rechts;4;65;left;no;650;leftarrow;769;true;focus;yes;1648604;Chrome;112.0;Windows;10;undefined;undefined;1536 x 864;1536 x 864
H036;23;Mannelijk;Rechts;4;66;right;yes;650;rightarrow;808;false;focus;yes;1650192;Chrome;112.0;Windows;10;undefined;undefined;1536 x 864;1536 x 864
H036;23;Mannelijk;Rechts;4;67;right;no;600;rightarrow;683;true;focus;yes;1651650;Chrome;112.0;Windows;10;undefined;undefined;1536 x 864;1536 x 864
H036;23;Mannelijk;Rechts;4;68;left;yes;600;undefined;null;true;focus;yes;1653685;Chrome;112.0;Windows;10;undefined;undefined;1536 x 864;1536 x 864
H036;23;Mannelijk;Rechts;4;69;left;no;650;leftarrow;868;true;focus;yes;1655311;Chrome;112.0;Windows;10;undefined;undefined;1536 x 864;1536 x 864
H036;23;Mannelijk;Rechts;4;70;right;no;650;rightarrow;1139;true;focus;yes;1657211;Chrome;112.0;Windows;10;undefined;undefined;1536 x 864;1536 x 864
H036;23;Mannelijk;Rechts;4;71;right;no;650;rightarrow;1189;true;focus;yes;1659181;Chrome;112.0;Windows;10;undefined;undefined;1536 x 864;1536 x 864
H036;23;Mannelijk;Rechts;4;72;left;no;650;leftarrow;1176;true;focus;yes;1661123;Chrome;112.0;Windows;10;undefined;undefined;1536 x 864;1536 x 864
H036;23;Mannelijk;Rechts;4;73;left;no;650;leftarrow;947;true;focus;yes;1662842;Chrome;112.0;Windows;10;undefined;undefined;1536 x 864;1536 x 864
H036;23;Mannelijk;Rechts;4;74;right;yes;650;rightarrow;861;false;focus;yes;1664473;Chrome;112.0;Windows;10;undefined;undefined;1536 x 864;1536 x 864
H036;23;Mannelijk;Rechts;4;75;right;no;600;rightarrow;782;true;focus;yes;1666031;Chrome;112.0;Windows;10;undefined;undefined;1536 x 864;1536 x 864
H036;23;Mannelijk;Rechts;4;76;left;no;600;leftarrow;664;true;focus;yes;1667470;Chrome;112.0;Windows;10;undefined;undefined;1536 x 864;1536 x 864
H036;23;Mannelijk;Rechts;4;77;right;no;600;rightarrow;665;true;focus;yes;1668900;Chrome;112.0;Windows;10;undefined;undefined;1536 x 864;1536 x 864
H036;23;Mannelijk;Rechts;4;78;right;no;600;rightarrow;822;true;focus;yes;1670489;Chrome;112.0;Windows;10;undefined;undefined;1536 x 864;1536 x 864
H036;23;Mannelijk;Rechts;4;79;left;yes;600;undefined;null;true;focus;yes;1672510;Chrome;112.0;Windows;10;undefined;undefined;1536 x 864;1536 x 864
H036;23;Mannelijk;Rechts;4;80;left;no;650;leftarrow;735;true;focus;yes;1674029;Chrome;112.0;Windows;10;undefined;undefined;1536 x 864;1536 x 864
H036;23;Mannelijk;Rechts;4;81;right;yes;650;rightarrow;797;false;focus;yes;1675596;Chrome;112.0;Windows;10;undefined;undefined;1536 x 864;1536 x 864
H036;23;Mannelijk;Rechts;4;82;right;no;600;rightarrow;609;true;focus;yes;1676988;Chrome;112.0;Windows;10;undefined;undefined;1536 x 864;1536 x 864
H036;23;Mannelijk;Rechts;4;83;left;no;600;leftarrow;967;true;focus;yes;1678721;Chrome;112.0;Windows;10;undefined;undefined;1536 x 864;1536 x 864
H036;23;Mannelijk;Rechts;4;84;left;no;600;leftarrow;936;true;focus;yes;1680431;Chrome;112.0;Windows;10;undefined;undefined;1536 x 864;1536 x 864
H036;23;Mannelijk;Rechts;4;85;left;yes;600;undefined;null;true;focus;yes;1682449;Chrome;112.0;Windows;10;undefined;undefined;1536 x 864;1536 x 864
H036;23;Mannelijk;Rechts;4;86;right;no;650;rightarrow;641;true;focus;yes;1683852;Chrome;112.0;Windows;10;undefined;undefined;1536 x 864;1536 x 864
H036;23;Mannelijk;Rechts;4;87;left;no;650;leftarrow;737;true;focus;yes;1685368;Chrome;112.0;Windows;10;undefined;undefined;1536 x 864;1536 x 864
H036;23;Mannelijk;Rechts;4;88;right;no;650;rightarrow;725;true;focus;yes;1686872;Chrome;112.0;Windows;10;undefined;undefined;1536 x 864;1536 x 864
H036;23;Mannelijk;Rechts;4;89;left;yes;650;undefined;null;true;focus;yes;1688917;Chrome;112.0;Windows;10;undefined;undefined;1536 x 864;1536 x 864
H036;23;Mannelijk;Rechts;4;90;right;no;700;rightarrow;484;true;focus;yes;1690160;Chrome;112.0;Windows;10;undefined;undefined;1536 x 864;1536 x 864
H036;23;Mannelijk;Rechts;4;91;right;no;700;rightarrow;930;true;focus;yes;1691851;Chrome;112.0;Windows;10;undefined;undefined;1536 x 864;1536 x 864
H036;23;Mannelijk;Rechts;4;92;right;no;700;rightarrow;871;true;focus;yes;1693488;Chrome;112.0;Windows;10;undefined;undefined;1536 x 864;1536 x 864
H036;23;Mannelijk;Rechts;4;93;right;yes;700;rightarrow;821;false;focus;yes;1695085;Chrome;112.0;Windows;10;undefined;undefined;1536 x 864;1536 x 864
H036;23;Mannelijk;Rechts;4;94;left;no;650;leftarrow;814;true;focus;yes;1696667;Chrome;112.0;Windows;10;undefined;undefined;1536 x 864;1536 x 864
H036;23;Mannelijk;Rechts;4;95;left;no;650;leftarrow;868;true;focus;yes;1698308;Chrome;112.0;Windows;10;undefined;undefined;1536 x 864;1536 x 864
H036;23;Mannelijk;Rechts;4;96;left;no;650;leftarrow;853;true;focus;yes;1699934;Chrome;112.0;Windows;10;undefined;undefined;1536 x 864;1536 x 864
H036;23;Mannelijk;Rechts;4;97;right;no;650;rightarrow;850;true;focus;yes;1701554;Chrome;112.0;Windows;10;undefined;undefined;1536 x 864;1536 x 864
H036;23;Mannelijk;Rechts;4;98;left;yes;650;leftarrow;651;false;focus;yes;1702974;Chrome;112.0;Windows;10;undefined;undefined;1536 x 864;1536 x 864
H036;23;Mannelijk;Rechts;4;99;left;no;600;leftarrow;783;true;focus;yes;1704533;Chrome;112.0;Windows;10;undefined;undefined;1536 x 864;1536 x 864
H036;23;Mannelijk;Rechts;4;100;left;no;600;leftarrow;601;true;focus;yes;1705907;Chrome;112.0;Windows;10;undefined;undefined;1536 x 864;1536 x 864
H036;23;Mannelijk;Rechts;4;101;right;no;600;rightarrow;513;true;focus;yes;1707203;Chrome;112.0;Windows;10;undefined;undefined;1536 x 864;1536 x 864
H036;23;Mannelijk;Rechts;4;102;left;no;600;leftarrow;541;true;focus;yes;1708504;Chrome;112.0;Windows;10;undefined;undefined;1536 x 864;1536 x 864
H036;23;Mannelijk;Rechts;4;103;right;no;600;rightarrow;636;true;focus;yes;1709909;Chrome;112.0;Windows;10;undefined;undefined;1536 x 864;1536 x 864
H036;23;Mannelijk;Rechts;4;104;right;yes;600;rightarrow;493;false;focus;yes;1711163;Chrome;112.0;Windows;10;undefined;undefined;1536 x 864;1536 x 864
H036;23;Mannelijk;Rechts;4;105;right;no;550;rightarrow;392;true;focus;yes;1712327;Chrome;112.0;Windows;10;undefined;undefined;1536 x 864;1536 x 864
H036;23;Mannelijk;Rechts;4;106;left;yes;550;leftarrow;761;false;focus;yes;1713870;Chrome;112.0;Windows;10;undefined;undefined;1536 x 864;1536 x 864
H036;23;Mannelijk;Rechts;4;107;left;no;500;leftarrow;956;true;focus;yes;1715596;Chrome;112.0;Windows;10;undefined;undefined;1536 x 864;1536 x 864
H036;23;Mannelijk;Rechts;4;108;right;no;500;rightarrow;1221;true;focus;yes;1717600;Chrome;112.0;Windows;10;undefined;undefined;1536 x 864;1536 x 864
H036;23;Mannelijk;Rechts;4;109;left;no;500;leftarrow;1100;true;focus;yes;1719483;Chrome;112.0;Windows;10;undefined;undefined;1536 x 864;1536 x 864
H036;23;Mannelijk;Rechts;4;110;right;yes;500;undefined;null;true;focus;yes;1721529;Chrome;112.0;Windows;10;undefined;undefined;1536 x 864;1536 x 864
H036;23;Mannelijk;Rechts;4;111;left;no;550;leftarrow;1147;true;focus;yes;1723448;Chrome;112.0;Windows;10;undefined;undefined;1536 x 864;1536 x 864
H036;23;Mannelijk;Rechts;4;112;right;no;550;rightarrow;1120;true;focus;yes;1725347;Chrome;112.0;Windows;10;undefined;undefined;1536 x 864;1536 x 864
H036;23;Mannelijk;Rechts;4;113;left;no;550;leftarrow;1142;true;focus;yes;1727255;Chrome;112.0;Windows;10;undefined;undefined;1536 x 864;1536 x 864
H036;23;Mannelijk;Rechts;4;114;left;no;550;leftarrow;955;true;focus;yes;1728971;Chrome;112.0;Windows;10;undefined;undefined;1536 x 864;1536 x 864
H036;23;Mannelijk;Rechts;4;115;left;no;550;leftarrow;967;true;focus;yes;1730704;Chrome;112.0;Windows;10;undefined;undefined;1536 x 864;1536 x 864
H036;23;Mannelijk;Rechts;4;116;right;no;550;rightarrow;1072;true;focus;yes;1732563;Chrome;112.0;Windows;10;undefined;undefined;1536 x 864;1536 x 864
H036;23;Mannelijk;Rechts;4;117;right;yes;550;undefined;null;true;focus;yes;1734601;Chrome;112.0;Windows;10;undefined;undefined;1536 x 864;1536 x 864
H036;23;Mannelijk;Rechts;4;118;left;yes;600;undefined;null;true;focus;yes;1736620;Chrome;112.0;Windows;10;undefined;undefined;1536 x 864;1536 x 864
H036;23;Mannelijk;Rechts;4;119;right;no;650;rightarrow;740;true;focus;yes;1738128;Chrome;112.0;Windows;10;undefined;undefined;1536 x 864;1536 x 864
H036;23;Mannelijk;Rechts;4;120;right;no;650;rightarrow;1089;true;focus;yes;1739985;Chrome;112.0;Windows;10;undefined;undefined;1536 x 864;1536 x 864
H036;23;Mannelijk;Rechts;4;121;right;yes;650;undefined;null;true;focus;yes;1742005;Chrome;112.0;Windows;10;undefined;undefined;1536 x 864;1536 x 864
H036;23;Mannelijk;Rechts;4;122;right;no;700;rightarrow;1223;true;focus;yes;1744010;Chrome;112.0;Windows;10;undefined;undefined;1536 x 864;1536 x 864
H036;23;Mannelijk;Rechts;4;123;right;no;700;rightarrow;1094;true;focus;yes;1745881;Chrome;112.0;Windows;10;undefined;undefined;1536 x 864;1536 x 864
H036;23;Mannelijk;Rechts;4;124;right;no;700;undefined;null;false;focus;yes;1747917;Chrome;112.0;Windows;10;undefined;undefined;1536 x 864;1536 x 864
H036;23;Mannelijk;Rechts;4;125;left;no;700;leftarrow;1122;true;focus;yes;1749814;Chrome;112.0;Windows;10;undefined;undefined;1536 x 864;1536 x 864
H036;23;Mannelijk;Rechts;4;126;left;yes;700;undefined;null;true;focus;yes;1751840;Chrome;112.0;Windows;10;undefined;undefined;1536 x 864;1536 x 864
H036;23;Mannelijk;Rechts;4;127;left;no;750;leftarrow;1148;true;focus;yes;1753760;Chrome;112.0;Windows;10;undefined;undefined;1536 x 864;1536 x 864
H036;23;Mannelijk;Rechts;4;128;left;no;750;leftarrow;1256;true;focus;yes;1755788;Chrome;112.0;Windows;10;undefined;undefined;1536 x 864;1536 x 864
H036;23;Mannelijk;Rechts;5;1;right;yes;750;rightarrow;395;false;focus;yes;1917912;Chrome;112.0;Windows;10;undefined;undefined;1536 x 864;1536 x 864
H036;23;Mannelijk;Rechts;5;2;left;no;700;leftarrow;476;true;focus;yes;1919152;Chrome;112.0;Windows;10;undefined;undefined;1536 x 864;1536 x 864
H036;23;Mannelijk;Rechts;5;3;right;no;700;rightarrow;543;true;focus;yes;1920467;Chrome;112.0;Windows;10;undefined;undefined;1536 x 864;1536 x 864
H036;23;Mannelijk;Rechts;5;4;left;yes;700;leftarrow;588;false;focus;yes;1921814;Chrome;112.0;Windows;10;undefined;undefined;1536 x 864;1536 x 864
H036;23;Mannelijk;Rechts;5;5;left;no;650;leftarrow;580;true;focus;yes;1923175;Chrome;112.0;Windows;10;undefined;undefined;1536 x 864;1536 x 864
H036;23;Mannelijk;Rechts;5;6;right;no;650;rightarrow;495;true;focus;yes;1924445;Chrome;112.0;Windows;10;undefined;undefined;1536 x 864;1536 x 864
H036;23;Mannelijk;Rechts;5;7;right;no;650;rightarrow;598;true;focus;yes;1925824;Chrome;112.0;Windows;10;undefined;undefined;1536 x 864;1536 x 864
H036;23;Mannelijk;Rechts;5;8;left;no;650;leftarrow;584;true;focus;yes;1927181;Chrome;112.0;Windows;10;undefined;undefined;1536 x 864;1536 x 864
H036;23;Mannelijk;Rechts;5;9;right;no;650;rightarrow;556;true;focus;yes;1928511;Chrome;112.0;Windows;10;undefined;undefined;1536 x 864;1536 x 864
H036;23;Mannelijk;Rechts;5;10;right;no;650;rightarrow;554;true;focus;yes;1929838;Chrome;112.0;Windows;10;undefined;undefined;1536 x 864;1536 x 864
H036;23;Mannelijk;Rechts;5;11;left;no;650;leftarrow;518;true;focus;yes;1931121;Chrome;112.0;Windows;10;undefined;undefined;1536 x 864;1536 x 864
H036;23;Mannelijk;Rechts;5;12;right;yes;650;rightarrow;496;false;focus;yes;1932378;Chrome;112.0;Windows;10;undefined;undefined;1536 x 864;1536 x 864
H036;23;Mannelijk;Rechts;5;13;left;no;600;leftarrow;494;true;focus;yes;1933644;Chrome;112.0;Windows;10;undefined;undefined;1536 x 864;1536 x 864
H036;23;Mannelijk;Rechts;5;14;left;yes;600;leftarrow;452;false;focus;yes;1934883;Chrome;112.0;Windows;10;undefined;undefined;1536 x 864;1536 x 864
H036;23;Mannelijk;Rechts;5;15;left;no;550;leftarrow;571;true;focus;yes;1936223;Chrome;112.0;Windows;10;undefined;undefined;1536 x 864;1536 x 864
H036;23;Mannelijk;Rechts;5;16;right;no;550;rightarrow;553;true;focus;yes;1937558;Chrome;112.0;Windows;10;undefined;undefined;1536 x 864;1536 x 864
H036;23;Mannelijk;Rechts;5;17;left;no;550;leftarrow;546;true;focus;yes;1938866;Chrome;112.0;Windows;10;undefined;undefined;1536 x 864;1536 x 864
H036;23;Mannelijk;Rechts;5;18;right;no;550;rightarrow;593;true;focus;yes;1940225;Chrome;112.0;Windows;10;undefined;undefined;1536 x 864;1536 x 864
H036;23;Mannelijk;Rechts;5;19;left;no;550;leftarrow;468;true;focus;yes;1941458;Chrome;112.0;Windows;10;undefined;undefined;1536 x 864;1536 x 864
H036;23;Mannelijk;Rechts;5;20;right;no;550;rightarrow;582;true;focus;yes;1942817;Chrome;112.0;Windows;10;undefined;undefined;1536 x 864;1536 x 864
H036;23;Mannelijk;Rechts;5;21;right;no;550;rightarrow;592;true;focus;yes;1944172;Chrome;112.0;Windows;10;undefined;undefined;1536 x 864;1536 x 864
H036;23;Mannelijk;Rechts;5;22;left;no;550;leftarrow;563;true;focus;yes;1945513;Chrome;112.0;Windows;10;undefined;undefined;1536 x 864;1536 x 864
H036;23;Mannelijk;Rechts;5;23;left;yes;550;leftarrow;561;false;focus;yes;1946840;Chrome;112.0;Windows;10;undefined;undefined;1536 x 864;1536 x 864
H036;23;Mannelijk;Rechts;5;24;right;yes;500;undefined;null;true;focus;yes;1948873;Chrome;112.0;Windows;10;undefined;undefined;1536 x 864;1536 x 864
H036;23;Mannelijk;Rechts;5;25;left;no;550;leftarrow;811;true;focus;yes;1950452;Chrome;112.0;Windows;10;undefined;undefined;1536 x 864;1536 x 864
H036;23;Mannelijk;Rechts;5;26;left;yes;550;undefined;null;true;focus;yes;1952501;Chrome;112.0;Windows;10;undefined;undefined;1536 x 864;1536 x 864
H036;23;Mannelijk;Rechts;5;27;right;no;600;rightarrow;805;true;focus;yes;1954082;Chrome;112.0;Windows;10;undefined;undefined;1536 x 864;1536 x 864
H036;23;Mannelijk;Rechts;5;28;right;yes;600;undefined;null;true;focus;yes;1956111;Chrome;112.0;Windows;10;undefined;undefined;1536 x 864;1536 x 864
H036;23;Mannelijk;Rechts;5;29;left;no;650;leftarrow;678;true;focus;yes;1957552;Chrome;112.0;Windows;10;undefined;undefined;1536 x 864;1536 x 864
H036;23;Mannelijk;Rechts;5;30;right;no;650;rightarrow;823;true;focus;yes;1959136;Chrome;112.0;Windows;10;undefined;undefined;1536 x 864;1536 x 864
H036;23;Mannelijk;Rechts;5;31;left;no;650;leftarrow;706;true;focus;yes;1960623;Chrome;112.0;Windows;10;undefined;undefined;1536 x 864;1536 x 864
H036;23;Mannelijk;Rechts;5;32;right;no;650;rightarrow;746;true;focus;yes;1962147;Chrome;112.0;Windows;10;undefined;undefined;1536 x 864;1536 x 864
H036;23;Mannelijk;Rechts;5;33;right;no;650;rightarrow;752;true;focus;yes;1963682;Chrome;112.0;Windows;10;undefined;undefined;1536 x 864;1536 x 864
H036;23;Mannelijk;Rechts;5;34;right;no;650;rightarrow;762;true;focus;yes;1965220;Chrome;112.0;Windows;10;undefined;undefined;1536 x 864;1536 x 864
H036;23;Mannelijk;Rechts;5;35;left;no;650;leftarrow;762;true;focus;yes;1966772;Chrome;112.0;Windows;10;undefined;undefined;1536 x 864;1536 x 864
H036;23;Mannelijk;Rechts;5;36;left;yes;650;undefined;null;true;focus;yes;1968813;Chrome;112.0;Windows;10;undefined;undefined;1536 x 864;1536 x 864
H036;23;Mannelijk;Rechts;5;37;right;no;700;rightarrow;1021;true;focus;yes;1970597;Chrome;112.0;Windows;10;undefined;undefined;1536 x 864;1536 x 864
H036;23;Mannelijk;Rechts;5;38;left;no;700;leftarrow;1167;true;focus;yes;1972533;Chrome;112.0;Windows;10;undefined;undefined;1536 x 864;1536 x 864
H036;23;Mannelijk;Rechts;5;39;right;yes;700;rightarrow;770;false;focus;yes;1974072;Chrome;112.0;Windows;10;undefined;undefined;1536 x 864;1536 x 864
H036;23;Mannelijk;Rechts;5;40;left;no;650;undefined;null;false;focus;yes;1976100;Chrome;112.0;Windows;10;undefined;undefined;1536 x 864;1536 x 864
H036;23;Mannelijk;Rechts;5;41;left;yes;650;undefined;null;true;focus;yes;1978129;Chrome;112.0;Windows;10;undefined;undefined;1536 x 864;1536 x 864
H036;23;Mannelijk;Rechts;5;42;left;no;700;leftarrow;764;true;focus;yes;1979654;Chrome;112.0;Windows;10;undefined;undefined;1536 x 864;1536 x 864
H036;23;Mannelijk;Rechts;5;43;right;yes;700;rightarrow;782;false;focus;yes;1981219;Chrome;112.0;Windows;10;undefined;undefined;1536 x 864;1536 x 864
H036;23;Mannelijk;Rechts;5;44;left;no;650;leftarrow;963;true;focus;yes;1982958;Chrome;112.0;Windows;10;undefined;undefined;1536 x 864;1536 x 864
H036;23;Mannelijk;Rechts;5;45;right;no;650;rightarrow;1181;true;focus;yes;1984902;Chrome;112.0;Windows;10;undefined;undefined;1536 x 864;1536 x 864
H036;23;Mannelijk;Rechts;5;46;left;no;650;leftarrow;1061;true;focus;yes;1986738;Chrome;112.0;Windows;10;undefined;undefined;1536 x 864;1536 x 864
H036;23;Mannelijk;Rechts;5;47;right;no;650;rightarrow;857;true;focus;yes;1988380;Chrome;112.0;Windows;10;undefined;undefined;1536 x 864;1536 x 864
H036;23;Mannelijk;Rechts;5;48;right;no;650;rightarrow;1012;true;focus;yes;1990191;Chrome;112.0;Windows;10;undefined;undefined;1536 x 864;1536 x 864
H036;23;Mannelijk;Rechts;5;49;left;no;650;leftarrow;770;true;focus;yes;1991751;Chrome;112.0;Windows;10;undefined;undefined;1536 x 864;1536 x 864
H036;23;Mannelijk;Rechts;5;50;left;no;650;leftarrow;846;true;focus;yes;1993362;Chrome;112.0;Windows;10;undefined;undefined;1536 x 864;1536 x 864
H036;23;Mannelijk;Rechts;5;51;left;no;650;leftarrow;889;true;focus;yes;1995032;Chrome;112.0;Windows;10;undefined;undefined;1536 x 864;1536 x 864
H036;23;Mannelijk;Rechts;5;52;left;yes;650;undefined;null;true;focus;yes;1997059;Chrome;112.0;Windows;10;undefined;undefined;1536 x 864;1536 x 864
H036;23;Mannelijk;Rechts;5;53;right;no;700;rightarrow;880;true;focus;yes;1998721;Chrome;112.0;Windows;10;undefined;undefined;1536 x 864;1536 x 864
H036;23;Mannelijk;Rechts;5;54;right;no;700;rightarrow;829;true;focus;yes;2000323;Chrome;112.0;Windows;10;undefined;undefined;1536 x 864;1536 x 864
H036;23;Mannelijk;Rechts;5;55;right;no;700;rightarrow;1015;true;focus;yes;2002116;Chrome;112.0;Windows;10;undefined;undefined;1536 x 864;1536 x 864
H036;23;Mannelijk;Rechts;5;56;right;yes;700;rightarrow;776;false;focus;yes;2003667;Chrome;112.0;Windows;10;undefined;undefined;1536 x 864;1536 x 864
H036;23;Mannelijk;Rechts;5;57;left;yes;650;undefined;null;true;focus;yes;2005714;Chrome;112.0;Windows;10;undefined;undefined;1536 x 864;1536 x 864
H036;23;Mannelijk;Rechts;5;58;left;no;700;leftarrow;725;true;focus;yes;2007206;Chrome;112.0;Windows;10;undefined;undefined;1536 x 864;1536 x 864
H036;23;Mannelijk;Rechts;5;59;right;no;700;rightarrow;1072;true;focus;yes;2009060;Chrome;112.0;Windows;10;undefined;undefined;1536 x 864;1536 x 864
H036;23;Mannelijk;Rechts;5;60;right;no;700;rightarrow;765;true;focus;yes;2010590;Chrome;112.0;Windows;10;undefined;undefined;1536 x 864;1536 x 864
H036;23;Mannelijk;Rechts;5;61;right;yes;700;undefined;null;true;focus;yes;2012616;Chrome;112.0;Windows;10;undefined;undefined;1536 x 864;1536 x 864
H036;23;Mannelijk;Rechts;5;62;left;no;750;leftarrow;867;true;focus;yes;2014257;Chrome;112.0;Windows;10;undefined;undefined;1536 x 864;1536 x 864
H036;23;Mannelijk;Rechts;5;63;right;no;750;rightarrow;811;true;focus;yes;2015838;Chrome;112.0;Windows;10;undefined;undefined;1536 x 864;1536 x 864
H036;23;Mannelijk;Rechts;5;64;left;no;750;leftarrow;786;true;focus;yes;2017388;Chrome;112.0;Windows;10;undefined;undefined;1536 x 864;1536 x 864
H036;23;Mannelijk;Rechts;5;65;right;yes;750;rightarrow;693;false;focus;yes;2018854;Chrome;112.0;Windows;10;undefined;undefined;1536 x 864;1536 x 864
H036;23;Mannelijk;Rechts;5;66;right;no;700;rightarrow;808;true;focus;yes;2020422;Chrome;112.0;Windows;10;undefined;undefined;1536 x 864;1536 x 864
H036;23;Mannelijk;Rechts;5;67;left;no;700;leftarrow;733;true;focus;yes;2021934;Chrome;112.0;Windows;10;undefined;undefined;1536 x 864;1536 x 864
H036;23;Mannelijk;Rechts;5;68;left;no;700;leftarrow;827;true;focus;yes;2023531;Chrome;112.0;Windows;10;undefined;undefined;1536 x 864;1536 x 864
H036;23;Mannelijk;Rechts;5;69;right;no;700;rightarrow;725;true;focus;yes;2025037;Chrome;112.0;Windows;10;undefined;undefined;1536 x 864;1536 x 864
H036;23;Mannelijk;Rechts;5;70;left;yes;700;leftarrow;762;false;focus;yes;2026574;Chrome;112.0;Windows;10;undefined;undefined;1536 x 864;1536 x 864
H036;23;Mannelijk;Rechts;5;71;left;no;650;leftarrow;996;true;focus;yes;2028350;Chrome;112.0;Windows;10;undefined;undefined;1536 x 864;1536 x 864
H036;23;Mannelijk;Rechts;5;72;right;no;650;rightarrow;745;true;focus;yes;2029876;Chrome;112.0;Windows;10;undefined;undefined;1536 x 864;1536 x 864
H036;23;Mannelijk;Rechts;5;73;right;no;650;rightarrow;781;true;focus;yes;2031447;Chrome;112.0;Windows;10;undefined;undefined;1536 x 864;1536 x 864
H036;23;Mannelijk;Rechts;5;74;right;yes;650;rightarrow;779;false;focus;yes;2033004;Chrome;112.0;Windows;10;undefined;undefined;1536 x 864;1536 x 864
H036;23;Mannelijk;Rechts;5;75;left;no;600;leftarrow;1017;true;focus;yes;2034787;Chrome;112.0;Windows;10;undefined;undefined;1536 x 864;1536 x 864
H036;23;Mannelijk;Rechts;5;76;left;yes;600;undefined;null;true;focus;yes;2036818;Chrome;112.0;Windows;10;undefined;undefined;1536 x 864;1536 x 864
H036;23;Mannelijk;Rechts;5;77;right;no;650;rightarrow;808;true;focus;yes;2038391;Chrome;112.0;Windows;10;undefined;undefined;1536 x 864;1536 x 864
H036;23;Mannelijk;Rechts;5;78;right;no;650;rightarrow;986;true;focus;yes;2040148;Chrome;112.0;Windows;10;undefined;undefined;1536 x 864;1536 x 864
H036;23;Mannelijk;Rechts;5;79;left;no;650;leftarrow;769;true;focus;yes;2041686;Chrome;112.0;Windows;10;undefined;undefined;1536 x 864;1536 x 864
H036;23;Mannelijk;Rechts;5;80;left;no;650;leftarrow;761;true;focus;yes;2043217;Chrome;112.0;Windows;10;undefined;undefined;1536 x 864;1536 x 864
H036;23;Mannelijk;Rechts;5;81;right;no;650;rightarrow;937;true;focus;yes;2044935;Chrome;112.0;Windows;10;undefined;undefined;1536 x 864;1536 x 864
H036;23;Mannelijk;Rechts;5;82;left;yes;650;undefined;null;true;focus;yes;2046971;Chrome;112.0;Windows;10;undefined;undefined;1536 x 864;1536 x 864
H036;23;Mannelijk;Rechts;5;83;right;yes;700;rightarrow;731;false;focus;yes;2048475;Chrome;112.0;Windows;10;undefined;undefined;1536 x 864;1536 x 864
H036;23;Mannelijk;Rechts;5;84;right;no;650;rightarrow;917;true;focus;yes;2050162;Chrome;112.0;Windows;10;undefined;undefined;1536 x 864;1536 x 864
H036;23;Mannelijk;Rechts;5;85;left;no;650;leftarrow;788;true;focus;yes;2051724;Chrome;112.0;Windows;10;undefined;undefined;1536 x 864;1536 x 864
H036;23;Mannelijk;Rechts;5;86;left;no;650;leftarrow;819;true;focus;yes;2053310;Chrome;112.0;Windows;10;undefined;undefined;1536 x 864;1536 x 864
H036;23;Mannelijk;Rechts;5;87;right;no;650;rightarrow;501;true;focus;yes;2054586;Chrome;112.0;Windows;10;undefined;undefined;1536 x 864;1536 x 864
H036;23;Mannelijk;Rechts;5;88;left;no;650;leftarrow;742;true;focus;yes;2056092;Chrome;112.0;Windows;10;undefined;undefined;1536 x 864;1536 x 864
H036;23;Mannelijk;Rechts;5;89;right;yes;650;rightarrow;594;false;focus;yes;2057455;Chrome;112.0;Windows;10;undefined;undefined;1536 x 864;1536 x 864
H036;23;Mannelijk;Rechts;5;90;left;yes;600;leftarrow;521;false;focus;yes;2058760;Chrome;112.0;Windows;10;undefined;undefined;1536 x 864;1536 x 864
H036;23;Mannelijk;Rechts;5;91;right;no;550;rightarrow;477;true;focus;yes;2060009;Chrome;112.0;Windows;10;undefined;undefined;1536 x 864;1536 x 864
H036;23;Mannelijk;Rechts;5;92;left;no;550;leftarrow;570;true;focus;yes;2061352;Chrome;112.0;Windows;10;undefined;undefined;1536 x 864;1536 x 864
H036;23;Mannelijk;Rechts;5;93;left;no;550;leftarrow;538;true;focus;yes;2062671;Chrome;112.0;Windows;10;undefined;undefined;1536 x 864;1536 x 864
H036;23;Mannelijk;Rechts;5;94;right;no;550;rightarrow;479;true;focus;yes;2063933;Chrome;112.0;Windows;10;undefined;undefined;1536 x 864;1536 x 864
H036;23;Mannelijk;Rechts;5;95;left;no;550;leftarrow;469;true;focus;yes;2065176;Chrome;112.0;Windows;10;undefined;undefined;1536 x 864;1536 x 864
H036;23;Mannelijk;Rechts;5;96;right;no;550;rightarrow;653;true;focus;yes;2066591;Chrome;112.0;Windows;10;undefined;undefined;1536 x 864;1536 x 864
H036;23;Mannelijk;Rechts;5;97;left;no;550;leftarrow;381;true;focus;yes;2067744;Chrome;112.0;Windows;10;undefined;undefined;1536 x 864;1536 x 864
H036;23;Mannelijk;Rechts;5;98;left;no;550;leftarrow;490;true;focus;yes;2068999;Chrome;112.0;Windows;10;undefined;undefined;1536 x 864;1536 x 864
H036;23;Mannelijk;Rechts;5;99;left;no;550;leftarrow;437;true;focus;yes;2070198;Chrome;112.0;Windows;10;undefined;undefined;1536 x 864;1536 x 864
H036;23;Mannelijk;Rechts;5;100;right;no;550;rightarrow;660;true;focus;yes;2071643;Chrome;112.0;Windows;10;undefined;undefined;1536 x 864;1536 x 864
H036;23;Mannelijk;Rechts;5;101;right;no;550;rightarrow;541;true;focus;yes;2072949;Chrome;112.0;Windows;10;undefined;undefined;1536 x 864;1536 x 864
H036;23;Mannelijk;Rechts;5;102;left;yes;550;leftarrow;653;false;focus;yes;2074373;Chrome;112.0;Windows;10;undefined;undefined;1536 x 864;1536 x 864
H036;23;Mannelijk;Rechts;5;103;right;yes;500;undefined;null;true;focus;yes;2076408;Chrome;112.0;Windows;10;undefined;undefined;1536 x 864;1536 x 864
H036;23;Mannelijk;Rechts;5;104;right;no;550;rightarrow;547;true;focus;yes;2077718;Chrome;112.0;Windows;10;undefined;undefined;1536 x 864;1536 x 864
H036;23;Mannelijk;Rechts;5;105;left;yes;550;undefined;null;true;focus;yes;2079743;Chrome;112.0;Windows;10;undefined;undefined;1536 x 864;1536 x 864
H036;23;Mannelijk;Rechts;5;106;right;no;600;rightarrow;633;true;focus;yes;2081145;Chrome;112.0;Windows;10;undefined;undefined;1536 x 864;1536 x 864
H036;23;Mannelijk;Rechts;5;107;left;no;600;leftarrow;697;true;focus;yes;2082632;Chrome;112.0;Windows;10;undefined;undefined;1536 x 864;1536 x 864
H036;23;Mannelijk;Rechts;5;108;right;yes;600;rightarrow;621;false;focus;yes;2084028;Chrome;112.0;Windows;10;undefined;undefined;1536 x 864;1536 x 864
H036;23;Mannelijk;Rechts;5;109;left;no;550;leftarrow;921;true;focus;yes;2085733;Chrome;112.0;Windows;10;undefined;undefined;1536 x 864;1536 x 864
H036;23;Mannelijk;Rechts;5;110;left;no;550;leftarrow;802;true;focus;yes;2087316;Chrome;112.0;Windows;10;undefined;undefined;1536 x 864;1536 x 864
H036;23;Mannelijk;Rechts;5;111;right;no;550;rightarrow;723;true;focus;yes;2088816;Chrome;112.0;Windows;10;undefined;undefined;1536 x 864;1536 x 864
H036;23;Mannelijk;Rechts;5;112;right;no;550;rightarrow;739;true;focus;yes;2090323;Chrome;112.0;Windows;10;undefined;undefined;1536 x 864;1536 x 864
H036;23;Mannelijk;Rechts;5;113;right;no;550;rightarrow;628;true;focus;yes;2091729;Chrome;112.0;Windows;10;undefined;undefined;1536 x 864;1536 x 864
H036;23;Mannelijk;Rechts;5;114;right;no;550;rightarrow;705;true;focus;yes;2093211;Chrome;112.0;Windows;10;undefined;undefined;1536 x 864;1536 x 864
H036;23;Mannelijk;Rechts;5;115;left;no;550;leftarrow;702;true;focus;yes;2094678;Chrome;112.0;Windows;10;undefined;undefined;1536 x 864;1536 x 864
H036;23;Mannelijk;Rechts;5;116;left;no;550;leftarrow;691;true;focus;yes;2096143;Chrome;112.0;Windows;10;undefined;undefined;1536 x 864;1536 x 864
H036;23;Mannelijk;Rechts;5;117;left;yes;550;leftarrow;716;false;focus;yes;2097629;Chrome;112.0;Windows;10;undefined;undefined;1536 x 864;1536 x 864
H036;23;Mannelijk;Rechts;5;118;left;no;500;leftarrow;772;true;focus;yes;2099182;Chrome;112.0;Windows;10;undefined;undefined;1536 x 864;1536 x 864
H036;23;Mannelijk;Rechts;5;119;right;no;500;rightarrow;872;true;focus;yes;2100825;Chrome;112.0;Windows;10;undefined;undefined;1536 x 864;1536 x 864
H036;23;Mannelijk;Rechts;5;120;right;yes;500;undefined;null;true;focus;yes;2102858;Chrome;112.0;Windows;10;undefined;undefined;1536 x 864;1536 x 864
H036;23;Mannelijk;Rechts;5;121;left;no;550;leftarrow;933;true;focus;yes;2104555;Chrome;112.0;Windows;10;undefined;undefined;1536 x 864;1536 x 864
H036;23;Mannelijk;Rechts;5;122;left;no;550;leftarrow;707;true;focus;yes;2106041;Chrome;112.0;Windows;10;undefined;undefined;1536 x 864;1536 x 864
H036;23;Mannelijk;Rechts;5;123;right;no;550;rightarrow;805;true;focus;yes;2107628;Chrome;112.0;Windows;10;undefined;undefined;1536 x 864;1536 x 864
H036;23;Mannelijk;Rechts;5;124;right;yes;550;undefined;null;true;focus;yes;2109668;Chrome;112.0;Windows;10;undefined;undefined;1536 x 864;1536 x 864
H036;23;Mannelijk;Rechts;5;125;right;no;600;rightarrow;724;true;focus;yes;2111164;Chrome;112.0;Windows;10;undefined;undefined;1536 x 864;1536 x 864
H036;23;Mannelijk;Rechts;5;126;right;no;600;rightarrow;909;true;focus;yes;2112847;Chrome;112.0;Windows;10;undefined;undefined;1536 x 864;1536 x 864
H036;23;Mannelijk;Rechts;5;127;left;no;600;leftarrow;815;true;focus;yes;2114431;Chrome;112.0;Windows;10;undefined;undefined;1536 x 864;1536 x 864
H036;23;Mannelijk;Rechts;5;128;left;yes;600;undefined;null;true;focus;yes;2116460;Chrome;112.0;Windows;10;undefined;undefined;1536 x 864;1536 x 864
H036;23;Mannelijk;Rechts;6;1;right;no;650;rightarrow;508;true;focus;yes;2179617;Chrome;112.0;Windows;10;undefined;undefined;1536 x 864;1536 x 864
H036;23;Mannelijk;Rechts;6;2;right;no;650;rightarrow;404;true;focus;yes;2180792;Chrome;112.0;Windows;10;undefined;undefined;1536 x 864;1536 x 864
H036;23;Mannelijk;Rechts;6;3;left;no;650;leftarrow;503;true;focus;yes;2182059;Chrome;112.0;Windows;10;undefined;undefined;1536 x 864;1536 x 864
H036;23;Mannelijk;Rechts;6;4;left;no;650;leftarrow;552;true;focus;yes;2183379;Chrome;112.0;Windows;10;undefined;undefined;1536 x 864;1536 x 864
H036;23;Mannelijk;Rechts;6;5;left;no;650;leftarrow;613;true;focus;yes;2184766;Chrome;112.0;Windows;10;undefined;undefined;1536 x 864;1536 x 864
H036;23;Mannelijk;Rechts;6;6;right;no;650;rightarrow;602;true;focus;yes;2186143;Chrome;112.0;Windows;10;undefined;undefined;1536 x 864;1536 x 864
H036;23;Mannelijk;Rechts;6;7;right;yes;650;rightarrow;550;false;focus;yes;2187476;Chrome;112.0;Windows;10;undefined;undefined;1536 x 864;1536 x 864
H036;23;Mannelijk;Rechts;6;8;left;yes;600;leftarrow;370;false;focus;yes;2188617;Chrome;112.0;Windows;10;undefined;undefined;1536 x 864;1536 x 864
H036;23;Mannelijk;Rechts;6;9;left;no;550;leftarrow;521;true;focus;yes;2189908;Chrome;112.0;Windows;10;undefined;undefined;1536 x 864;1536 x 864
H036;23;Mannelijk;Rechts;6;10;left;yes;550;leftarrow;581;false;focus;yes;2191253;Chrome;112.0;Windows;10;undefined;undefined;1536 x 864;1536 x 864
H036;23;Mannelijk;Rechts;6;11;left;no;500;leftarrow;854;true;focus;yes;2192884;Chrome;112.0;Windows;10;undefined;undefined;1536 x 864;1536 x 864
H036;23;Mannelijk;Rechts;6;12;left;no;500;leftarrow;789;true;focus;yes;2194450;Chrome;112.0;Windows;10;undefined;undefined;1536 x 864;1536 x 864
H036;23;Mannelijk;Rechts;6;13;right;yes;500;rightarrow;539;false;focus;yes;2195763;Chrome;112.0;Windows;10;undefined;undefined;1536 x 864;1536 x 864
H036;23;Mannelijk;Rechts;6;14;right;no;450;rightarrow;697;true;focus;yes;2197225;Chrome;112.0;Windows;10;undefined;undefined;1536 x 864;1536 x 864
H036;23;Mannelijk;Rechts;6;15;right;no;450;rightarrow;604;true;focus;yes;2198606;Chrome;112.0;Windows;10;undefined;undefined;1536 x 864;1536 x 864
H036;23;Mannelijk;Rechts;6;16;right;no;450;rightarrow;706;true;focus;yes;2200092;Chrome;112.0;Windows;10;undefined;undefined;1536 x 864;1536 x 864
H036;23;Mannelijk;Rechts;6;17;left;no;450;leftarrow;941;true;focus;yes;2201811;Chrome;112.0;Windows;10;undefined;undefined;1536 x 864;1536 x 864
H036;23;Mannelijk;Rechts;6;18;right;yes;450;undefined;null;true;focus;yes;2203842;Chrome;112.0;Windows;10;undefined;undefined;1536 x 864;1536 x 864
H036;23;Mannelijk;Rechts;6;19;right;no;500;rightarrow;753;true;focus;yes;2205385;Chrome;112.0;Windows;10;undefined;undefined;1536 x 864;1536 x 864
H036;23;Mannelijk;Rechts;6;20;right;no;500;rightarrow;1079;true;focus;yes;2207242;Chrome;112.0;Windows;10;undefined;undefined;1536 x 864;1536 x 864
H036;23;Mannelijk;Rechts;6;21;left;no;500;leftarrow;769;true;focus;yes;2208787;Chrome;112.0;Windows;10;undefined;undefined;1536 x 864;1536 x 864
H036;23;Mannelijk;Rechts;6;22;right;no;500;rightarrow;861;true;focus;yes;2210423;Chrome;112.0;Windows;10;undefined;undefined;1536 x 864;1536 x 864
H036;23;Mannelijk;Rechts;6;23;left;no;500;leftarrow;690;true;focus;yes;2211890;Chrome;112.0;Windows;10;undefined;undefined;1536 x 864;1536 x 864
H036;23;Mannelijk;Rechts;6;24;left;yes;500;undefined;null;true;focus;yes;2213936;Chrome;112.0;Windows;10;undefined;undefined;1536 x 864;1536 x 864
H036;23;Mannelijk;Rechts;6;25;left;no;550;leftarrow;822;true;focus;yes;2215534;Chrome;112.0;Windows;10;undefined;undefined;1536 x 864;1536 x 864
H036;23;Mannelijk;Rechts;6;26;left;yes;550;undefined;null;true;focus;yes;2217567;Chrome;112.0;Windows;10;undefined;undefined;1536 x 864;1536 x 864
H036;23;Mannelijk;Rechts;6;27;right;no;600;rightarrow;811;true;focus;yes;2219159;Chrome;112.0;Windows;10;undefined;undefined;1536 x 864;1536 x 864
H036;23;Mannelijk;Rechts;6;28;right;no;600;rightarrow;1051;true;focus;yes;2220976;Chrome;112.0;Windows;10;undefined;undefined;1536 x 864;1536 x 864
H036;23;Mannelijk;Rechts;6;29;right;yes;600;rightarrow;733;false;focus;yes;2222477;Chrome;112.0;Windows;10;undefined;undefined;1536 x 864;1536 x 864
H036;23;Mannelijk;Rechts;6;30;left;no;550;leftarrow;1095;true;focus;yes;2224341;Chrome;112.0;Windows;10;undefined;undefined;1536 x 864;1536 x 864
