participantID;age;gender;handedness;block_i;trial_i;stim;signal;SSD;response;rt;correct;focus;Fullscreen;time_elapsed;browser_name;browser_version;os_name;os_version;tablet;mobile;screen_resolution;window_resolution
H005;22;Vrouwelijk;Rechts;0;1;left;no;200;leftarrow;922;true;focus;yes;179779;Chrome;111.0;Windows;10;undefined;undefined;1504 x 1003;1504 x 1003
H005;22;Vrouwelijk;Rechts;0;2;left;no;200;leftarrow;517;true;focus;yes;181838;Chrome;111.0;Windows;10;undefined;undefined;1504 x 1003;1504 x 1003
H005;22;Vrouwelijk;Rechts;0;3;right;yes;200;leftarrow;335;false;focus;yes;183704;Chrome;111.0;Windows;10;undefined;undefined;1504 x 1003;1504 x 1003
H005;22;Vrouwelijk;Rechts;0;4;right;no;150;rightarrow;356;true;focus;yes;185583;Chrome;111.0;Windows;10;undefined;undefined;1504 x 1003;1504 x 1003
H005;22;Vrouwelijk;Rechts;0;5;left;no;150;leftarrow;367;true;focus;yes;187493;Chrome;111.0;Windows;10;undefined;undefined;1504 x 1003;1504 x 1003
H005;22;Vrouwelijk;Rechts;0;6;left;yes;150;leftarrow;530;false;focus;yes;189564;Chrome;111.0;Windows;10;undefined;undefined;1504 x 1003;1504 x 1003
H005;22;Vrouwelijk;Rechts;0;7;right;no;100;rightarrow;513;true;focus;yes;191609;Chrome;111.0;Windows;10;undefined;undefined;1504 x 1003;1504 x 1003
H005;22;Vrouwelijk;Rechts;0;8;right;no;100;rightarrow;366;true;focus;yes;193507;Chrome;111.0;Windows;10;undefined;undefined;1504 x 1003;1504 x 1003
H005;22;Vrouwelijk;Rechts;1;1;left;no;100;leftarrow;457;true;focus;yes;214507;Chrome;111.0;Windows;10;undefined;undefined;1504 x 1003;1504 x 1003
H005;22;Vrouwelijk;Rechts;1;2;right;no;100;rightarrow;330;true;focus;yes;215613;Chrome;111.0;Windows;10;undefined;undefined;1504 x 1003;1504 x 1003
H005;22;Vrouwelijk;Rechts;1;3;left;no;100;leftarrow;260;true;focus;yes;216637;Chrome;111.0;Windows;10;undefined;undefined;1504 x 1003;1504 x 1003
H005;22;Vrouwelijk;Rechts;1;4;left;yes;100;rightarrow;264;false;focus;yes;217673;Chrome;111.0;Windows;10;undefined;undefined;1504 x 1003;1504 x 1003
H005;22;Vrouwelijk;Rechts;1;5;left;no;50;leftarrow;466;true;focus;yes;218915;Chrome;111.0;Windows;10;undefined;undefined;1504 x 1003;1504 x 1003
H005;22;Vrouwelijk;Rechts;1;6;right;no;50;rightarrow;398;true;focus;yes;220089;Chrome;111.0;Windows;10;undefined;undefined;1504 x 1003;1504 x 1003
H005;22;Vrouwelijk;Rechts;1;7;right;no;50;leftarrow;255;false;focus;yes;221130;Chrome;111.0;Windows;10;undefined;undefined;1504 x 1003;1504 x 1003
H005;22;Vrouwelijk;Rechts;1;8;right;yes;50;rightarrow;322;false;focus;yes;222215;Chrome;111.0;Windows;10;undefined;undefined;1504 x 1003;1504 x 1003
H005;22;Vrouwelijk;Rechts;1;9;right;no;50;leftarrow;294;false;focus;yes;223276;Chrome;111.0;Windows;10;undefined;undefined;1504 x 1003;1504 x 1003
H005;22;Vrouwelijk;Rechts;1;10;left;no;50;rightarrow;262;false;focus;yes;224316;Chrome;111.0;Windows;10;undefined;undefined;1504 x 1003;1504 x 1003
H005;22;Vrouwelijk;Rechts;1;11;left;no;50;leftarrow;293;true;focus;yes;225379;Chrome;111.0;Windows;10;undefined;undefined;1504 x 1003;1504 x 1003
H005;22;Vrouwelijk;Rechts;1;12;right;no;50;leftarrow;273;false;focus;yes;226421;Chrome;111.0;Windows;10;undefined;undefined;1504 x 1003;1504 x 1003
H005;22;Vrouwelijk;Rechts;1;13;left;no;50;rightarrow;267;false;focus;yes;227452;Chrome;111.0;Windows;10;undefined;undefined;1504 x 1003;1504 x 1003
H005;22;Vrouwelijk;Rechts;1;14;right;yes;50;leftarrow;276;false;focus;yes;228495;Chrome;111.0;Windows;10;undefined;undefined;1504 x 1003;1504 x 1003
H005;22;Vrouwelijk;Rechts;1;15;left;yes;50;leftarrow;230;false;focus;yes;229494;Chrome;111.0;Windows;10;undefined;undefined;1504 x 1003;1504 x 1003
H005;22;Vrouwelijk;Rechts;1;16;right;no;50;rightarrow;16;true;focus;yes;230270;Chrome;111.0;Windows;10;undefined;undefined;1504 x 1003;1504 x 1003
H005;22;Vrouwelijk;Rechts;1;17;right;no;50;leftarrow;279;false;focus;yes;231311;Chrome;111.0;Windows;10;undefined;undefined;1504 x 1003;1504 x 1003
H005;22;Vrouwelijk;Rechts;1;18;left;no;50;leftarrow;302;true;focus;yes;232382;Chrome;111.0;Windows;10;undefined;undefined;1504 x 1003;1504 x 1003
H005;22;Vrouwelijk;Rechts;1;19;left;no;50;rightarrow;172;false;focus;yes;233323;Chrome;111.0;Windows;10;undefined;undefined;1504 x 1003;1504 x 1003
H005;22;Vrouwelijk;Rechts;1;20;right;no;50;leftarrow;285;false;focus;yes;234370;Chrome;111.0;Windows;10;undefined;undefined;1504 x 1003;1504 x 1003
H005;22;Vrouwelijk;Rechts;1;21;left;no;50;leftarrow;779;true;focus;yes;235922;Chrome;111.0;Windows;10;undefined;undefined;1504 x 1003;1504 x 1003
H005;22;Vrouwelijk;Rechts;1;22;left;yes;50;rightarrow;252;false;focus;yes;236951;Chrome;111.0;Windows;10;undefined;undefined;1504 x 1003;1504 x 1003
H005;22;Vrouwelijk;Rechts;1;23;right;no;50;leftarrow;264;false;focus;yes;237985;Chrome;111.0;Windows;10;undefined;undefined;1504 x 1003;1504 x 1003
H005;22;Vrouwelijk;Rechts;1;24;right;yes;50;rightarrow;484;false;focus;yes;239238;Chrome;111.0;Windows;10;undefined;undefined;1504 x 1003;1504 x 1003
H005;22;Vrouwelijk;Rechts;1;25;right;no;50;leftarrow;177;false;focus;yes;240179;Chrome;111.0;Windows;10;undefined;undefined;1504 x 1003;1504 x 1003
H005;22;Vrouwelijk;Rechts;1;26;left;no;50;rightarrow;287;false;focus;yes;241229;Chrome;111.0;Windows;10;undefined;undefined;1504 x 1003;1504 x 1003
H005;22;Vrouwelijk;Rechts;1;27;right;no;50;rightarrow;789;true;focus;yes;242794;Chrome;111.0;Windows;10;undefined;undefined;1504 x 1003;1504 x 1003
H005;22;Vrouwelijk;Rechts;1;28;right;yes;50;leftarrow;268;false;focus;yes;243839;Chrome;111.0;Windows;10;undefined;undefined;1504 x 1003;1504 x 1003
H005;22;Vrouwelijk;Rechts;1;29;left;no;50;leftarrow;311;true;focus;yes;244933;Chrome;111.0;Windows;10;undefined;undefined;1504 x 1003;1504 x 1003
H005;22;Vrouwelijk;Rechts;1;30;left;yes;50;rightarrow;232;false;focus;yes;245930;Chrome;111.0;Windows;10;undefined;undefined;1504 x 1003;1504 x 1003
H005;22;Vrouwelijk;Rechts;1;31;right;no;50;leftarrow;286;false;focus;yes;246982;Chrome;111.0;Windows;10;undefined;undefined;1504 x 1003;1504 x 1003
H005;22;Vrouwelijk;Rechts;1;32;left;no;50;rightarrow;292;false;focus;yes;248040;Chrome;111.0;Windows;10;undefined;undefined;1504 x 1003;1504 x 1003
H005;22;Vrouwelijk;Rechts;1;33;left;yes;50;leftarrow;698;false;focus;yes;249512;Chrome;111.0;Windows;10;undefined;undefined;1504 x 1003;1504 x 1003
H005;22;Vrouwelijk;Rechts;1;34;right;yes;50;rightarrow;420;false;focus;yes;250699;Chrome;111.0;Windows;10;undefined;undefined;1504 x 1003;1504 x 1003
H005;22;Vrouwelijk;Rechts;1;35;left;no;50;leftarrow;259;true;focus;yes;251734;Chrome;111.0;Windows;10;undefined;undefined;1504 x 1003;1504 x 1003
H005;22;Vrouwelijk;Rechts;1;36;left;no;50;rightarrow;282;false;focus;yes;252779;Chrome;111.0;Windows;10;undefined;undefined;1504 x 1003;1504 x 1003
H005;22;Vrouwelijk;Rechts;1;37;right;no;50;rightarrow;389;true;focus;yes;253941;Chrome;111.0;Windows;10;undefined;undefined;1504 x 1003;1504 x 1003
H005;22;Vrouwelijk;Rechts;1;38;right;no;50;leftarrow;357;false;focus;yes;255078;Chrome;111.0;Windows;10;undefined;undefined;1504 x 1003;1504 x 1003
H005;22;Vrouwelijk;Rechts;1;39;left;no;50;leftarrow;305;true;focus;yes;256176;Chrome;111.0;Windows;10;undefined;undefined;1504 x 1003;1504 x 1003
H005;22;Vrouwelijk;Rechts;1;40;right;no;50;rightarrow;279;true;focus;yes;257217;Chrome;111.0;Windows;10;undefined;undefined;1504 x 1003;1504 x 1003
H005;22;Vrouwelijk;Rechts;1;41;left;no;50;leftarrow;237;true;focus;yes;258220;Chrome;111.0;Windows;10;undefined;undefined;1504 x 1003;1504 x 1003
H005;22;Vrouwelijk;Rechts;1;42;left;no;50;leftarrow;528;true;focus;yes;259518;Chrome;111.0;Windows;10;undefined;undefined;1504 x 1003;1504 x 1003
H005;22;Vrouwelijk;Rechts;1;43;right;no;50;leftarrow;377;false;focus;yes;260657;Chrome;111.0;Windows;10;undefined;undefined;1504 x 1003;1504 x 1003
H005;22;Vrouwelijk;Rechts;1;44;right;no;50;rightarrow;590;true;focus;yes;262021;Chrome;111.0;Windows;10;undefined;undefined;1504 x 1003;1504 x 1003
H005;22;Vrouwelijk;Rechts;1;45;right;yes;50;rightarrow;465;false;focus;yes;263246;Chrome;111.0;Windows;10;undefined;undefined;1504 x 1003;1504 x 1003
H005;22;Vrouwelijk;Rechts;1;46;right;no;50;rightarrow;480;true;focus;yes;264503;Chrome;111.0;Windows;10;undefined;undefined;1504 x 1003;1504 x 1003
H005;22;Vrouwelijk;Rechts;1;47;left;yes;50;leftarrow;393;false;focus;yes;265680;Chrome;111.0;Windows;10;undefined;undefined;1504 x 1003;1504 x 1003
H005;22;Vrouwelijk;Rechts;1;48;left;no;50;leftarrow;529;true;focus;yes;266993;Chrome;111.0;Windows;10;undefined;undefined;1504 x 1003;1504 x 1003
H005;22;Vrouwelijk;Rechts;1;49;right;no;50;leftarrow;461;false;focus;yes;268237;Chrome;111.0;Windows;10;undefined;undefined;1504 x 1003;1504 x 1003
H005;22;Vrouwelijk;Rechts;1;50;left;yes;50;leftarrow;589;false;focus;yes;269589;Chrome;111.0;Windows;10;undefined;undefined;1504 x 1003;1504 x 1003
H005;22;Vrouwelijk;Rechts;1;51;left;no;50;leftarrow;618;true;focus;yes;270993;Chrome;111.0;Windows;10;undefined;undefined;1504 x 1003;1504 x 1003
H005;22;Vrouwelijk;Rechts;1;52;right;yes;50;undefined;null;true;focus;yes;273020;Chrome;111.0;Windows;10;undefined;undefined;1504 x 1003;1504 x 1003
H005;22;Vrouwelijk;Rechts;1;53;right;no;100;rightarrow;462;true;focus;yes;274264;Chrome;111.0;Windows;10;undefined;undefined;1504 x 1003;1504 x 1003
H005;22;Vrouwelijk;Rechts;1;54;right;no;100;rightarrow;357;true;focus;yes;275398;Chrome;111.0;Windows;10;undefined;undefined;1504 x 1003;1504 x 1003
H005;22;Vrouwelijk;Rechts;1;55;left;no;100;leftarrow;448;true;focus;yes;276610;Chrome;111.0;Windows;10;undefined;undefined;1504 x 1003;1504 x 1003
H005;22;Vrouwelijk;Rechts;1;56;left;no;100;leftarrow;417;true;focus;yes;277793;Chrome;111.0;Windows;10;undefined;undefined;1504 x 1003;1504 x 1003
H005;22;Vrouwelijk;Rechts;1;57;right;yes;100;undefined;null;true;focus;yes;279820;Chrome;111.0;Windows;10;undefined;undefined;1504 x 1003;1504 x 1003
H005;22;Vrouwelijk;Rechts;1;58;right;no;150;rightarrow;364;true;focus;yes;280962;Chrome;111.0;Windows;10;undefined;undefined;1504 x 1003;1504 x 1003
H005;22;Vrouwelijk;Rechts;1;59;right;no;150;rightarrow;356;true;focus;yes;282096;Chrome;111.0;Windows;10;undefined;undefined;1504 x 1003;1504 x 1003
H005;22;Vrouwelijk;Rechts;1;60;left;no;150;leftarrow;451;true;focus;yes;283326;Chrome;111.0;Windows;10;undefined;undefined;1504 x 1003;1504 x 1003
H005;22;Vrouwelijk;Rechts;1;61;right;no;150;rightarrow;496;true;focus;yes;284590;Chrome;111.0;Windows;10;undefined;undefined;1504 x 1003;1504 x 1003
H005;22;Vrouwelijk;Rechts;1;62;left;no;150;leftarrow;428;true;focus;yes;285784;Chrome;111.0;Windows;10;undefined;undefined;1504 x 1003;1504 x 1003
H005;22;Vrouwelijk;Rechts;1;63;left;no;150;leftarrow;478;true;focus;yes;287040;Chrome;111.0;Windows;10;undefined;undefined;1504 x 1003;1504 x 1003
H005;22;Vrouwelijk;Rechts;1;64;left;yes;150;leftarrow;400;false;focus;yes;288226;Chrome;111.0;Windows;10;undefined;undefined;1504 x 1003;1504 x 1003
H005;22;Vrouwelijk;Rechts;1;65;right;no;100;rightarrow;369;true;focus;yes;289368;Chrome;111.0;Windows;10;undefined;undefined;1504 x 1003;1504 x 1003
H005;22;Vrouwelijk;Rechts;1;66;left;no;100;leftarrow;374;true;focus;yes;290519;Chrome;111.0;Windows;10;undefined;undefined;1504 x 1003;1504 x 1003
H005;22;Vrouwelijk;Rechts;1;67;left;no;100;leftarrow;362;true;focus;yes;291656;Chrome;111.0;Windows;10;undefined;undefined;1504 x 1003;1504 x 1003
H005;22;Vrouwelijk;Rechts;1;68;right;no;100;rightarrow;776;true;focus;yes;293225;Chrome;111.0;Windows;10;undefined;undefined;1504 x 1003;1504 x 1003
H005;22;Vrouwelijk;Rechts;1;69;left;no;100;leftarrow;352;true;focus;yes;294346;Chrome;111.0;Windows;10;undefined;undefined;1504 x 1003;1504 x 1003
H005;22;Vrouwelijk;Rechts;1;70;right;no;100;rightarrow;387;true;focus;yes;295513;Chrome;111.0;Windows;10;undefined;undefined;1504 x 1003;1504 x 1003
H005;22;Vrouwelijk;Rechts;1;71;left;yes;100;undefined;null;true;focus;yes;297535;Chrome;111.0;Windows;10;undefined;undefined;1504 x 1003;1504 x 1003
H005;22;Vrouwelijk;Rechts;1;72;right;yes;150;rightarrow;328;false;focus;yes;298638;Chrome;111.0;Windows;10;undefined;undefined;1504 x 1003;1504 x 1003
H005;22;Vrouwelijk;Rechts;1;73;left;no;100;leftarrow;377;true;focus;yes;299778;Chrome;111.0;Windows;10;undefined;undefined;1504 x 1003;1504 x 1003
H005;22;Vrouwelijk;Rechts;1;74;left;no;100;leftarrow;386;true;focus;yes;300930;Chrome;111.0;Windows;10;undefined;undefined;1504 x 1003;1504 x 1003
H005;22;Vrouwelijk;Rechts;1;75;left;yes;100;leftarrow;392;false;focus;yes;302096;Chrome;111.0;Windows;10;undefined;undefined;1504 x 1003;1504 x 1003
H005;22;Vrouwelijk;Rechts;1;76;right;no;50;rightarrow;387;true;focus;yes;303258;Chrome;111.0;Windows;10;undefined;undefined;1504 x 1003;1504 x 1003
H005;22;Vrouwelijk;Rechts;1;77;right;no;50;rightarrow;518;true;focus;yes;304580;Chrome;111.0;Windows;10;undefined;undefined;1504 x 1003;1504 x 1003
H005;22;Vrouwelijk;Rechts;1;78;right;yes;50;undefined;null;true;focus;yes;306607;Chrome;111.0;Windows;10;undefined;undefined;1504 x 1003;1504 x 1003
H005;22;Vrouwelijk;Rechts;1;79;right;no;100;rightarrow;354;true;focus;yes;307732;Chrome;111.0;Windows;10;undefined;undefined;1504 x 1003;1504 x 1003
H005;22;Vrouwelijk;Rechts;1;80;left;no;100;leftarrow;409;true;focus;yes;308914;Chrome;111.0;Windows;10;undefined;undefined;1504 x 1003;1504 x 1003
H005;22;Vrouwelijk;Rechts;1;81;right;no;100;rightarrow;354;true;focus;yes;310034;Chrome;111.0;Windows;10;undefined;undefined;1504 x 1003;1504 x 1003
H005;22;Vrouwelijk;Rechts;1;82;right;no;100;rightarrow;498;true;focus;yes;311306;Chrome;111.0;Windows;10;undefined;undefined;1504 x 1003;1504 x 1003
H005;22;Vrouwelijk;Rechts;1;83;right;no;100;rightarrow;509;true;focus;yes;312583;Chrome;111.0;Windows;10;undefined;undefined;1504 x 1003;1504 x 1003
H005;22;Vrouwelijk;Rechts;1;84;right;yes;100;rightarrow;399;false;focus;yes;313762;Chrome;111.0;Windows;10;undefined;undefined;1504 x 1003;1504 x 1003
H005;22;Vrouwelijk;Rechts;1;85;left;no;50;leftarrow;374;true;focus;yes;314920;Chrome;111.0;Windows;10;undefined;undefined;1504 x 1003;1504 x 1003
H005;22;Vrouwelijk;Rechts;1;86;left;no;50;leftarrow;367;true;focus;yes;316065;Chrome;111.0;Windows;10;undefined;undefined;1504 x 1003;1504 x 1003
H005;22;Vrouwelijk;Rechts;1;87;left;no;50;leftarrow;376;true;focus;yes;317213;Chrome;111.0;Windows;10;undefined;undefined;1504 x 1003;1504 x 1003
H005;22;Vrouwelijk;Rechts;1;88;left;yes;50;leftarrow;357;false;focus;yes;318331;Chrome;111.0;Windows;10;undefined;undefined;1504 x 1003;1504 x 1003
H005;22;Vrouwelijk;Rechts;1;89;right;yes;50;undefined;null;true;focus;yes;320394;Chrome;111.0;Windows;10;undefined;undefined;1504 x 1003;1504 x 1003
H005;22;Vrouwelijk;Rechts;1;90;left;no;100;leftarrow;316;true;focus;yes;321509;Chrome;111.0;Windows;10;undefined;undefined;1504 x 1003;1504 x 1003
H005;22;Vrouwelijk;Rechts;1;91;left;no;100;leftarrow;366;true;focus;yes;322643;Chrome;111.0;Windows;10;undefined;undefined;1504 x 1003;1504 x 1003
H005;22;Vrouwelijk;Rechts;1;92;right;no;100;rightarrow;509;true;focus;yes;323923;Chrome;111.0;Windows;10;undefined;undefined;1504 x 1003;1504 x 1003
H005;22;Vrouwelijk;Rechts;1;93;left;no;100;leftarrow;478;true;focus;yes;325180;Chrome;111.0;Windows;10;undefined;undefined;1504 x 1003;1504 x 1003
H005;22;Vrouwelijk;Rechts;1;94;left;yes;100;undefined;null;true;focus;yes;327239;Chrome;111.0;Windows;10;undefined;undefined;1504 x 1003;1504 x 1003
H005;22;Vrouwelijk;Rechts;1;95;right;no;150;rightarrow;338;true;focus;yes;328360;Chrome;111.0;Windows;10;undefined;undefined;1504 x 1003;1504 x 1003
H005;22;Vrouwelijk;Rechts;1;96;right;no;150;rightarrow;557;true;focus;yes;329688;Chrome;111.0;Windows;10;undefined;undefined;1504 x 1003;1504 x 1003
H005;22;Vrouwelijk;Rechts;1;97;left;no;150;leftarrow;395;true;focus;yes;330858;Chrome;111.0;Windows;10;undefined;undefined;1504 x 1003;1504 x 1003
H005;22;Vrouwelijk;Rechts;1;98;right;no;150;rightarrow;446;true;focus;yes;332090;Chrome;111.0;Windows;10;undefined;undefined;1504 x 1003;1504 x 1003
H005;22;Vrouwelijk;Rechts;1;99;left;yes;150;leftarrow;400;false;focus;yes;333271;Chrome;111.0;Windows;10;undefined;undefined;1504 x 1003;1504 x 1003
H005;22;Vrouwelijk;Rechts;1;100;right;no;100;leftarrow;387;false;focus;yes;334430;Chrome;111.0;Windows;10;undefined;undefined;1504 x 1003;1504 x 1003
H005;22;Vrouwelijk;Rechts;1;101;right;no;100;rightarrow;418;true;focus;yes;335611;Chrome;111.0;Windows;10;undefined;undefined;1504 x 1003;1504 x 1003
H005;22;Vrouwelijk;Rechts;1;102;left;no;100;leftarrow;578;true;focus;yes;336958;Chrome;111.0;Windows;10;undefined;undefined;1504 x 1003;1504 x 1003
H005;22;Vrouwelijk;Rechts;1;103;right;yes;100;undefined;null;true;focus;yes;338991;Chrome;111.0;Windows;10;undefined;undefined;1504 x 1003;1504 x 1003
H005;22;Vrouwelijk;Rechts;1;104;left;no;150;leftarrow;439;true;focus;yes;340223;Chrome;111.0;Windows;10;undefined;undefined;1504 x 1003;1504 x 1003
H005;22;Vrouwelijk;Rechts;1;105;left;no;150;leftarrow;406;true;focus;yes;341400;Chrome;111.0;Windows;10;undefined;undefined;1504 x 1003;1504 x 1003
H005;22;Vrouwelijk;Rechts;1;106;right;yes;150;undefined;null;true;focus;yes;343432;Chrome;111.0;Windows;10;undefined;undefined;1504 x 1003;1504 x 1003
H005;22;Vrouwelijk;Rechts;1;107;left;yes;200;leftarrow;360;false;focus;yes;344557;Chrome;111.0;Windows;10;undefined;undefined;1504 x 1003;1504 x 1003
H005;22;Vrouwelijk;Rechts;1;108;right;no;150;rightarrow;393;true;focus;yes;345733;Chrome;111.0;Windows;10;undefined;undefined;1504 x 1003;1504 x 1003
H005;22;Vrouwelijk;Rechts;1;109;right;no;150;rightarrow;379;true;focus;yes;346878;Chrome;111.0;Windows;10;undefined;undefined;1504 x 1003;1504 x 1003
H005;22;Vrouwelijk;Rechts;1;110;left;no;150;leftarrow;437;true;focus;yes;348086;Chrome;111.0;Windows;10;undefined;undefined;1504 x 1003;1504 x 1003
H005;22;Vrouwelijk;Rechts;1;111;left;no;150;leftarrow;441;true;focus;yes;349297;Chrome;111.0;Windows;10;undefined;undefined;1504 x 1003;1504 x 1003
H005;22;Vrouwelijk;Rechts;1;112;right;no;150;rightarrow;359;true;focus;yes;350430;Chrome;111.0;Windows;10;undefined;undefined;1504 x 1003;1504 x 1003
H005;22;Vrouwelijk;Rechts;1;113;right;yes;150;rightarrow;432;false;focus;yes;351647;Chrome;111.0;Windows;10;undefined;undefined;1504 x 1003;1504 x 1003
H005;22;Vrouwelijk;Rechts;1;114;right;no;100;rightarrow;541;true;focus;yes;352966;Chrome;111.0;Windows;10;undefined;undefined;1504 x 1003;1504 x 1003
H005;22;Vrouwelijk;Rechts;1;115;right;no;100;rightarrow;443;true;focus;yes;354178;Chrome;111.0;Windows;10;undefined;undefined;1504 x 1003;1504 x 1003
H005;22;Vrouwelijk;Rechts;1;116;left;no;100;leftarrow;494;true;focus;yes;355451;Chrome;111.0;Windows;10;undefined;undefined;1504 x 1003;1504 x 1003
H005;22;Vrouwelijk;Rechts;1;117;left;no;100;leftarrow;420;true;focus;yes;356660;Chrome;111.0;Windows;10;undefined;undefined;1504 x 1003;1504 x 1003
H005;22;Vrouwelijk;Rechts;1;118;left;no;100;leftarrow;372;true;focus;yes;357805;Chrome;111.0;Windows;10;undefined;undefined;1504 x 1003;1504 x 1003
H005;22;Vrouwelijk;Rechts;1;119;left;yes;100;leftarrow;428;false;focus;yes;359018;Chrome;111.0;Windows;10;undefined;undefined;1504 x 1003;1504 x 1003
H005;22;Vrouwelijk;Rechts;1;120;right;no;50;rightarrow;331;true;focus;yes;360129;Chrome;111.0;Windows;10;undefined;undefined;1504 x 1003;1504 x 1003
H005;22;Vrouwelijk;Rechts;1;121;left;no;50;leftarrow;728;true;focus;yes;361635;Chrome;111.0;Windows;10;undefined;undefined;1504 x 1003;1504 x 1003
H005;22;Vrouwelijk;Rechts;1;122;left;yes;50;undefined;null;true;focus;yes;363662;Chrome;111.0;Windows;10;undefined;undefined;1504 x 1003;1504 x 1003
H005;22;Vrouwelijk;Rechts;1;123;right;no;100;rightarrow;494;true;focus;yes;364922;Chrome;111.0;Windows;10;undefined;undefined;1504 x 1003;1504 x 1003
H005;22;Vrouwelijk;Rechts;1;124;left;no;100;leftarrow;509;true;focus;yes;366205;Chrome;111.0;Windows;10;undefined;undefined;1504 x 1003;1504 x 1003
H005;22;Vrouwelijk;Rechts;1;125;right;no;100;rightarrow;443;true;focus;yes;367428;Chrome;111.0;Windows;10;undefined;undefined;1504 x 1003;1504 x 1003
H005;22;Vrouwelijk;Rechts;1;126;right;yes;100;undefined;null;true;focus;yes;369455;Chrome;111.0;Windows;10;undefined;undefined;1504 x 1003;1504 x 1003
H005;22;Vrouwelijk;Rechts;1;127;right;no;150;rightarrow;446;true;focus;yes;370671;Chrome;111.0;Windows;10;undefined;undefined;1504 x 1003;1504 x 1003
H005;22;Vrouwelijk;Rechts;1;128;left;no;150;leftarrow;468;true;focus;yes;371914;Chrome;111.0;Windows;10;undefined;undefined;1504 x 1003;1504 x 1003
H005;22;Vrouwelijk;Rechts;2;1;right;no;150;rightarrow;520;true;focus;yes;391565;Chrome;111.0;Windows;10;undefined;undefined;1504 x 1003;1504 x 1003
H005;22;Vrouwelijk;Rechts;2;2;left;no;150;leftarrow;515;true;focus;yes;392861;Chrome;111.0;Windows;10;undefined;undefined;1504 x 1003;1504 x 1003
H005;22;Vrouwelijk;Rechts;2;3;right;no;150;rightarrow;575;true;focus;yes;394212;Chrome;111.0;Windows;10;undefined;undefined;1504 x 1003;1504 x 1003
H005;22;Vrouwelijk;Rechts;2;4;right;yes;150;rightarrow;418;false;focus;yes;395395;Chrome;111.0;Windows;10;undefined;undefined;1504 x 1003;1504 x 1003
H005;22;Vrouwelijk;Rechts;2;5;left;no;100;leftarrow;398;true;focus;yes;396555;Chrome;111.0;Windows;10;undefined;undefined;1504 x 1003;1504 x 1003
H005;22;Vrouwelijk;Rechts;2;6;left;no;100;leftarrow;448;true;focus;yes;397773;Chrome;111.0;Windows;10;undefined;undefined;1504 x 1003;1504 x 1003
H005;22;Vrouwelijk;Rechts;2;7;left;yes;100;undefined;null;true;focus;yes;399837;Chrome;111.0;Windows;10;undefined;undefined;1504 x 1003;1504 x 1003
H005;22;Vrouwelijk;Rechts;2;8;right;no;150;rightarrow;382;true;focus;yes;401014;Chrome;111.0;Windows;10;undefined;undefined;1504 x 1003;1504 x 1003
H005;22;Vrouwelijk;Rechts;2;9;right;yes;150;rightarrow;390;false;focus;yes;402181;Chrome;111.0;Windows;10;undefined;undefined;1504 x 1003;1504 x 1003
H005;22;Vrouwelijk;Rechts;2;10;right;no;100;rightarrow;518;true;focus;yes;403477;Chrome;111.0;Windows;10;undefined;undefined;1504 x 1003;1504 x 1003
H005;22;Vrouwelijk;Rechts;2;11;right;no;100;rightarrow;373;true;focus;yes;404612;Chrome;111.0;Windows;10;undefined;undefined;1504 x 1003;1504 x 1003
H005;22;Vrouwelijk;Rechts;2;12;left;no;100;leftarrow;423;true;focus;yes;405813;Chrome;111.0;Windows;10;undefined;undefined;1504 x 1003;1504 x 1003
H005;22;Vrouwelijk;Rechts;2;13;left;yes;100;undefined;null;true;focus;yes;407885;Chrome;111.0;Windows;10;undefined;undefined;1504 x 1003;1504 x 1003
H005;22;Vrouwelijk;Rechts;2;14;left;no;150;leftarrow;466;true;focus;yes;409167;Chrome;111.0;Windows;10;undefined;undefined;1504 x 1003;1504 x 1003
H005;22;Vrouwelijk;Rechts;2;15;right;no;150;leftarrow;470;false;focus;yes;410407;Chrome;111.0;Windows;10;undefined;undefined;1504 x 1003;1504 x 1003
H005;22;Vrouwelijk;Rechts;2;16;left;no;150;leftarrow;394;true;focus;yes;411566;Chrome;111.0;Windows;10;undefined;undefined;1504 x 1003;1504 x 1003
H005;22;Vrouwelijk;Rechts;2;17;right;no;150;rightarrow;391;true;focus;yes;412728;Chrome;111.0;Windows;10;undefined;undefined;1504 x 1003;1504 x 1003
H005;22;Vrouwelijk;Rechts;2;18;left;no;150;leftarrow;513;true;focus;yes;414009;Chrome;111.0;Windows;10;undefined;undefined;1504 x 1003;1504 x 1003
H005;22;Vrouwelijk;Rechts;2;19;left;no;150;leftarrow;457;true;focus;yes;415232;Chrome;111.0;Windows;10;undefined;undefined;1504 x 1003;1504 x 1003
H005;22;Vrouwelijk;Rechts;2;20;right;no;150;rightarrow;760;true;focus;yes;416764;Chrome;111.0;Windows;10;undefined;undefined;1504 x 1003;1504 x 1003
H005;22;Vrouwelijk;Rechts;2;21;right;no;150;rightarrow;445;true;focus;yes;417974;Chrome;111.0;Windows;10;undefined;undefined;1504 x 1003;1504 x 1003
H005;22;Vrouwelijk;Rechts;2;22;right;yes;150;rightarrow;350;false;focus;yes;419094;Chrome;111.0;Windows;10;undefined;undefined;1504 x 1003;1504 x 1003
H005;22;Vrouwelijk;Rechts;2;23;left;no;100;leftarrow;386;true;focus;yes;420256;Chrome;111.0;Windows;10;undefined;undefined;1504 x 1003;1504 x 1003
H005;22;Vrouwelijk;Rechts;2;24;left;yes;100;undefined;null;true;focus;yes;422306;Chrome;111.0;Windows;10;undefined;undefined;1504 x 1003;1504 x 1003
H005;22;Vrouwelijk;Rechts;2;25;right;yes;150;rightarrow;360;false;focus;yes;423431;Chrome;111.0;Windows;10;undefined;undefined;1504 x 1003;1504 x 1003
H005;22;Vrouwelijk;Rechts;2;26;right;no;100;rightarrow;503;true;focus;yes;424711;Chrome;111.0;Windows;10;undefined;undefined;1504 x 1003;1504 x 1003
H005;22;Vrouwelijk;Rechts;2;27;left;no;100;leftarrow;531;true;focus;yes;426012;Chrome;111.0;Windows;10;undefined;undefined;1504 x 1003;1504 x 1003
H005;22;Vrouwelijk;Rechts;2;28;left;no;100;leftarrow;406;true;focus;yes;427179;Chrome;111.0;Windows;10;undefined;undefined;1504 x 1003;1504 x 1003
H005;22;Vrouwelijk;Rechts;2;29;right;no;100;rightarrow;432;true;focus;yes;428377;Chrome;111.0;Windows;10;undefined;undefined;1504 x 1003;1504 x 1003
H005;22;Vrouwelijk;Rechts;2;30;left;no;100;leftarrow;449;true;focus;yes;429614;Chrome;111.0;Windows;10;undefined;undefined;1504 x 1003;1504 x 1003
H005;22;Vrouwelijk;Rechts;2;31;left;yes;100;undefined;null;true;focus;yes;431643;Chrome;111.0;Windows;10;undefined;undefined;1504 x 1003;1504 x 1003
H005;22;Vrouwelijk;Rechts;2;32;right;no;150;rightarrow;353;true;focus;yes;432762;Chrome;111.0;Windows;10;undefined;undefined;1504 x 1003;1504 x 1003
H005;22;Vrouwelijk;Rechts;2;33;right;no;150;rightarrow;469;true;focus;yes;434001;Chrome;111.0;Windows;10;undefined;undefined;1504 x 1003;1504 x 1003
H005;22;Vrouwelijk;Rechts;2;34;right;no;150;rightarrow;415;true;focus;yes;435193;Chrome;111.0;Windows;10;undefined;undefined;1504 x 1003;1504 x 1003
H005;22;Vrouwelijk;Rechts;2;35;left;no;150;leftarrow;497;true;focus;yes;436460;Chrome;111.0;Windows;10;undefined;undefined;1504 x 1003;1504 x 1003
H005;22;Vrouwelijk;Rechts;2;36;left;yes;150;undefined;null;true;focus;yes;438507;Chrome;111.0;Windows;10;undefined;undefined;1504 x 1003;1504 x 1003
H005;22;Vrouwelijk;Rechts;2;37;right;yes;200;undefined;null;true;focus;yes;440553;Chrome;111.0;Windows;10;undefined;undefined;1504 x 1003;1504 x 1003
H005;22;Vrouwelijk;Rechts;2;38;left;no;250;leftarrow;317;true;focus;yes;441651;Chrome;111.0;Windows;10;undefined;undefined;1504 x 1003;1504 x 1003
H005;22;Vrouwelijk;Rechts;2;39;right;no;250;rightarrow;530;true;focus;yes;442959;Chrome;111.0;Windows;10;undefined;undefined;1504 x 1003;1504 x 1003
H005;22;Vrouwelijk;Rechts;2;40;left;no;250;leftarrow;346;true;focus;yes;444085;Chrome;111.0;Windows;10;undefined;undefined;1504 x 1003;1504 x 1003
H005;22;Vrouwelijk;Rechts;2;41;left;yes;250;leftarrow;393;false;focus;yes;445250;Chrome;111.0;Windows;10;undefined;undefined;1504 x 1003;1504 x 1003
H005;22;Vrouwelijk;Rechts;2;42;right;no;200;rightarrow;471;true;focus;yes;446482;Chrome;111.0;Windows;10;undefined;undefined;1504 x 1003;1504 x 1003
H005;22;Vrouwelijk;Rechts;2;43;right;no;200;rightarrow;462;true;focus;yes;447736;Chrome;111.0;Windows;10;undefined;undefined;1504 x 1003;1504 x 1003
H005;22;Vrouwelijk;Rechts;2;44;left;no;200;leftarrow;396;true;focus;yes;448910;Chrome;111.0;Windows;10;undefined;undefined;1504 x 1003;1504 x 1003
H005;22;Vrouwelijk;Rechts;2;45;right;yes;200;rightarrow;335;false;focus;yes;450009;Chrome;111.0;Windows;10;undefined;undefined;1504 x 1003;1504 x 1003
H005;22;Vrouwelijk;Rechts;2;46;left;no;150;leftarrow;376;true;focus;yes;451167;Chrome;111.0;Windows;10;undefined;undefined;1504 x 1003;1504 x 1003
H005;22;Vrouwelijk;Rechts;2;47;left;no;150;leftarrow;395;true;focus;yes;452336;Chrome;111.0;Windows;10;undefined;undefined;1504 x 1003;1504 x 1003
H005;22;Vrouwelijk;Rechts;2;48;right;no;150;rightarrow;754;true;focus;yes;453885;Chrome;111.0;Windows;10;undefined;undefined;1504 x 1003;1504 x 1003
H005;22;Vrouwelijk;Rechts;2;49;left;no;150;leftarrow;689;true;focus;yes;455359;Chrome;111.0;Windows;10;undefined;undefined;1504 x 1003;1504 x 1003
H005;22;Vrouwelijk;Rechts;2;50;left;no;150;leftarrow;469;true;focus;yes;456593;Chrome;111.0;Windows;10;undefined;undefined;1504 x 1003;1504 x 1003
H005;22;Vrouwelijk;Rechts;2;51;left;no;150;leftarrow;447;true;focus;yes;457807;Chrome;111.0;Windows;10;undefined;undefined;1504 x 1003;1504 x 1003
H005;22;Vrouwelijk;Rechts;2;52;right;no;150;rightarrow;484;true;focus;yes;459057;Chrome;111.0;Windows;10;undefined;undefined;1504 x 1003;1504 x 1003
H005;22;Vrouwelijk;Rechts;2;53;left;yes;150;undefined;null;true;focus;yes;461077;Chrome;111.0;Windows;10;undefined;undefined;1504 x 1003;1504 x 1003
H005;22;Vrouwelijk;Rechts;2;54;right;yes;200;undefined;null;true;focus;yes;463102;Chrome;111.0;Windows;10;undefined;undefined;1504 x 1003;1504 x 1003
H005;22;Vrouwelijk;Rechts;2;55;right;no;250;rightarrow;491;true;focus;yes;464367;Chrome;111.0;Windows;10;undefined;undefined;1504 x 1003;1504 x 1003
H005;22;Vrouwelijk;Rechts;2;56;right;no;250;rightarrow;418;true;focus;yes;465551;Chrome;111.0;Windows;10;undefined;undefined;1504 x 1003;1504 x 1003
H005;22;Vrouwelijk;Rechts;2;57;right;no;250;rightarrow;373;true;focus;yes;466695;Chrome;111.0;Windows;10;undefined;undefined;1504 x 1003;1504 x 1003
H005;22;Vrouwelijk;Rechts;2;58;left;no;250;leftarrow;451;true;focus;yes;467921;Chrome;111.0;Windows;10;undefined;undefined;1504 x 1003;1504 x 1003
H005;22;Vrouwelijk;Rechts;2;59;left;yes;250;leftarrow;480;false;focus;yes;469179;Chrome;111.0;Windows;10;undefined;undefined;1504 x 1003;1504 x 1003
H005;22;Vrouwelijk;Rechts;2;60;right;no;200;rightarrow;410;true;focus;yes;470393;Chrome;111.0;Windows;10;undefined;undefined;1504 x 1003;1504 x 1003
H005;22;Vrouwelijk;Rechts;2;61;right;yes;200;rightarrow;382;false;focus;yes;471554;Chrome;111.0;Windows;10;undefined;undefined;1504 x 1003;1504 x 1003
H005;22;Vrouwelijk;Rechts;2;62;left;no;150;leftarrow;421;true;focus;yes;472744;Chrome;111.0;Windows;10;undefined;undefined;1504 x 1003;1504 x 1003
H005;22;Vrouwelijk;Rechts;2;63;right;no;150;rightarrow;834;true;focus;yes;474348;Chrome;111.0;Windows;10;undefined;undefined;1504 x 1003;1504 x 1003
H005;22;Vrouwelijk;Rechts;2;64;left;no;150;leftarrow;469;true;focus;yes;475589;Chrome;111.0;Windows;10;undefined;undefined;1504 x 1003;1504 x 1003
H005;22;Vrouwelijk;Rechts;2;65;right;yes;150;undefined;null;true;focus;yes;477636;Chrome;111.0;Windows;10;undefined;undefined;1504 x 1003;1504 x 1003
H005;22;Vrouwelijk;Rechts;2;66;right;no;200;rightarrow;457;true;focus;yes;478861;Chrome;111.0;Windows;10;undefined;undefined;1504 x 1003;1504 x 1003
H005;22;Vrouwelijk;Rechts;2;67;left;no;200;leftarrow;393;true;focus;yes;480028;Chrome;111.0;Windows;10;undefined;undefined;1504 x 1003;1504 x 1003
H005;22;Vrouwelijk;Rechts;2;68;right;no;200;rightarrow;300;true;focus;yes;481094;Chrome;111.0;Windows;10;undefined;undefined;1504 x 1003;1504 x 1003
H005;22;Vrouwelijk;Rechts;2;69;left;no;200;leftarrow;510;true;focus;yes;482394;Chrome;111.0;Windows;10;undefined;undefined;1504 x 1003;1504 x 1003
H005;22;Vrouwelijk;Rechts;2;70;left;no;200;rightarrow;326;false;focus;yes;483490;Chrome;111.0;Windows;10;undefined;undefined;1504 x 1003;1504 x 1003
H005;22;Vrouwelijk;Rechts;2;71;left;yes;200;leftarrow;538;false;focus;yes;484793;Chrome;111.0;Windows;10;undefined;undefined;1504 x 1003;1504 x 1003
H005;22;Vrouwelijk;Rechts;2;72;right;no;150;rightarrow;334;true;focus;yes;485905;Chrome;111.0;Windows;10;undefined;undefined;1504 x 1003;1504 x 1003
H005;22;Vrouwelijk;Rechts;2;73;left;no;150;leftarrow;325;true;focus;yes;487024;Chrome;111.0;Windows;10;undefined;undefined;1504 x 1003;1504 x 1003
H005;22;Vrouwelijk;Rechts;2;74;left;no;150;leftarrow;413;true;focus;yes;488209;Chrome;111.0;Windows;10;undefined;undefined;1504 x 1003;1504 x 1003
H005;22;Vrouwelijk;Rechts;2;75;left;no;150;leftarrow;409;true;focus;yes;489394;Chrome;111.0;Windows;10;undefined;undefined;1504 x 1003;1504 x 1003
H005;22;Vrouwelijk;Rechts;2;76;left;yes;150;leftarrow;318;false;focus;yes;490493;Chrome;111.0;Windows;10;undefined;undefined;1504 x 1003;1504 x 1003
H005;22;Vrouwelijk;Rechts;2;77;right;no;100;rightarrow;496;true;focus;yes;491761;Chrome;111.0;Windows;10;undefined;undefined;1504 x 1003;1504 x 1003
H005;22;Vrouwelijk;Rechts;2;78;right;yes;100;undefined;null;true;focus;yes;493820;Chrome;111.0;Windows;10;undefined;undefined;1504 x 1003;1504 x 1003
H005;22;Vrouwelijk;Rechts;2;79;right;no;150;leftarrow;348;false;focus;yes;494959;Chrome;111.0;Windows;10;undefined;undefined;1504 x 1003;1504 x 1003
H005;22;Vrouwelijk;Rechts;2;80;right;no;150;rightarrow;437;true;focus;yes;496168;Chrome;111.0;Windows;10;undefined;undefined;1504 x 1003;1504 x 1003
H005;22;Vrouwelijk;Rechts;2;81;right;no;150;rightarrow;347;true;focus;yes;497295;Chrome;111.0;Windows;10;undefined;undefined;1504 x 1003;1504 x 1003
H005;22;Vrouwelijk;Rechts;2;82;right;no;150;rightarrow;316;true;focus;yes;498377;Chrome;111.0;Windows;10;undefined;undefined;1504 x 1003;1504 x 1003
H005;22;Vrouwelijk;Rechts;2;83;left;no;150;leftarrow;359;true;focus;yes;499498;Chrome;111.0;Windows;10;undefined;undefined;1504 x 1003;1504 x 1003
H005;22;Vrouwelijk;Rechts;2;84;right;no;150;rightarrow;472;true;focus;yes;500762;Chrome;111.0;Windows;10;undefined;undefined;1504 x 1003;1504 x 1003
H005;22;Vrouwelijk;Rechts;2;85;left;yes;150;leftarrow;362;false;focus;yes;501902;Chrome;111.0;Windows;10;undefined;undefined;1504 x 1003;1504 x 1003
H005;22;Vrouwelijk;Rechts;2;86;left;no;100;rightarrow;351;false;focus;yes;503025;Chrome;111.0;Windows;10;undefined;undefined;1504 x 1003;1504 x 1003
H005;22;Vrouwelijk;Rechts;2;87;right;yes;100;undefined;null;true;focus;yes;505061;Chrome;111.0;Windows;10;undefined;undefined;1504 x 1003;1504 x 1003
H005;22;Vrouwelijk;Rechts;2;88;left;no;150;leftarrow;383;true;focus;yes;506219;Chrome;111.0;Windows;10;undefined;undefined;1504 x 1003;1504 x 1003
H005;22;Vrouwelijk;Rechts;2;89;right;yes;150;rightarrow;518;false;focus;yes;507509;Chrome;111.0;Windows;10;undefined;undefined;1504 x 1003;1504 x 1003
H005;22;Vrouwelijk;Rechts;2;90;left;yes;100;undefined;null;true;focus;yes;509538;Chrome;111.0;Windows;10;undefined;undefined;1504 x 1003;1504 x 1003
H005;22;Vrouwelijk;Rechts;2;91;left;no;150;leftarrow;421;true;focus;yes;510723;Chrome;111.0;Windows;10;undefined;undefined;1504 x 1003;1504 x 1003
H005;22;Vrouwelijk;Rechts;2;92;left;no;150;leftarrow;393;true;focus;yes;511877;Chrome;111.0;Windows;10;undefined;undefined;1504 x 1003;1504 x 1003
H005;22;Vrouwelijk;Rechts;2;93;right;no;150;rightarrow;351;true;focus;yes;513003;Chrome;111.0;Windows;10;undefined;undefined;1504 x 1003;1504 x 1003
H005;22;Vrouwelijk;Rechts;2;94;right;no;150;rightarrow;355;true;focus;yes;514128;Chrome;111.0;Windows;10;undefined;undefined;1504 x 1003;1504 x 1003
H005;22;Vrouwelijk;Rechts;2;95;left;no;150;leftarrow;372;true;focus;yes;515277;Chrome;111.0;Windows;10;undefined;undefined;1504 x 1003;1504 x 1003
H005;22;Vrouwelijk;Rechts;2;96;right;no;150;rightarrow;339;true;focus;yes;516397;Chrome;111.0;Windows;10;undefined;undefined;1504 x 1003;1504 x 1003
H005;22;Vrouwelijk;Rechts;2;97;right;no;150;rightarrow;355;true;focus;yes;517534;Chrome;111.0;Windows;10;undefined;undefined;1504 x 1003;1504 x 1003
H005;22;Vrouwelijk;Rechts;2;98;left;yes;150;leftarrow;356;false;focus;yes;518666;Chrome;111.0;Windows;10;undefined;undefined;1504 x 1003;1504 x 1003
H005;22;Vrouwelijk;Rechts;2;99;right;no;100;rightarrow;320;true;focus;yes;519762;Chrome;111.0;Windows;10;undefined;undefined;1504 x 1003;1504 x 1003
H005;22;Vrouwelijk;Rechts;2;100;right;yes;100;rightarrow;357;false;focus;yes;520887;Chrome;111.0;Windows;10;undefined;undefined;1504 x 1003;1504 x 1003
H005;22;Vrouwelijk;Rechts;2;101;left;no;50;leftarrow;477;true;focus;yes;522136;Chrome;111.0;Windows;10;undefined;undefined;1504 x 1003;1504 x 1003
H005;22;Vrouwelijk;Rechts;2;102;left;no;50;leftarrow;469;true;focus;yes;523404;Chrome;111.0;Windows;10;undefined;undefined;1504 x 1003;1504 x 1003
H005;22;Vrouwelijk;Rechts;2;103;right;no;50;rightarrow;492;true;focus;yes;524674;Chrome;111.0;Windows;10;undefined;undefined;1504 x 1003;1504 x 1003
H005;22;Vrouwelijk;Rechts;2;104;left;no;50;leftarrow;502;true;focus;yes;525947;Chrome;111.0;Windows;10;undefined;undefined;1504 x 1003;1504 x 1003
H005;22;Vrouwelijk;Rechts;2;105;right;yes;50;undefined;null;true;focus;yes;527983;Chrome;111.0;Windows;10;undefined;undefined;1504 x 1003;1504 x 1003
H005;22;Vrouwelijk;Rechts;2;106;left;no;100;leftarrow;425;true;focus;yes;529211;Chrome;111.0;Windows;10;undefined;undefined;1504 x 1003;1504 x 1003
H005;22;Vrouwelijk;Rechts;2;107;left;no;100;leftarrow;328;true;focus;yes;530318;Chrome;111.0;Windows;10;undefined;undefined;1504 x 1003;1504 x 1003
H005;22;Vrouwelijk;Rechts;2;108;left;yes;100;leftarrow;366;false;focus;yes;531447;Chrome;111.0;Windows;10;undefined;undefined;1504 x 1003;1504 x 1003
H005;22;Vrouwelijk;Rechts;2;109;right;no;50;rightarrow;410;true;focus;yes;532635;Chrome;111.0;Windows;10;undefined;undefined;1504 x 1003;1504 x 1003
H005;22;Vrouwelijk;Rechts;2;110;right;no;50;rightarrow;574;true;focus;yes;533977;Chrome;111.0;Windows;10;undefined;undefined;1504 x 1003;1504 x 1003
H005;22;Vrouwelijk;Rechts;2;111;left;no;50;leftarrow;468;true;focus;yes;535250;Chrome;111.0;Windows;10;undefined;undefined;1504 x 1003;1504 x 1003
H005;22;Vrouwelijk;Rechts;2;112;right;no;50;rightarrow;375;true;focus;yes;536398;Chrome;111.0;Windows;10;undefined;undefined;1504 x 1003;1504 x 1003
H005;22;Vrouwelijk;Rechts;2;113;left;yes;50;undefined;null;true;focus;yes;538437;Chrome;111.0;Windows;10;undefined;undefined;1504 x 1003;1504 x 1003
H005;22;Vrouwelijk;Rechts;2;114;right;no;100;rightarrow;449;true;focus;yes;539661;Chrome;111.0;Windows;10;undefined;undefined;1504 x 1003;1504 x 1003
H005;22;Vrouwelijk;Rechts;2;115;right;no;100;rightarrow;455;true;focus;yes;540895;Chrome;111.0;Windows;10;undefined;undefined;1504 x 1003;1504 x 1003
H005;22;Vrouwelijk;Rechts;2;116;left;no;100;leftarrow;1183;true;focus;yes;542844;Chrome;111.0;Windows;10;undefined;undefined;1504 x 1003;1504 x 1003
H005;22;Vrouwelijk;Rechts;2;117;right;no;100;leftarrow;322;false;focus;yes;543932;Chrome;111.0;Windows;10;undefined;undefined;1504 x 1003;1504 x 1003
H005;22;Vrouwelijk;Rechts;2;118;left;no;100;leftarrow;429;true;focus;yes;545126;Chrome;111.0;Windows;10;undefined;undefined;1504 x 1003;1504 x 1003
H005;22;Vrouwelijk;Rechts;2;119;right;yes;100;rightarrow;369;false;focus;yes;546277;Chrome;111.0;Windows;10;undefined;undefined;1504 x 1003;1504 x 1003
H005;22;Vrouwelijk;Rechts;2;120;left;no;50;leftarrow;373;true;focus;yes;547419;Chrome;111.0;Windows;10;undefined;undefined;1504 x 1003;1504 x 1003
H005;22;Vrouwelijk;Rechts;2;121;right;yes;50;undefined;null;true;focus;yes;549445;Chrome;111.0;Windows;10;undefined;undefined;1504 x 1003;1504 x 1003
H005;22;Vrouwelijk;Rechts;2;122;left;no;100;leftarrow;399;true;focus;yes;550617;Chrome;111.0;Windows;10;undefined;undefined;1504 x 1003;1504 x 1003
H005;22;Vrouwelijk;Rechts;2;123;right;no;100;rightarrow;512;true;focus;yes;551900;Chrome;111.0;Windows;10;undefined;undefined;1504 x 1003;1504 x 1003
H005;22;Vrouwelijk;Rechts;2;124;left;no;100;leftarrow;336;true;focus;yes;553004;Chrome;111.0;Windows;10;undefined;undefined;1504 x 1003;1504 x 1003
H005;22;Vrouwelijk;Rechts;2;125;right;no;100;rightarrow;464;true;focus;yes;554243;Chrome;111.0;Windows;10;undefined;undefined;1504 x 1003;1504 x 1003
H005;22;Vrouwelijk;Rechts;2;126;left;no;100;leftarrow;356;true;focus;yes;555370;Chrome;111.0;Windows;10;undefined;undefined;1504 x 1003;1504 x 1003
H005;22;Vrouwelijk;Rechts;2;127;left;yes;100;undefined;null;true;focus;yes;557420;Chrome;111.0;Windows;10;undefined;undefined;1504 x 1003;1504 x 1003
H005;22;Vrouwelijk;Rechts;2;128;right;no;150;rightarrow;316;true;focus;yes;558538;Chrome;111.0;Windows;10;undefined;undefined;1504 x 1003;1504 x 1003
H005;22;Vrouwelijk;Rechts;3;1;left;no;150;leftarrow;382;true;focus;yes;577715;Chrome;111.0;Windows;10;undefined;undefined;1504 x 1003;1504 x 1003
H005;22;Vrouwelijk;Rechts;3;2;right;yes;150;rightarrow;316;false;focus;yes;578820;Chrome;111.0;Windows;10;undefined;undefined;1504 x 1003;1504 x 1003
H005;22;Vrouwelijk;Rechts;3;3;right;no;100;leftarrow;308;false;focus;yes;579899;Chrome;111.0;Windows;10;undefined;undefined;1504 x 1003;1504 x 1003
H005;22;Vrouwelijk;Rechts;3;4;right;no;100;rightarrow;430;true;focus;yes;581094;Chrome;111.0;Windows;10;undefined;undefined;1504 x 1003;1504 x 1003
H005;22;Vrouwelijk;Rechts;3;5;left;yes;100;leftarrow;427;false;focus;yes;582293;Chrome;111.0;Windows;10;undefined;undefined;1504 x 1003;1504 x 1003
H005;22;Vrouwelijk;Rechts;3;6;right;no;50;rightarrow;334;true;focus;yes;583399;Chrome;111.0;Windows;10;undefined;undefined;1504 x 1003;1504 x 1003
H005;22;Vrouwelijk;Rechts;3;7;left;no;50;leftarrow;481;true;focus;yes;584651;Chrome;111.0;Windows;10;undefined;undefined;1504 x 1003;1504 x 1003
H005;22;Vrouwelijk;Rechts;3;8;left;no;50;leftarrow;476;true;focus;yes;585898;Chrome;111.0;Windows;10;undefined;undefined;1504 x 1003;1504 x 1003
H005;22;Vrouwelijk;Rechts;3;9;left;no;50;leftarrow;420;true;focus;yes;587092;Chrome;111.0;Windows;10;undefined;undefined;1504 x 1003;1504 x 1003
H005;22;Vrouwelijk;Rechts;3;10;right;yes;50;undefined;null;true;focus;yes;589120;Chrome;111.0;Windows;10;undefined;undefined;1504 x 1003;1504 x 1003
H005;22;Vrouwelijk;Rechts;3;11;right;no;100;rightarrow;494;true;focus;yes;590389;Chrome;111.0;Windows;10;undefined;undefined;1504 x 1003;1504 x 1003
H005;22;Vrouwelijk;Rechts;3;12;left;no;100;leftarrow;517;true;focus;yes;591675;Chrome;111.0;Windows;10;undefined;undefined;1504 x 1003;1504 x 1003
H005;22;Vrouwelijk;Rechts;3;13;right;no;100;rightarrow;363;true;focus;yes;592807;Chrome;111.0;Windows;10;undefined;undefined;1504 x 1003;1504 x 1003
H005;22;Vrouwelijk;Rechts;3;14;right;no;100;rightarrow;404;true;focus;yes;593988;Chrome;111.0;Windows;10;undefined;undefined;1504 x 1003;1504 x 1003
H005;22;Vrouwelijk;Rechts;3;15;left;no;100;leftarrow;477;true;focus;yes;595241;Chrome;111.0;Windows;10;undefined;undefined;1504 x 1003;1504 x 1003
H005;22;Vrouwelijk;Rechts;3;16;left;yes;100;undefined;null;true;focus;yes;597301;Chrome;111.0;Windows;10;undefined;undefined;1504 x 1003;1504 x 1003
H005;22;Vrouwelijk;Rechts;3;17;right;no;150;rightarrow;362;true;focus;yes;598452;Chrome;111.0;Windows;10;undefined;undefined;1504 x 1003;1504 x 1003
H005;22;Vrouwelijk;Rechts;3;18;left;yes;150;undefined;null;true;focus;yes;600471;Chrome;111.0;Windows;10;undefined;undefined;1504 x 1003;1504 x 1003
H005;22;Vrouwelijk;Rechts;3;19;right;yes;200;rightarrow;312;false;focus;yes;601559;Chrome;111.0;Windows;10;undefined;undefined;1504 x 1003;1504 x 1003
H005;22;Vrouwelijk;Rechts;3;20;left;no;150;leftarrow;386;true;focus;yes;602716;Chrome;111.0;Windows;10;undefined;undefined;1504 x 1003;1504 x 1003
H005;22;Vrouwelijk;Rechts;3;21;right;no;150;rightarrow;478;true;focus;yes;603970;Chrome;111.0;Windows;10;undefined;undefined;1504 x 1003;1504 x 1003
H005;22;Vrouwelijk;Rechts;3;22;left;no;150;leftarrow;500;true;focus;yes;605236;Chrome;111.0;Windows;10;undefined;undefined;1504 x 1003;1504 x 1003
H005;22;Vrouwelijk;Rechts;3;23;right;no;150;rightarrow;527;true;focus;yes;606534;Chrome;111.0;Windows;10;undefined;undefined;1504 x 1003;1504 x 1003
H005;22;Vrouwelijk;Rechts;3;24;left;no;150;leftarrow;447;true;focus;yes;607753;Chrome;111.0;Windows;10;undefined;undefined;1504 x 1003;1504 x 1003
H005;22;Vrouwelijk;Rechts;3;25;left;no;150;leftarrow;478;true;focus;yes;609010;Chrome;111.0;Windows;10;undefined;undefined;1504 x 1003;1504 x 1003
H005;22;Vrouwelijk;Rechts;3;26;right;no;150;rightarrow;422;true;focus;yes;610200;Chrome;111.0;Windows;10;undefined;undefined;1504 x 1003;1504 x 1003
H005;22;Vrouwelijk;Rechts;3;27;left;yes;150;leftarrow;402;false;focus;yes;611372;Chrome;111.0;Windows;10;undefined;undefined;1504 x 1003;1504 x 1003
H005;22;Vrouwelijk;Rechts;3;28;left;no;100;leftarrow;448;true;focus;yes;612599;Chrome;111.0;Windows;10;undefined;undefined;1504 x 1003;1504 x 1003
H005;22;Vrouwelijk;Rechts;3;29;right;yes;100;undefined;null;true;focus;yes;614636;Chrome;111.0;Windows;10;undefined;undefined;1504 x 1003;1504 x 1003
H005;22;Vrouwelijk;Rechts;3;30;right;no;150;rightarrow;456;true;focus;yes;615886;Chrome;111.0;Windows;10;undefined;undefined;1504 x 1003;1504 x 1003
H005;22;Vrouwelijk;Rechts;3;31;left;no;150;leftarrow;518;true;focus;yes;617185;Chrome;111.0;Windows;10;undefined;undefined;1504 x 1003;1504 x 1003
H005;22;Vrouwelijk;Rechts;3;32;right;no;150;rightarrow;505;true;focus;yes;618476;Chrome;111.0;Windows;10;undefined;undefined;1504 x 1003;1504 x 1003
H005;22;Vrouwelijk;Rechts;3;33;right;no;150;rightarrow;1018;true;focus;yes;620272;Chrome;111.0;Windows;10;undefined;undefined;1504 x 1003;1504 x 1003
H005;22;Vrouwelijk;Rechts;3;34;left;no;150;leftarrow;386;true;focus;yes;621438;Chrome;111.0;Windows;10;undefined;undefined;1504 x 1003;1504 x 1003
H005;22;Vrouwelijk;Rechts;3;35;left;no;150;leftarrow;325;true;focus;yes;622548;Chrome;111.0;Windows;10;undefined;undefined;1504 x 1003;1504 x 1003
H005;22;Vrouwelijk;Rechts;3;36;right;no;150;rightarrow;453;true;focus;yes;623776;Chrome;111.0;Windows;10;undefined;undefined;1504 x 1003;1504 x 1003
H005;22;Vrouwelijk;Rechts;3;37;left;yes;150;leftarrow;356;false;focus;yes;624909;Chrome;111.0;Windows;10;undefined;undefined;1504 x 1003;1504 x 1003
H005;22;Vrouwelijk;Rechts;3;38;right;yes;100;undefined;null;true;focus;yes;626959;Chrome;111.0;Windows;10;undefined;undefined;1504 x 1003;1504 x 1003
H005;22;Vrouwelijk;Rechts;3;39;right;no;150;leftarrow;292;false;focus;yes;628048;Chrome;111.0;Windows;10;undefined;undefined;1504 x 1003;1504 x 1003
H005;22;Vrouwelijk;Rechts;3;40;left;no;150;leftarrow;341;true;focus;yes;629161;Chrome;111.0;Windows;10;undefined;undefined;1504 x 1003;1504 x 1003
H005;22;Vrouwelijk;Rechts;3;41;left;no;150;leftarrow;439;true;focus;yes;630370;Chrome;111.0;Windows;10;undefined;undefined;1504 x 1003;1504 x 1003
H005;22;Vrouwelijk;Rechts;3;42;right;yes;150;rightarrow;349;false;focus;yes;631497;Chrome;111.0;Windows;10;undefined;undefined;1504 x 1003;1504 x 1003
H005;22;Vrouwelijk;Rechts;3;43;left;no;100;leftarrow;353;true;focus;yes;632627;Chrome;111.0;Windows;10;undefined;undefined;1504 x 1003;1504 x 1003
H005;22;Vrouwelijk;Rechts;3;44;right;no;100;rightarrow;468;true;focus;yes;633860;Chrome;111.0;Windows;10;undefined;undefined;1504 x 1003;1504 x 1003
H005;22;Vrouwelijk;Rechts;3;45;left;yes;100;undefined;null;true;focus;yes;635911;Chrome;111.0;Windows;10;undefined;undefined;1504 x 1003;1504 x 1003
H005;22;Vrouwelijk;Rechts;3;46;right;no;150;rightarrow;525;true;focus;yes;637209;Chrome;111.0;Windows;10;undefined;undefined;1504 x 1003;1504 x 1003
H005;22;Vrouwelijk;Rechts;3;47;left;no;150;leftarrow;347;true;focus;yes;638328;Chrome;111.0;Windows;10;undefined;undefined;1504 x 1003;1504 x 1003
H005;22;Vrouwelijk;Rechts;3;48;right;no;150;rightarrow;323;true;focus;yes;639419;Chrome;111.0;Windows;10;undefined;undefined;1504 x 1003;1504 x 1003
H005;22;Vrouwelijk;Rechts;3;49;right;no;150;rightarrow;444;true;focus;yes;640643;Chrome;111.0;Windows;10;undefined;undefined;1504 x 1003;1504 x 1003
H005;22;Vrouwelijk;Rechts;3;50;right;no;150;rightarrow;510;true;focus;yes;641932;Chrome;111.0;Windows;10;undefined;undefined;1504 x 1003;1504 x 1003
H005;22;Vrouwelijk;Rechts;3;51;left;no;150;leftarrow;321;true;focus;yes;643044;Chrome;111.0;Windows;10;undefined;undefined;1504 x 1003;1504 x 1003
H005;22;Vrouwelijk;Rechts;3;52;left;no;150;rightarrow;283;false;focus;yes;644096;Chrome;111.0;Windows;10;undefined;undefined;1504 x 1003;1504 x 1003
H005;22;Vrouwelijk;Rechts;3;53;right;no;150;rightarrow;387;true;focus;yes;645268;Chrome;111.0;Windows;10;undefined;undefined;1504 x 1003;1504 x 1003
H005;22;Vrouwelijk;Rechts;3;54;left;no;150;leftarrow;352;true;focus;yes;646384;Chrome;111.0;Windows;10;undefined;undefined;1504 x 1003;1504 x 1003
H005;22;Vrouwelijk;Rechts;3;55;right;yes;150;rightarrow;407;false;focus;yes;647570;Chrome;111.0;Windows;10;undefined;undefined;1504 x 1003;1504 x 1003
H005;22;Vrouwelijk;Rechts;3;56;left;yes;100;leftarrow;340;false;focus;yes;648681;Chrome;111.0;Windows;10;undefined;undefined;1504 x 1003;1504 x 1003
H005;22;Vrouwelijk;Rechts;3;57;left;yes;50;undefined;null;true;focus;yes;650724;Chrome;111.0;Windows;10;undefined;undefined;1504 x 1003;1504 x 1003
H005;22;Vrouwelijk;Rechts;3;58;right;no;100;leftarrow;409;false;focus;yes;651923;Chrome;111.0;Windows;10;undefined;undefined;1504 x 1003;1504 x 1003
H005;22;Vrouwelijk;Rechts;3;59;right;no;100;rightarrow;479;true;focus;yes;653168;Chrome;111.0;Windows;10;undefined;undefined;1504 x 1003;1504 x 1003
H005;22;Vrouwelijk;Rechts;3;60;left;no;100;leftarrow;313;true;focus;yes;654251;Chrome;111.0;Windows;10;undefined;undefined;1504 x 1003;1504 x 1003
H005;22;Vrouwelijk;Rechts;3;61;right;no;100;rightarrow;337;true;focus;yes;655362;Chrome;111.0;Windows;10;undefined;undefined;1504 x 1003;1504 x 1003
H005;22;Vrouwelijk;Rechts;3;62;left;no;100;leftarrow;393;true;focus;yes;656525;Chrome;111.0;Windows;10;undefined;undefined;1504 x 1003;1504 x 1003
H005;22;Vrouwelijk;Rechts;3;63;right;yes;100;rightarrow;315;false;focus;yes;657630;Chrome;111.0;Windows;10;undefined;undefined;1504 x 1003;1504 x 1003
H005;22;Vrouwelijk;Rechts;3;64;left;no;50;leftarrow;405;true;focus;yes;658795;Chrome;111.0;Windows;10;undefined;undefined;1504 x 1003;1504 x 1003
H005;22;Vrouwelijk;Rechts;3;65;left;no;50;leftarrow;501;true;focus;yes;660063;Chrome;111.0;Windows;10;undefined;undefined;1504 x 1003;1504 x 1003
H005;22;Vrouwelijk;Rechts;3;66;right;no;50;rightarrow;368;true;focus;yes;661209;Chrome;111.0;Windows;10;undefined;undefined;1504 x 1003;1504 x 1003
H005;22;Vrouwelijk;Rechts;3;67;right;no;50;rightarrow;459;true;focus;yes;662439;Chrome;111.0;Windows;10;undefined;undefined;1504 x 1003;1504 x 1003
H005;22;Vrouwelijk;Rechts;3;68;left;yes;50;undefined;null;true;focus;yes;664537;Chrome;111.0;Windows;10;undefined;undefined;1504 x 1003;1504 x 1003
H005;22;Vrouwelijk;Rechts;3;69;right;yes;100;rightarrow;459;false;focus;yes;665813;Chrome;111.0;Windows;10;undefined;undefined;1504 x 1003;1504 x 1003
H005;22;Vrouwelijk;Rechts;3;70;left;no;50;leftarrow;391;true;focus;yes;666985;Chrome;111.0;Windows;10;undefined;undefined;1504 x 1003;1504 x 1003
H005;22;Vrouwelijk;Rechts;3;71;right;no;50;rightarrow;397;true;focus;yes;668148;Chrome;111.0;Windows;10;undefined;undefined;1504 x 1003;1504 x 1003
H005;22;Vrouwelijk;Rechts;3;72;left;no;50;leftarrow;363;true;focus;yes;669298;Chrome;111.0;Windows;10;undefined;undefined;1504 x 1003;1504 x 1003
H005;22;Vrouwelijk;Rechts;3;73;left;no;50;leftarrow;417;true;focus;yes;670493;Chrome;111.0;Windows;10;undefined;undefined;1504 x 1003;1504 x 1003
H005;22;Vrouwelijk;Rechts;3;74;right;no;50;rightarrow;481;true;focus;yes;671767;Chrome;111.0;Windows;10;undefined;undefined;1504 x 1003;1504 x 1003
H005;22;Vrouwelijk;Rechts;3;75;right;no;50;leftarrow;298;false;focus;yes;672842;Chrome;111.0;Windows;10;undefined;undefined;1504 x 1003;1504 x 1003
H005;22;Vrouwelijk;Rechts;3;76;left;yes;50;undefined;null;true;focus;yes;674864;Chrome;111.0;Windows;10;undefined;undefined;1504 x 1003;1504 x 1003
H005;22;Vrouwelijk;Rechts;3;77;right;no;100;rightarrow;461;true;focus;yes;676102;Chrome;111.0;Windows;10;undefined;undefined;1504 x 1003;1504 x 1003
H005;22;Vrouwelijk;Rechts;3;78;right;yes;100;leftarrow;397;false;focus;yes;677277;Chrome;111.0;Windows;10;undefined;undefined;1504 x 1003;1504 x 1003
H005;22;Vrouwelijk;Rechts;3;79;left;no;50;leftarrow;470;true;focus;yes;678514;Chrome;111.0;Windows;10;undefined;undefined;1504 x 1003;1504 x 1003
H005;22;Vrouwelijk;Rechts;3;80;left;no;50;leftarrow;559;true;focus;yes;679854;Chrome;111.0;Windows;10;undefined;undefined;1504 x 1003;1504 x 1003
H005;22;Vrouwelijk;Rechts;3;81;right;no;50;rightarrow;453;true;focus;yes;681091;Chrome;111.0;Windows;10;undefined;undefined;1504 x 1003;1504 x 1003
H005;22;Vrouwelijk;Rechts;3;82;right;no;50;leftarrow;347;false;focus;yes;682207;Chrome;111.0;Windows;10;undefined;undefined;1504 x 1003;1504 x 1003
H005;22;Vrouwelijk;Rechts;3;83;right;yes;50;rightarrow;321;false;focus;yes;683333;Chrome;111.0;Windows;10;undefined;undefined;1504 x 1003;1504 x 1003
H005;22;Vrouwelijk;Rechts;3;84;left;no;50;leftarrow;428;true;focus;yes;684533;Chrome;111.0;Windows;10;undefined;undefined;1504 x 1003;1504 x 1003
H005;22;Vrouwelijk;Rechts;3;85;left;no;50;leftarrow;407;true;focus;yes;685703;Chrome;111.0;Windows;10;undefined;undefined;1504 x 1003;1504 x 1003
H005;22;Vrouwelijk;Rechts;3;86;left;no;50;leftarrow;371;true;focus;yes;686857;Chrome;111.0;Windows;10;undefined;undefined;1504 x 1003;1504 x 1003
H005;22;Vrouwelijk;Rechts;3;87;left;yes;50;undefined;null;true;focus;yes;688920;Chrome;111.0;Windows;10;undefined;undefined;1504 x 1003;1504 x 1003
H005;22;Vrouwelijk;Rechts;3;88;right;no;100;rightarrow;365;true;focus;yes;690076;Chrome;111.0;Windows;10;undefined;undefined;1504 x 1003;1504 x 1003
H005;22;Vrouwelijk;Rechts;3;89;right;no;100;leftarrow;296;false;focus;yes;691141;Chrome;111.0;Windows;10;undefined;undefined;1504 x 1003;1504 x 1003
H005;22;Vrouwelijk;Rechts;3;90;left;no;100;leftarrow;421;true;focus;yes;692341;Chrome;111.0;Windows;10;undefined;undefined;1504 x 1003;1504 x 1003
H005;22;Vrouwelijk;Rechts;3;91;left;no;100;leftarrow;384;true;focus;yes;693508;Chrome;111.0;Windows;10;undefined;undefined;1504 x 1003;1504 x 1003
H005;22;Vrouwelijk;Rechts;3;92;left;no;100;leftarrow;350;true;focus;yes;694628;Chrome;111.0;Windows;10;undefined;undefined;1504 x 1003;1504 x 1003
H005;22;Vrouwelijk;Rechts;3;93;right;no;100;rightarrow;366;true;focus;yes;695773;Chrome;111.0;Windows;10;undefined;undefined;1504 x 1003;1504 x 1003
H005;22;Vrouwelijk;Rechts;3;94;right;no;100;rightarrow;348;true;focus;yes;696896;Chrome;111.0;Windows;10;undefined;undefined;1504 x 1003;1504 x 1003
H005;22;Vrouwelijk;Rechts;3;95;left;yes;100;leftarrow;353;false;focus;yes;698026;Chrome;111.0;Windows;10;undefined;undefined;1504 x 1003;1504 x 1003
H005;22;Vrouwelijk;Rechts;3;96;right;yes;50;undefined;null;true;focus;yes;700061;Chrome;111.0;Windows;10;undefined;undefined;1504 x 1003;1504 x 1003
H005;22;Vrouwelijk;Rechts;3;97;right;yes;100;rightarrow;421;false;focus;yes;701246;Chrome;111.0;Windows;10;undefined;undefined;1504 x 1003;1504 x 1003
H005;22;Vrouwelijk;Rechts;3;98;left;no;50;leftarrow;463;true;focus;yes;702487;Chrome;111.0;Windows;10;undefined;undefined;1504 x 1003;1504 x 1003
H005;22;Vrouwelijk;Rechts;3;99;left;no;50;leftarrow;417;true;focus;yes;703688;Chrome;111.0;Windows;10;undefined;undefined;1504 x 1003;1504 x 1003
H005;22;Vrouwelijk;Rechts;3;100;left;no;50;leftarrow;422;true;focus;yes;704896;Chrome;111.0;Windows;10;undefined;undefined;1504 x 1003;1504 x 1003
H005;22;Vrouwelijk;Rechts;3;101;right;no;50;rightarrow;525;true;focus;yes;706201;Chrome;111.0;Windows;10;undefined;undefined;1504 x 1003;1504 x 1003
H005;22;Vrouwelijk;Rechts;3;102;left;yes;50;undefined;null;true;focus;yes;708234;Chrome;111.0;Windows;10;undefined;undefined;1504 x 1003;1504 x 1003
H005;22;Vrouwelijk;Rechts;3;103;right;no;100;rightarrow;365;true;focus;yes;709376;Chrome;111.0;Windows;10;undefined;undefined;1504 x 1003;1504 x 1003
H005;22;Vrouwelijk;Rechts;3;104;right;no;100;rightarrow;463;true;focus;yes;710607;Chrome;111.0;Windows;10;undefined;undefined;1504 x 1003;1504 x 1003
H005;22;Vrouwelijk;Rechts;3;105;left;no;100;leftarrow;601;true;focus;yes;711978;Chrome;111.0;Windows;10;undefined;undefined;1504 x 1003;1504 x 1003
H005;22;Vrouwelijk;Rechts;3;106;right;no;100;rightarrow;436;true;focus;yes;713189;Chrome;111.0;Windows;10;undefined;undefined;1504 x 1003;1504 x 1003
H005;22;Vrouwelijk;Rechts;3;107;left;yes;100;leftarrow;349;false;focus;yes;714326;Chrome;111.0;Windows;10;undefined;undefined;1504 x 1003;1504 x 1003
H005;22;Vrouwelijk;Rechts;3;108;right;no;50;rightarrow;308;true;focus;yes;715420;Chrome;111.0;Windows;10;undefined;undefined;1504 x 1003;1504 x 1003
H005;22;Vrouwelijk;Rechts;3;109;right;yes;50;leftarrow;300;false;focus;yes;716494;Chrome;111.0;Windows;10;undefined;undefined;1504 x 1003;1504 x 1003
H005;22;Vrouwelijk;Rechts;3;110;right;no;50;rightarrow;311;true;focus;yes;717589;Chrome;111.0;Windows;10;undefined;undefined;1504 x 1003;1504 x 1003
H005;22;Vrouwelijk;Rechts;3;111;left;no;50;leftarrow;355;true;focus;yes;718727;Chrome;111.0;Windows;10;undefined;undefined;1504 x 1003;1504 x 1003
H005;22;Vrouwelijk;Rechts;3;112;left;no;50;leftarrow;495;true;focus;yes;719992;Chrome;111.0;Windows;10;undefined;undefined;1504 x 1003;1504 x 1003
H005;22;Vrouwelijk;Rechts;3;113;right;no;50;rightarrow;325;true;focus;yes;721095;Chrome;111.0;Windows;10;undefined;undefined;1504 x 1003;1504 x 1003
H005;22;Vrouwelijk;Rechts;3;114;left;no;50;leftarrow;375;true;focus;yes;722244;Chrome;111.0;Windows;10;undefined;undefined;1504 x 1003;1504 x 1003
H005;22;Vrouwelijk;Rechts;3;115;left;no;50;leftarrow;339;true;focus;yes;723376;Chrome;111.0;Windows;10;undefined;undefined;1504 x 1003;1504 x 1003
H005;22;Vrouwelijk;Rechts;3;116;right;no;50;leftarrow;413;false;focus;yes;724552;Chrome;111.0;Windows;10;undefined;undefined;1504 x 1003;1504 x 1003
H005;22;Vrouwelijk;Rechts;3;117;right;no;50;rightarrow;427;true;focus;yes;725758;Chrome;111.0;Windows;10;undefined;undefined;1504 x 1003;1504 x 1003
H005;22;Vrouwelijk;Rechts;3;118;left;no;50;leftarrow;381;true;focus;yes;726904;Chrome;111.0;Windows;10;undefined;undefined;1504 x 1003;1504 x 1003
H005;22;Vrouwelijk;Rechts;3;119;left;yes;50;undefined;null;true;focus;yes;728938;Chrome;111.0;Windows;10;undefined;undefined;1504 x 1003;1504 x 1003
H005;22;Vrouwelijk;Rechts;3;120;right;yes;100;rightarrow;324;false;focus;yes;730066;Chrome;111.0;Windows;10;undefined;undefined;1504 x 1003;1504 x 1003
H005;22;Vrouwelijk;Rechts;3;121;right;no;50;rightarrow;448;true;focus;yes;731281;Chrome;111.0;Windows;10;undefined;undefined;1504 x 1003;1504 x 1003
H005;22;Vrouwelijk;Rechts;3;122;right;yes;50;undefined;null;true;focus;yes;733306;Chrome;111.0;Windows;10;undefined;undefined;1504 x 1003;1504 x 1003
H005;22;Vrouwelijk;Rechts;3;123;left;no;100;leftarrow;429;true;focus;yes;734500;Chrome;111.0;Windows;10;undefined;undefined;1504 x 1003;1504 x 1003
H005;22;Vrouwelijk;Rechts;3;124;left;no;100;leftarrow;464;true;focus;yes;735740;Chrome;111.0;Windows;10;undefined;undefined;1504 x 1003;1504 x 1003
H005;22;Vrouwelijk;Rechts;3;125;left;yes;100;undefined;null;true;focus;yes;737761;Chrome;111.0;Windows;10;undefined;undefined;1504 x 1003;1504 x 1003
H005;22;Vrouwelijk;Rechts;3;126;right;no;150;rightarrow;346;true;focus;yes;738887;Chrome;111.0;Windows;10;undefined;undefined;1504 x 1003;1504 x 1003
H005;22;Vrouwelijk;Rechts;3;127;right;no;150;rightarrow;342;true;focus;yes;740019;Chrome;111.0;Windows;10;undefined;undefined;1504 x 1003;1504 x 1003
H005;22;Vrouwelijk;Rechts;3;128;left;no;150;leftarrow;435;true;focus;yes;741222;Chrome;111.0;Windows;10;undefined;undefined;1504 x 1003;1504 x 1003
H005;22;Vrouwelijk;Rechts;4;1;left;no;150;leftarrow;444;true;focus;yes;759973;Chrome;111.0;Windows;10;undefined;undefined;1504 x 1003;1504 x 1003
H005;22;Vrouwelijk;Rechts;4;2;right;no;150;rightarrow;351;true;focus;yes;761090;Chrome;111.0;Windows;10;undefined;undefined;1504 x 1003;1504 x 1003
H005;22;Vrouwelijk;Rechts;4;3;right;no;150;rightarrow;414;true;focus;yes;762271;Chrome;111.0;Windows;10;undefined;undefined;1504 x 1003;1504 x 1003
H005;22;Vrouwelijk;Rechts;4;4;right;yes;150;undefined;null;true;focus;yes;764297;Chrome;111.0;Windows;10;undefined;undefined;1504 x 1003;1504 x 1003
H005;22;Vrouwelijk;Rechts;4;5;left;no;200;leftarrow;305;true;focus;yes;765390;Chrome;111.0;Windows;10;undefined;undefined;1504 x 1003;1504 x 1003
H005;22;Vrouwelijk;Rechts;4;6;left;no;200;rightarrow;327;false;focus;yes;766492;Chrome;111.0;Windows;10;undefined;undefined;1504 x 1003;1504 x 1003
H005;22;Vrouwelijk;Rechts;4;7;left;yes;200;leftarrow;376;false;focus;yes;767642;Chrome;111.0;Windows;10;undefined;undefined;1504 x 1003;1504 x 1003
H005;22;Vrouwelijk;Rechts;4;8;right;no;150;rightarrow;291;true;focus;yes;768702;Chrome;111.0;Windows;10;undefined;undefined;1504 x 1003;1504 x 1003
H005;22;Vrouwelijk;Rechts;4;9;right;no;150;rightarrow;599;true;focus;yes;770091;Chrome;111.0;Windows;10;undefined;undefined;1504 x 1003;1504 x 1003
H005;22;Vrouwelijk;Rechts;4;10;left;no;150;rightarrow;419;false;focus;yes;771289;Chrome;111.0;Windows;10;undefined;undefined;1504 x 1003;1504 x 1003
H005;22;Vrouwelijk;Rechts;4;11;left;no;150;leftarrow;490;true;focus;yes;772559;Chrome;111.0;Windows;10;undefined;undefined;1504 x 1003;1504 x 1003
H005;22;Vrouwelijk;Rechts;4;12;left;no;150;leftarrow;401;true;focus;yes;773730;Chrome;111.0;Windows;10;undefined;undefined;1504 x 1003;1504 x 1003
H005;22;Vrouwelijk;Rechts;4;13;right;yes;150;rightarrow;450;false;focus;yes;774950;Chrome;111.0;Windows;10;undefined;undefined;1504 x 1003;1504 x 1003
H005;22;Vrouwelijk;Rechts;4;14;left;yes;100;leftarrow;348;false;focus;yes;776068;Chrome;111.0;Windows;10;undefined;undefined;1504 x 1003;1504 x 1003
H005;22;Vrouwelijk;Rechts;4;15;right;no;50;rightarrow;356;true;focus;yes;777198;Chrome;111.0;Windows;10;undefined;undefined;1504 x 1003;1504 x 1003
H005;22;Vrouwelijk;Rechts;4;16;right;no;50;rightarrow;431;true;focus;yes;778429;Chrome;111.0;Windows;10;undefined;undefined;1504 x 1003;1504 x 1003
H005;22;Vrouwelijk;Rechts;4;17;right;no;50;rightarrow;476;true;focus;yes;779684;Chrome;111.0;Windows;10;undefined;undefined;1504 x 1003;1504 x 1003
H005;22;Vrouwelijk;Rechts;4;18;right;yes;50;undefined;null;true;focus;yes;781735;Chrome;111.0;Windows;10;undefined;undefined;1504 x 1003;1504 x 1003
H005;22;Vrouwelijk;Rechts;4;19;left;no;100;leftarrow;339;true;focus;yes;782856;Chrome;111.0;Windows;10;undefined;undefined;1504 x 1003;1504 x 1003
H005;22;Vrouwelijk;Rechts;4;20;left;no;100;leftarrow;488;true;focus;yes;784132;Chrome;111.0;Windows;10;undefined;undefined;1504 x 1003;1504 x 1003
H005;22;Vrouwelijk;Rechts;4;21;left;no;100;leftarrow;448;true;focus;yes;785352;Chrome;111.0;Windows;10;undefined;undefined;1504 x 1003;1504 x 1003
H005;22;Vrouwelijk;Rechts;4;22;right;no;100;rightarrow;386;true;focus;yes;786502;Chrome;111.0;Windows;10;undefined;undefined;1504 x 1003;1504 x 1003
H005;22;Vrouwelijk;Rechts;4;23;right;no;100;rightarrow;662;true;focus;yes;787937;Chrome;111.0;Windows;10;undefined;undefined;1504 x 1003;1504 x 1003
H005;22;Vrouwelijk;Rechts;4;24;left;yes;100;undefined;null;true;focus;yes;789986;Chrome;111.0;Windows;10;undefined;undefined;1504 x 1003;1504 x 1003
H005;22;Vrouwelijk;Rechts;4;25;right;yes;150;undefined;null;true;focus;yes;792052;Chrome;111.0;Windows;10;undefined;undefined;1504 x 1003;1504 x 1003
H005;22;Vrouwelijk;Rechts;4;26;left;yes;200;leftarrow;533;false;focus;yes;793377;Chrome;111.0;Windows;10;undefined;undefined;1504 x 1003;1504 x 1003
H005;22;Vrouwelijk;Rechts;4;27;right;no;150;rightarrow;380;true;focus;yes;794529;Chrome;111.0;Windows;10;undefined;undefined;1504 x 1003;1504 x 1003
H005;22;Vrouwelijk;Rechts;4;28;left;no;150;leftarrow;657;true;focus;yes;795962;Chrome;111.0;Windows;10;undefined;undefined;1504 x 1003;1504 x 1003
H005;22;Vrouwelijk;Rechts;4;29;right;no;150;rightarrow;400;true;focus;yes;797135;Chrome;111.0;Windows;10;undefined;undefined;1504 x 1003;1504 x 1003
H005;22;Vrouwelijk;Rechts;4;30;left;no;150;leftarrow;440;true;focus;yes;798354;Chrome;111.0;Windows;10;undefined;undefined;1504 x 1003;1504 x 1003
H005;22;Vrouwelijk;Rechts;4;31;left;no;150;leftarrow;437;true;focus;yes;799566;Chrome;111.0;Windows;10;undefined;undefined;1504 x 1003;1504 x 1003
H005;22;Vrouwelijk;Rechts;4;32;right;no;150;rightarrow;416;true;focus;yes;800760;Chrome;111.0;Windows;10;undefined;undefined;1504 x 1003;1504 x 1003
H005;22;Vrouwelijk;Rechts;4;33;right;no;150;rightarrow;422;true;focus;yes;801958;Chrome;111.0;Windows;10;undefined;undefined;1504 x 1003;1504 x 1003
H005;22;Vrouwelijk;Rechts;4;34;left;no;150;leftarrow;364;true;focus;yes;803084;Chrome;111.0;Windows;10;undefined;undefined;1504 x 1003;1504 x 1003
H005;22;Vrouwelijk;Rechts;4;35;right;no;150;rightarrow;325;true;focus;yes;804192;Chrome;111.0;Windows;10;undefined;undefined;1504 x 1003;1504 x 1003
H005;22;Vrouwelijk;Rechts;4;36;right;no;150;rightarrow;437;true;focus;yes;805410;Chrome;111.0;Windows;10;undefined;undefined;1504 x 1003;1504 x 1003
H005;22;Vrouwelijk;Rechts;4;37;right;yes;150;undefined;null;true;focus;yes;807460;Chrome;111.0;Windows;10;undefined;undefined;1504 x 1003;1504 x 1003
H005;22;Vrouwelijk;Rechts;4;38;left;no;200;leftarrow;422;true;focus;yes;808654;Chrome;111.0;Windows;10;undefined;undefined;1504 x 1003;1504 x 1003
H005;22;Vrouwelijk;Rechts;4;39;left;yes;200;leftarrow;441;false;focus;yes;809866;Chrome;111.0;Windows;10;undefined;undefined;1504 x 1003;1504 x 1003
H005;22;Vrouwelijk;Rechts;4;40;left;no;150;leftarrow;475;true;focus;yes;811108;Chrome;111.0;Windows;10;undefined;undefined;1504 x 1003;1504 x 1003
H005;22;Vrouwelijk;Rechts;4;41;left;no;150;leftarrow;506;true;focus;yes;812408;Chrome;111.0;Windows;10;undefined;undefined;1504 x 1003;1504 x 1003
H005;22;Vrouwelijk;Rechts;4;42;left;no;150;leftarrow;430;true;focus;yes;813608;Chrome;111.0;Windows;10;undefined;undefined;1504 x 1003;1504 x 1003
H005;22;Vrouwelijk;Rechts;4;43;right;yes;150;undefined;null;true;focus;yes;815662;Chrome;111.0;Windows;10;undefined;undefined;1504 x 1003;1504 x 1003
H005;22;Vrouwelijk;Rechts;4;44;left;yes;200;leftarrow;448;false;focus;yes;816900;Chrome;111.0;Windows;10;undefined;undefined;1504 x 1003;1504 x 1003
H005;22;Vrouwelijk;Rechts;4;45;right;no;150;rightarrow;335;true;focus;yes;818018;Chrome;111.0;Windows;10;undefined;undefined;1504 x 1003;1504 x 1003
H005;22;Vrouwelijk;Rechts;4;46;left;no;150;leftarrow;459;true;focus;yes;819254;Chrome;111.0;Windows;10;undefined;undefined;1504 x 1003;1504 x 1003
H005;22;Vrouwelijk;Rechts;4;47;right;no;150;rightarrow;574;true;focus;yes;820618;Chrome;111.0;Windows;10;undefined;undefined;1504 x 1003;1504 x 1003
H005;22;Vrouwelijk;Rechts;4;48;right;no;150;rightarrow;364;true;focus;yes;821745;Chrome;111.0;Windows;10;undefined;undefined;1504 x 1003;1504 x 1003
H005;22;Vrouwelijk;Rechts;4;49;right;yes;150;rightarrow;325;false;focus;yes;822840;Chrome;111.0;Windows;10;undefined;undefined;1504 x 1003;1504 x 1003
H005;22;Vrouwelijk;Rechts;4;50;left;no;100;leftarrow;532;true;focus;yes;824154;Chrome;111.0;Windows;10;undefined;undefined;1504 x 1003;1504 x 1003
H005;22;Vrouwelijk;Rechts;4;51;left;no;100;leftarrow;583;true;focus;yes;825518;Chrome;111.0;Windows;10;undefined;undefined;1504 x 1003;1504 x 1003
H005;22;Vrouwelijk;Rechts;4;52;right;no;100;rightarrow;329;true;focus;yes;826619;Chrome;111.0;Windows;10;undefined;undefined;1504 x 1003;1504 x 1003
H005;22;Vrouwelijk;Rechts;4;53;right;no;100;rightarrow;436;true;focus;yes;827843;Chrome;111.0;Windows;10;undefined;undefined;1504 x 1003;1504 x 1003
H005;22;Vrouwelijk;Rechts;4;54;left;no;100;leftarrow;445;true;focus;yes;829050;Chrome;111.0;Windows;10;undefined;undefined;1504 x 1003;1504 x 1003
H005;22;Vrouwelijk;Rechts;4;55;right;no;100;rightarrow;407;true;focus;yes;830251;Chrome;111.0;Windows;10;undefined;undefined;1504 x 1003;1504 x 1003
H005;22;Vrouwelijk;Rechts;4;56;left;yes;100;undefined;null;true;focus;yes;832277;Chrome;111.0;Windows;10;undefined;undefined;1504 x 1003;1504 x 1003
H005;22;Vrouwelijk;Rechts;4;57;left;yes;150;undefined;null;true;focus;yes;834322;Chrome;111.0;Windows;10;undefined;undefined;1504 x 1003;1504 x 1003
H005;22;Vrouwelijk;Rechts;4;58;right;yes;200;rightarrow;325;false;focus;yes;835444;Chrome;111.0;Windows;10;undefined;undefined;1504 x 1003;1504 x 1003
H005;22;Vrouwelijk;Rechts;4;59;left;no;150;leftarrow;349;true;focus;yes;836572;Chrome;111.0;Windows;10;undefined;undefined;1504 x 1003;1504 x 1003
H005;22;Vrouwelijk;Rechts;4;60;left;no;150;leftarrow;501;true;focus;yes;837839;Chrome;111.0;Windows;10;undefined;undefined;1504 x 1003;1504 x 1003
H005;22;Vrouwelijk;Rechts;4;61;right;no;150;rightarrow;499;true;focus;yes;839105;Chrome;111.0;Windows;10;undefined;undefined;1504 x 1003;1504 x 1003
H005;22;Vrouwelijk;Rechts;4;62;left;no;150;leftarrow;403;true;focus;yes;840293;Chrome;111.0;Windows;10;undefined;undefined;1504 x 1003;1504 x 1003
H005;22;Vrouwelijk;Rechts;4;63;right;no;150;rightarrow;401;true;focus;yes;841490;Chrome;111.0;Windows;10;undefined;undefined;1504 x 1003;1504 x 1003
H005;22;Vrouwelijk;Rechts;4;64;right;no;150;rightarrow;472;true;focus;yes;842754;Chrome;111.0;Windows;10;undefined;undefined;1504 x 1003;1504 x 1003
H005;22;Vrouwelijk;Rechts;4;65;left;yes;150;undefined;null;true;focus;yes;844793;Chrome;111.0;Windows;10;undefined;undefined;1504 x 1003;1504 x 1003
H005;22;Vrouwelijk;Rechts;4;66;right;yes;200;rightarrow;398;false;focus;yes;845969;Chrome;111.0;Windows;10;undefined;undefined;1504 x 1003;1504 x 1003
H005;22;Vrouwelijk;Rechts;4;67;left;no;150;leftarrow;469;true;focus;yes;847217;Chrome;111.0;Windows;10;undefined;undefined;1504 x 1003;1504 x 1003
H005;22;Vrouwelijk;Rechts;4;68;right;no;150;rightarrow;397;true;focus;yes;848403;Chrome;111.0;Windows;10;undefined;undefined;1504 x 1003;1504 x 1003
H005;22;Vrouwelijk;Rechts;4;69;right;no;150;rightarrow;355;true;focus;yes;849535;Chrome;111.0;Windows;10;undefined;undefined;1504 x 1003;1504 x 1003
H005;22;Vrouwelijk;Rechts;4;70;left;no;150;leftarrow;472;true;focus;yes;850789;Chrome;111.0;Windows;10;undefined;undefined;1504 x 1003;1504 x 1003
H005;22;Vrouwelijk;Rechts;4;71;right;no;150;rightarrow;377;true;focus;yes;851932;Chrome;111.0;Windows;10;undefined;undefined;1504 x 1003;1504 x 1003
H005;22;Vrouwelijk;Rechts;4;72;left;no;150;rightarrow;396;false;focus;yes;853117;Chrome;111.0;Windows;10;undefined;undefined;1504 x 1003;1504 x 1003
H005;22;Vrouwelijk;Rechts;4;73;right;yes;150;rightarrow;322;false;focus;yes;854210;Chrome;111.0;Windows;10;undefined;undefined;1504 x 1003;1504 x 1003
H005;22;Vrouwelijk;Rechts;4;74;left;no;100;leftarrow;402;true;focus;yes;855391;Chrome;111.0;Windows;10;undefined;undefined;1504 x 1003;1504 x 1003
H005;22;Vrouwelijk;Rechts;4;75;right;no;100;rightarrow;380;true;focus;yes;856539;Chrome;111.0;Windows;10;undefined;undefined;1504 x 1003;1504 x 1003
H005;22;Vrouwelijk;Rechts;4;76;left;no;100;leftarrow;455;true;focus;yes;857772;Chrome;111.0;Windows;10;undefined;undefined;1504 x 1003;1504 x 1003
H005;22;Vrouwelijk;Rechts;4;77;right;no;100;rightarrow;318;true;focus;yes;858904;Chrome;111.0;Windows;10;undefined;undefined;1504 x 1003;1504 x 1003
H005;22;Vrouwelijk;Rechts;4;78;right;no;100;rightarrow;438;true;focus;yes;860115;Chrome;111.0;Windows;10;undefined;undefined;1504 x 1003;1504 x 1003
H005;22;Vrouwelijk;Rechts;4;79;left;no;100;leftarrow;509;true;focus;yes;861397;Chrome;111.0;Windows;10;undefined;undefined;1504 x 1003;1504 x 1003
H005;22;Vrouwelijk;Rechts;4;80;left;yes;100;leftarrow;355;false;focus;yes;862535;Chrome;111.0;Windows;10;undefined;undefined;1504 x 1003;1504 x 1003
H005;22;Vrouwelijk;Rechts;4;81;right;no;50;rightarrow;335;true;focus;yes;863646;Chrome;111.0;Windows;10;undefined;undefined;1504 x 1003;1504 x 1003
H005;22;Vrouwelijk;Rechts;4;82;left;no;50;leftarrow;432;true;focus;yes;864868;Chrome;111.0;Windows;10;undefined;undefined;1504 x 1003;1504 x 1003
H005;22;Vrouwelijk;Rechts;4;83;left;no;50;leftarrow;445;true;focus;yes;866089;Chrome;111.0;Windows;10;undefined;undefined;1504 x 1003;1504 x 1003
H005;22;Vrouwelijk;Rechts;4;84;right;yes;50;undefined;null;true;focus;yes;868111;Chrome;111.0;Windows;10;undefined;undefined;1504 x 1003;1504 x 1003
H005;22;Vrouwelijk;Rechts;4;85;left;yes;100;undefined;null;true;focus;yes;870190;Chrome;111.0;Windows;10;undefined;undefined;1504 x 1003;1504 x 1003
H005;22;Vrouwelijk;Rechts;4;86;right;no;150;leftarrow;382;false;focus;yes;871382;Chrome;111.0;Windows;10;undefined;undefined;1504 x 1003;1504 x 1003
H005;22;Vrouwelijk;Rechts;4;87;left;no;150;leftarrow;384;true;focus;yes;872539;Chrome;111.0;Windows;10;undefined;undefined;1504 x 1003;1504 x 1003
H005;22;Vrouwelijk;Rechts;4;88;right;no;150;rightarrow;356;true;focus;yes;873668;Chrome;111.0;Windows;10;undefined;undefined;1504 x 1003;1504 x 1003
H005;22;Vrouwelijk;Rechts;4;89;left;no;150;leftarrow;430;true;focus;yes;874872;Chrome;111.0;Windows;10;undefined;undefined;1504 x 1003;1504 x 1003
H005;22;Vrouwelijk;Rechts;4;90;right;yes;150;rightarrow;301;false;focus;yes;875951;Chrome;111.0;Windows;10;undefined;undefined;1504 x 1003;1504 x 1003
H005;22;Vrouwelijk;Rechts;4;91;right;no;100;rightarrow;527;true;focus;yes;877281;Chrome;111.0;Windows;10;undefined;undefined;1504 x 1003;1504 x 1003
H005;22;Vrouwelijk;Rechts;4;92;left;no;100;leftarrow;483;true;focus;yes;878529;Chrome;111.0;Windows;10;undefined;undefined;1504 x 1003;1504 x 1003
H005;22;Vrouwelijk;Rechts;4;93;left;yes;100;undefined;null;true;focus;yes;880568;Chrome;111.0;Windows;10;undefined;undefined;1504 x 1003;1504 x 1003
H005;22;Vrouwelijk;Rechts;4;94;right;no;150;rightarrow;330;true;focus;yes;881682;Chrome;111.0;Windows;10;undefined;undefined;1504 x 1003;1504 x 1003
H005;22;Vrouwelijk;Rechts;4;95;right;no;150;leftarrow;363;false;focus;yes;882829;Chrome;111.0;Windows;10;undefined;undefined;1504 x 1003;1504 x 1003
H005;22;Vrouwelijk;Rechts;4;96;left;no;150;leftarrow;548;true;focus;yes;884145;Chrome;111.0;Windows;10;undefined;undefined;1504 x 1003;1504 x 1003
H005;22;Vrouwelijk;Rechts;4;97;right;no;150;rightarrow;338;true;focus;yes;885254;Chrome;111.0;Windows;10;undefined;undefined;1504 x 1003;1504 x 1003
H005;22;Vrouwelijk;Rechts;4;98;left;no;150;leftarrow;483;true;focus;yes;886499;Chrome;111.0;Windows;10;undefined;undefined;1504 x 1003;1504 x 1003
H005;22;Vrouwelijk;Rechts;4;99;right;yes;150;rightarrow;404;false;focus;yes;887693;Chrome;111.0;Windows;10;undefined;undefined;1504 x 1003;1504 x 1003
H005;22;Vrouwelijk;Rechts;4;100;left;yes;100;undefined;null;true;focus;yes;889763;Chrome;111.0;Windows;10;undefined;undefined;1504 x 1003;1504 x 1003
H005;22;Vrouwelijk;Rechts;4;101;right;no;150;rightarrow;345;true;focus;yes;890911;Chrome;111.0;Windows;10;undefined;undefined;1504 x 1003;1504 x 1003
H005;22;Vrouwelijk;Rechts;4;102;right;no;150;rightarrow;457;true;focus;yes;892156;Chrome;111.0;Windows;10;undefined;undefined;1504 x 1003;1504 x 1003
H005;22;Vrouwelijk;Rechts;4;103;left;no;150;leftarrow;581;true;focus;yes;893505;Chrome;111.0;Windows;10;undefined;undefined;1504 x 1003;1504 x 1003
H005;22;Vrouwelijk;Rechts;4;104;left;no;150;leftarrow;892;true;focus;yes;895161;Chrome;111.0;Windows;10;undefined;undefined;1504 x 1003;1504 x 1003
H005;22;Vrouwelijk;Rechts;4;105;left;no;150;leftarrow;333;true;focus;yes;896269;Chrome;111.0;Windows;10;undefined;undefined;1504 x 1003;1504 x 1003
H005;22;Vrouwelijk;Rechts;4;106;right;no;150;rightarrow;389;true;focus;yes;897439;Chrome;111.0;Windows;10;undefined;undefined;1504 x 1003;1504 x 1003
H005;22;Vrouwelijk;Rechts;4;107;left;no;150;leftarrow;466;true;focus;yes;898685;Chrome;111.0;Windows;10;undefined;undefined;1504 x 1003;1504 x 1003
H005;22;Vrouwelijk;Rechts;4;108;right;no;150;rightarrow;308;true;focus;yes;899775;Chrome;111.0;Windows;10;undefined;undefined;1504 x 1003;1504 x 1003
H005;22;Vrouwelijk;Rechts;4;109;left;yes;150;leftarrow;328;false;focus;yes;900873;Chrome;111.0;Windows;10;undefined;undefined;1504 x 1003;1504 x 1003
H005;22;Vrouwelijk;Rechts;4;110;right;no;100;rightarrow;345;true;focus;yes;902005;Chrome;111.0;Windows;10;undefined;undefined;1504 x 1003;1504 x 1003
H005;22;Vrouwelijk;Rechts;4;111;left;no;100;leftarrow;461;true;focus;yes;903243;Chrome;111.0;Windows;10;undefined;undefined;1504 x 1003;1504 x 1003
H005;22;Vrouwelijk;Rechts;4;112;right;yes;100;undefined;null;true;focus;yes;905284;Chrome;111.0;Windows;10;undefined;undefined;1504 x 1003;1504 x 1003
H005;22;Vrouwelijk;Rechts;4;113;left;no;150;leftarrow;437;true;focus;yes;906497;Chrome;111.0;Windows;10;undefined;undefined;1504 x 1003;1504 x 1003
H005;22;Vrouwelijk;Rechts;4;114;right;no;150;rightarrow;527;true;focus;yes;907790;Chrome;111.0;Windows;10;undefined;undefined;1504 x 1003;1504 x 1003
H005;22;Vrouwelijk;Rechts;4;115;right;yes;150;rightarrow;360;false;focus;yes;908922;Chrome;111.0;Windows;10;undefined;undefined;1504 x 1003;1504 x 1003
H005;22;Vrouwelijk;Rechts;4;116;left;no;100;leftarrow;429;true;focus;yes;910128;Chrome;111.0;Windows;10;undefined;undefined;1504 x 1003;1504 x 1003
H005;22;Vrouwelijk;Rechts;4;117;right;no;100;rightarrow;525;true;focus;yes;911431;Chrome;111.0;Windows;10;undefined;undefined;1504 x 1003;1504 x 1003
H005;22;Vrouwelijk;Rechts;4;118;left;yes;100;undefined;null;true;focus;yes;913505;Chrome;111.0;Windows;10;undefined;undefined;1504 x 1003;1504 x 1003
H005;22;Vrouwelijk;Rechts;4;119;right;no;150;rightarrow;369;true;focus;yes;914685;Chrome;111.0;Windows;10;undefined;undefined;1504 x 1003;1504 x 1003
H005;22;Vrouwelijk;Rechts;4;120;left;no;150;leftarrow;457;true;focus;yes;915920;Chrome;111.0;Windows;10;undefined;undefined;1504 x 1003;1504 x 1003
H005;22;Vrouwelijk;Rechts;4;121;right;no;150;rightarrow;313;true;focus;yes;916997;Chrome;111.0;Windows;10;undefined;undefined;1504 x 1003;1504 x 1003
H005;22;Vrouwelijk;Rechts;4;122;left;yes;150;leftarrow;351;false;focus;yes;918123;Chrome;111.0;Windows;10;undefined;undefined;1504 x 1003;1504 x 1003
H005;22;Vrouwelijk;Rechts;4;123;right;no;100;rightarrow;331;true;focus;yes;919239;Chrome;111.0;Windows;10;undefined;undefined;1504 x 1003;1504 x 1003
H005;22;Vrouwelijk;Rechts;4;124;left;no;100;rightarrow;373;false;focus;yes;920396;Chrome;111.0;Windows;10;undefined;undefined;1504 x 1003;1504 x 1003
H005;22;Vrouwelijk;Rechts;4;125;left;no;100;leftarrow;421;true;focus;yes;921597;Chrome;111.0;Windows;10;undefined;undefined;1504 x 1003;1504 x 1003
H005;22;Vrouwelijk;Rechts;4;126;left;no;100;rightarrow;284;false;focus;yes;922669;Chrome;111.0;Windows;10;undefined;undefined;1504 x 1003;1504 x 1003
H005;22;Vrouwelijk;Rechts;4;127;right;no;100;rightarrow;475;true;focus;yes;923921;Chrome;111.0;Windows;10;undefined;undefined;1504 x 1003;1504 x 1003
H005;22;Vrouwelijk;Rechts;4;128;right;yes;100;undefined;null;true;focus;yes;925986;Chrome;111.0;Windows;10;undefined;undefined;1504 x 1003;1504 x 1003
H005;22;Vrouwelijk;Rechts;5;1;left;no;150;leftarrow;467;true;focus;yes;945150;Chrome;111.0;Windows;10;undefined;undefined;1504 x 1003;1504 x 1003
H005;22;Vrouwelijk;Rechts;5;2;left;no;150;rightarrow;333;false;focus;yes;946263;Chrome;111.0;Windows;10;undefined;undefined;1504 x 1003;1504 x 1003
H005;22;Vrouwelijk;Rechts;5;3;left;no;150;rightarrow;294;false;focus;yes;947334;Chrome;111.0;Windows;10;undefined;undefined;1504 x 1003;1504 x 1003
H005;22;Vrouwelijk;Rechts;5;4;left;yes;150;leftarrow;420;false;focus;yes;948527;Chrome;111.0;Windows;10;undefined;undefined;1504 x 1003;1504 x 1003
H005;22;Vrouwelijk;Rechts;5;5;right;yes;100;undefined;null;true;focus;yes;950567;Chrome;111.0;Windows;10;undefined;undefined;1504 x 1003;1504 x 1003
H005;22;Vrouwelijk;Rechts;5;6;right;no;150;rightarrow;326;true;focus;yes;951668;Chrome;111.0;Windows;10;undefined;undefined;1504 x 1003;1504 x 1003
H005;22;Vrouwelijk;Rechts;5;7;right;no;150;rightarrow;417;true;focus;yes;952857;Chrome;111.0;Windows;10;undefined;undefined;1504 x 1003;1504 x 1003
H005;22;Vrouwelijk;Rechts;5;8;right;no;150;rightarrow;360;true;focus;yes;953991;Chrome;111.0;Windows;10;undefined;undefined;1504 x 1003;1504 x 1003
H005;22;Vrouwelijk;Rechts;5;9;left;no;150;leftarrow;586;true;focus;yes;955354;Chrome;111.0;Windows;10;undefined;undefined;1504 x 1003;1504 x 1003
H005;22;Vrouwelijk;Rechts;5;10;right;no;150;rightarrow;493;true;focus;yes;956616;Chrome;111.0;Windows;10;undefined;undefined;1504 x 1003;1504 x 1003
H005;22;Vrouwelijk;Rechts;5;11;right;yes;150;undefined;null;true;focus;yes;958683;Chrome;111.0;Windows;10;undefined;undefined;1504 x 1003;1504 x 1003
H005;22;Vrouwelijk;Rechts;5;12;right;no;200;rightarrow;362;true;focus;yes;959853;Chrome;111.0;Windows;10;undefined;undefined;1504 x 1003;1504 x 1003
H005;22;Vrouwelijk;Rechts;5;13;left;yes;200;leftarrow;461;false;focus;yes;961100;Chrome;111.0;Windows;10;undefined;undefined;1504 x 1003;1504 x 1003
H005;22;Vrouwelijk;Rechts;5;14;right;no;150;rightarrow;437;true;focus;yes;962307;Chrome;111.0;Windows;10;undefined;undefined;1504 x 1003;1504 x 1003
H005;22;Vrouwelijk;Rechts;5;15;left;no;150;leftarrow;467;true;focus;yes;963543;Chrome;111.0;Windows;10;undefined;undefined;1504 x 1003;1504 x 1003
H005;22;Vrouwelijk;Rechts;5;16;left;no;150;leftarrow;498;true;focus;yes;964827;Chrome;111.0;Windows;10;undefined;undefined;1504 x 1003;1504 x 1003
H005;22;Vrouwelijk;Rechts;5;17;left;yes;150;undefined;null;true;focus;yes;966861;Chrome;111.0;Windows;10;undefined;undefined;1504 x 1003;1504 x 1003
H005;22;Vrouwelijk;Rechts;5;18;left;no;200;leftarrow;399;true;focus;yes;968044;Chrome;111.0;Windows;10;undefined;undefined;1504 x 1003;1504 x 1003
H005;22;Vrouwelijk;Rechts;5;19;left;no;200;leftarrow;421;true;focus;yes;969244;Chrome;111.0;Windows;10;undefined;undefined;1504 x 1003;1504 x 1003
H005;22;Vrouwelijk;Rechts;5;20;left;no;200;leftarrow;451;true;focus;yes;970473;Chrome;111.0;Windows;10;undefined;undefined;1504 x 1003;1504 x 1003
H005;22;Vrouwelijk;Rechts;5;21;right;yes;200;rightarrow;469;false;focus;yes;971704;Chrome;111.0;Windows;10;undefined;undefined;1504 x 1003;1504 x 1003
H005;22;Vrouwelijk;Rechts;5;22;right;no;150;rightarrow;413;true;focus;yes;972893;Chrome;111.0;Windows;10;undefined;undefined;1504 x 1003;1504 x 1003
H005;22;Vrouwelijk;Rechts;5;23;right;no;150;rightarrow;461;true;focus;yes;974138;Chrome;111.0;Windows;10;undefined;undefined;1504 x 1003;1504 x 1003
H005;22;Vrouwelijk;Rechts;5;24;right;no;150;rightarrow;366;true;focus;yes;975287;Chrome;111.0;Windows;10;undefined;undefined;1504 x 1003;1504 x 1003
H005;22;Vrouwelijk;Rechts;5;25;left;no;150;rightarrow;327;false;focus;yes;976423;Chrome;111.0;Windows;10;undefined;undefined;1504 x 1003;1504 x 1003
H005;22;Vrouwelijk;Rechts;5;26;right;no;150;rightarrow;367;true;focus;yes;977575;Chrome;111.0;Windows;10;undefined;undefined;1504 x 1003;1504 x 1003
H005;22;Vrouwelijk;Rechts;5;27;left;no;150;leftarrow;457;true;focus;yes;978814;Chrome;111.0;Windows;10;undefined;undefined;1504 x 1003;1504 x 1003
H005;22;Vrouwelijk;Rechts;5;28;left;yes;150;leftarrow;363;false;focus;yes;979942;Chrome;111.0;Windows;10;undefined;undefined;1504 x 1003;1504 x 1003
H005;22;Vrouwelijk;Rechts;5;29;left;no;100;leftarrow;608;true;focus;yes;981318;Chrome;111.0;Windows;10;undefined;undefined;1504 x 1003;1504 x 1003
H005;22;Vrouwelijk;Rechts;5;30;right;yes;100;undefined;null;true;focus;yes;983350;Chrome;111.0;Windows;10;undefined;undefined;1504 x 1003;1504 x 1003
H005;22;Vrouwelijk;Rechts;5;31;right;no;150;rightarrow;458;true;focus;yes;984588;Chrome;111.0;Windows;10;undefined;undefined;1504 x 1003;1504 x 1003
H005;22;Vrouwelijk;Rechts;5;32;right;no;150;rightarrow;489;true;focus;yes;985850;Chrome;111.0;Windows;10;undefined;undefined;1504 x 1003;1504 x 1003
H005;22;Vrouwelijk;Rechts;5;33;left;no;150;leftarrow;384;true;focus;yes;987012;Chrome;111.0;Windows;10;undefined;undefined;1504 x 1003;1504 x 1003
H005;22;Vrouwelijk;Rechts;5;34;left;no;150;leftarrow;475;true;focus;yes;988253;Chrome;111.0;Windows;10;undefined;undefined;1504 x 1003;1504 x 1003
H005;22;Vrouwelijk;Rechts;5;35;left;yes;150;leftarrow;411;false;focus;yes;989437;Chrome;111.0;Windows;10;undefined;undefined;1504 x 1003;1504 x 1003
H005;22;Vrouwelijk;Rechts;5;36;right;no;100;rightarrow;505;true;focus;yes;990722;Chrome;111.0;Windows;10;undefined;undefined;1504 x 1003;1504 x 1003
H005;22;Vrouwelijk;Rechts;5;37;right;no;100;rightarrow;426;true;focus;yes;991922;Chrome;111.0;Windows;10;undefined;undefined;1504 x 1003;1504 x 1003
H005;22;Vrouwelijk;Rechts;5;38;right;yes;100;undefined;null;true;focus;yes;993954;Chrome;111.0;Windows;10;undefined;undefined;1504 x 1003;1504 x 1003
H005;22;Vrouwelijk;Rechts;5;39;left;no;150;leftarrow;417;true;focus;yes;995158;Chrome;111.0;Windows;10;undefined;undefined;1504 x 1003;1504 x 1003
H005;22;Vrouwelijk;Rechts;5;40;right;no;150;rightarrow;690;true;focus;yes;996626;Chrome;111.0;Windows;10;undefined;undefined;1504 x 1003;1504 x 1003
H005;22;Vrouwelijk;Rechts;5;41;right;no;150;rightarrow;725;true;focus;yes;998141;Chrome;111.0;Windows;10;undefined;undefined;1504 x 1003;1504 x 1003
H005;22;Vrouwelijk;Rechts;5;42;right;yes;150;undefined;null;true;focus;yes;1000172;Chrome;111.0;Windows;10;undefined;undefined;1504 x 1003;1504 x 1003
H005;22;Vrouwelijk;Rechts;5;43;right;no;200;rightarrow;388;true;focus;yes;1001337;Chrome;111.0;Windows;10;undefined;undefined;1504 x 1003;1504 x 1003
H005;22;Vrouwelijk;Rechts;5;44;left;no;200;leftarrow;469;true;focus;yes;1002593;Chrome;111.0;Windows;10;undefined;undefined;1504 x 1003;1504 x 1003
H005;22;Vrouwelijk;Rechts;5;45;left;no;200;leftarrow;441;true;focus;yes;1003814;Chrome;111.0;Windows;10;undefined;undefined;1504 x 1003;1504 x 1003
H005;22;Vrouwelijk;Rechts;5;46;left;no;200;leftarrow;391;true;focus;yes;1004987;Chrome;111.0;Windows;10;undefined;undefined;1504 x 1003;1504 x 1003
H005;22;Vrouwelijk;Rechts;5;47;right;no;200;rightarrow;519;true;focus;yes;1006280;Chrome;111.0;Windows;10;undefined;undefined;1504 x 1003;1504 x 1003
H005;22;Vrouwelijk;Rechts;5;48;left;yes;200;leftarrow;388;false;focus;yes;1007447;Chrome;111.0;Windows;10;undefined;undefined;1504 x 1003;1504 x 1003
H005;22;Vrouwelijk;Rechts;5;49;left;no;150;leftarrow;472;true;focus;yes;1008694;Chrome;111.0;Windows;10;undefined;undefined;1504 x 1003;1504 x 1003
H005;22;Vrouwelijk;Rechts;5;50;right;no;150;rightarrow;463;true;focus;yes;1009933;Chrome;111.0;Windows;10;undefined;undefined;1504 x 1003;1504 x 1003
H005;22;Vrouwelijk;Rechts;5;51;left;no;150;leftarrow;473;true;focus;yes;1011177;Chrome;111.0;Windows;10;undefined;undefined;1504 x 1003;1504 x 1003
H005;22;Vrouwelijk;Rechts;5;52;right;yes;150;rightarrow;357;false;focus;yes;1012316;Chrome;111.0;Windows;10;undefined;undefined;1504 x 1003;1504 x 1003
H005;22;Vrouwelijk;Rechts;5;53;right;no;100;rightarrow;468;true;focus;yes;1013560;Chrome;111.0;Windows;10;undefined;undefined;1504 x 1003;1504 x 1003
H005;22;Vrouwelijk;Rechts;5;54;right;no;100;rightarrow;479;true;focus;yes;1014814;Chrome;111.0;Windows;10;undefined;undefined;1504 x 1003;1504 x 1003
H005;22;Vrouwelijk;Rechts;5;55;left;no;100;leftarrow;463;true;focus;yes;1016053;Chrome;111.0;Windows;10;undefined;undefined;1504 x 1003;1504 x 1003
H005;22;Vrouwelijk;Rechts;5;56;left;yes;100;undefined;null;true;focus;yes;1018090;Chrome;111.0;Windows;10;undefined;undefined;1504 x 1003;1504 x 1003
H005;22;Vrouwelijk;Rechts;5;57;right;no;150;rightarrow;274;true;focus;yes;1019142;Chrome;111.0;Windows;10;undefined;undefined;1504 x 1003;1504 x 1003
H005;22;Vrouwelijk;Rechts;5;58;left;no;150;leftarrow;345;true;focus;yes;1020280;Chrome;111.0;Windows;10;undefined;undefined;1504 x 1003;1504 x 1003
H005;22;Vrouwelijk;Rechts;5;59;right;yes;150;undefined;null;true;focus;yes;1022298;Chrome;111.0;Windows;10;undefined;undefined;1504 x 1003;1504 x 1003
H005;22;Vrouwelijk;Rechts;5;60;right;no;200;rightarrow;324;true;focus;yes;1023388;Chrome;111.0;Windows;10;undefined;undefined;1504 x 1003;1504 x 1003
H005;22;Vrouwelijk;Rechts;5;61;left;no;200;leftarrow;490;true;focus;yes;1024648;Chrome;111.0;Windows;10;undefined;undefined;1504 x 1003;1504 x 1003
H005;22;Vrouwelijk;Rechts;5;62;left;yes;200;leftarrow;408;false;focus;yes;1025823;Chrome;111.0;Windows;10;undefined;undefined;1504 x 1003;1504 x 1003
H005;22;Vrouwelijk;Rechts;5;63;left;no;150;rightarrow;299;false;focus;yes;1026904;Chrome;111.0;Windows;10;undefined;undefined;1504 x 1003;1504 x 1003
H005;22;Vrouwelijk;Rechts;5;64;right;no;150;rightarrow;434;true;focus;yes;1028122;Chrome;111.0;Windows;10;undefined;undefined;1504 x 1003;1504 x 1003
H005;22;Vrouwelijk;Rechts;5;65;right;no;150;rightarrow;542;true;focus;yes;1029444;Chrome;111.0;Windows;10;undefined;undefined;1504 x 1003;1504 x 1003
H005;22;Vrouwelijk;Rechts;5;66;right;no;150;rightarrow;328;true;focus;yes;1030555;Chrome;111.0;Windows;10;undefined;undefined;1504 x 1003;1504 x 1003
H005;22;Vrouwelijk;Rechts;5;67;right;yes;150;leftarrow;386;false;focus;yes;1031730;Chrome;111.0;Windows;10;undefined;undefined;1504 x 1003;1504 x 1003
H005;22;Vrouwelijk;Rechts;5;68;left;yes;100;undefined;null;true;focus;yes;1033758;Chrome;111.0;Windows;10;undefined;undefined;1504 x 1003;1504 x 1003
H005;22;Vrouwelijk;Rechts;5;69;left;no;150;rightarrow;337;false;focus;yes;1034868;Chrome;111.0;Windows;10;undefined;undefined;1504 x 1003;1504 x 1003
H005;22;Vrouwelijk;Rechts;5;70;left;no;150;leftarrow;505;true;focus;yes;1036156;Chrome;111.0;Windows;10;undefined;undefined;1504 x 1003;1504 x 1003
H005;22;Vrouwelijk;Rechts;5;71;right;no;150;rightarrow;418;true;focus;yes;1037346;Chrome;111.0;Windows;10;undefined;undefined;1504 x 1003;1504 x 1003
H005;22;Vrouwelijk;Rechts;5;72;left;no;150;leftarrow;400;true;focus;yes;1038519;Chrome;111.0;Windows;10;undefined;undefined;1504 x 1003;1504 x 1003
H005;22;Vrouwelijk;Rechts;5;73;right;yes;150;rightarrow;340;false;focus;yes;1039637;Chrome;111.0;Windows;10;undefined;undefined;1504 x 1003;1504 x 1003
H005;22;Vrouwelijk;Rechts;5;74;left;no;100;leftarrow;378;true;focus;yes;1040799;Chrome;111.0;Windows;10;undefined;undefined;1504 x 1003;1504 x 1003
H005;22;Vrouwelijk;Rechts;5;75;left;yes;100;undefined;null;true;focus;yes;1042865;Chrome;111.0;Windows;10;undefined;undefined;1504 x 1003;1504 x 1003
H005;22;Vrouwelijk;Rechts;5;76;left;no;150;rightarrow;302;false;focus;yes;1043980;Chrome;111.0;Windows;10;undefined;undefined;1504 x 1003;1504 x 1003
H005;22;Vrouwelijk;Rechts;5;77;right;no;150;rightarrow;388;true;focus;yes;1045144;Chrome;111.0;Windows;10;undefined;undefined;1504 x 1003;1504 x 1003
H005;22;Vrouwelijk;Rechts;5;78;right;no;150;rightarrow;335;true;focus;yes;1046261;Chrome;111.0;Windows;10;undefined;undefined;1504 x 1003;1504 x 1003
H005;22;Vrouwelijk;Rechts;5;79;right;no;150;rightarrow;394;true;focus;yes;1047434;Chrome;111.0;Windows;10;undefined;undefined;1504 x 1003;1504 x 1003
H005;22;Vrouwelijk;Rechts;5;80;left;no;150;leftarrow;468;true;focus;yes;1048686;Chrome;111.0;Windows;10;undefined;undefined;1504 x 1003;1504 x 1003
H005;22;Vrouwelijk;Rechts;5;81;left;yes;150;undefined;null;true;focus;yes;1050748;Chrome;111.0;Windows;10;undefined;undefined;1504 x 1003;1504 x 1003
H005;22;Vrouwelijk;Rechts;5;82;left;no;200;leftarrow;419;true;focus;yes;1051960;Chrome;111.0;Windows;10;undefined;undefined;1504 x 1003;1504 x 1003
H005;22;Vrouwelijk;Rechts;5;83;right;no;200;leftarrow;506;false;focus;yes;1053241;Chrome;111.0;Windows;10;undefined;undefined;1504 x 1003;1504 x 1003
H005;22;Vrouwelijk;Rechts;5;84;right;yes;200;rightarrow;426;false;focus;yes;1054437;Chrome;111.0;Windows;10;undefined;undefined;1504 x 1003;1504 x 1003
H005;22;Vrouwelijk;Rechts;5;85;left;no;150;leftarrow;433;true;focus;yes;1055638;Chrome;111.0;Windows;10;undefined;undefined;1504 x 1003;1504 x 1003
H005;22;Vrouwelijk;Rechts;5;86;right;no;150;rightarrow;537;true;focus;yes;1056952;Chrome;111.0;Windows;10;undefined;undefined;1504 x 1003;1504 x 1003
H005;22;Vrouwelijk;Rechts;5;87;right;no;150;rightarrow;402;true;focus;yes;1058126;Chrome;111.0;Windows;10;undefined;undefined;1504 x 1003;1504 x 1003
H005;22;Vrouwelijk;Rechts;5;88;left;no;150;leftarrow;483;true;focus;yes;1059387;Chrome;111.0;Windows;10;undefined;undefined;1504 x 1003;1504 x 1003
H005;22;Vrouwelijk;Rechts;5;89;left;no;150;leftarrow;549;true;focus;yes;1060699;Chrome;111.0;Windows;10;undefined;undefined;1504 x 1003;1504 x 1003
H005;22;Vrouwelijk;Rechts;5;90;right;yes;150;rightarrow;376;false;focus;yes;1061871;Chrome;111.0;Windows;10;undefined;undefined;1504 x 1003;1504 x 1003
H005;22;Vrouwelijk;Rechts;5;91;right;no;100;rightarrow;459;true;focus;yes;1063126;Chrome;111.0;Windows;10;undefined;undefined;1504 x 1003;1504 x 1003
H005;22;Vrouwelijk;Rechts;5;92;left;no;100;leftarrow;461;true;focus;yes;1064356;Chrome;111.0;Windows;10;undefined;undefined;1504 x 1003;1504 x 1003
H005;22;Vrouwelijk;Rechts;5;93;left;no;100;leftarrow;459;true;focus;yes;1065585;Chrome;111.0;Windows;10;undefined;undefined;1504 x 1003;1504 x 1003
H005;22;Vrouwelijk;Rechts;5;94;right;no;100;rightarrow;524;true;focus;yes;1066889;Chrome;111.0;Windows;10;undefined;undefined;1504 x 1003;1504 x 1003
H005;22;Vrouwelijk;Rechts;5;95;right;no;100;rightarrow;391;true;focus;yes;1068058;Chrome;111.0;Windows;10;undefined;undefined;1504 x 1003;1504 x 1003
H005;22;Vrouwelijk;Rechts;5;96;left;yes;100;leftarrow;419;false;focus;yes;1069247;Chrome;111.0;Windows;10;undefined;undefined;1504 x 1003;1504 x 1003
H005;22;Vrouwelijk;Rechts;5;97;right;yes;50;undefined;null;true;focus;yes;1071291;Chrome;111.0;Windows;10;undefined;undefined;1504 x 1003;1504 x 1003
H005;22;Vrouwelijk;Rechts;5;98;left;no;100;leftarrow;446;true;focus;yes;1072526;Chrome;111.0;Windows;10;undefined;undefined;1504 x 1003;1504 x 1003
H005;22;Vrouwelijk;Rechts;5;99;left;yes;100;undefined;null;true;focus;yes;1074566;Chrome;111.0;Windows;10;undefined;undefined;1504 x 1003;1504 x 1003
H005;22;Vrouwelijk;Rechts;5;100;right;no;150;rightarrow;419;true;focus;yes;1075778;Chrome;111.0;Windows;10;undefined;undefined;1504 x 1003;1504 x 1003
H005;22;Vrouwelijk;Rechts;5;101;left;no;150;leftarrow;481;true;focus;yes;1077030;Chrome;111.0;Windows;10;undefined;undefined;1504 x 1003;1504 x 1003
H005;22;Vrouwelijk;Rechts;5;102;left;no;150;leftarrow;424;true;focus;yes;1078233;Chrome;111.0;Windows;10;undefined;undefined;1504 x 1003;1504 x 1003
H005;22;Vrouwelijk;Rechts;5;103;right;no;150;rightarrow;480;true;focus;yes;1079493;Chrome;111.0;Windows;10;undefined;undefined;1504 x 1003;1504 x 1003
H005;22;Vrouwelijk;Rechts;5;104;right;no;150;rightarrow;429;true;focus;yes;1080702;Chrome;111.0;Windows;10;undefined;undefined;1504 x 1003;1504 x 1003
H005;22;Vrouwelijk;Rechts;5;105;left;no;150;leftarrow;481;true;focus;yes;1081964;Chrome;111.0;Windows;10;undefined;undefined;1504 x 1003;1504 x 1003
H005;22;Vrouwelijk;Rechts;5;106;left;no;150;leftarrow;433;true;focus;yes;1083194;Chrome;111.0;Windows;10;undefined;undefined;1504 x 1003;1504 x 1003
H005;22;Vrouwelijk;Rechts;5;107;right;no;150;rightarrow;406;true;focus;yes;1084375;Chrome;111.0;Windows;10;undefined;undefined;1504 x 1003;1504 x 1003
H005;22;Vrouwelijk;Rechts;5;108;right;no;150;rightarrow;455;true;focus;yes;1085605;Chrome;111.0;Windows;10;undefined;undefined;1504 x 1003;1504 x 1003
H005;22;Vrouwelijk;Rechts;5;109;left;yes;150;undefined;null;true;focus;yes;1087673;Chrome;111.0;Windows;10;undefined;undefined;1504 x 1003;1504 x 1003
H005;22;Vrouwelijk;Rechts;5;110;right;yes;200;rightarrow;354;false;focus;yes;1088823;Chrome;111.0;Windows;10;undefined;undefined;1504 x 1003;1504 x 1003
H005;22;Vrouwelijk;Rechts;5;111;left;no;150;leftarrow;651;true;focus;yes;1090254;Chrome;111.0;Windows;10;undefined;undefined;1504 x 1003;1504 x 1003
H005;22;Vrouwelijk;Rechts;5;112;right;no;150;rightarrow;506;true;focus;yes;1091537;Chrome;111.0;Windows;10;undefined;undefined;1504 x 1003;1504 x 1003
H005;22;Vrouwelijk;Rechts;5;113;right;no;150;rightarrow;401;true;focus;yes;1092715;Chrome;111.0;Windows;10;undefined;undefined;1504 x 1003;1504 x 1003
H005;22;Vrouwelijk;Rechts;5;114;right;no;150;rightarrow;366;true;focus;yes;1093871;Chrome;111.0;Windows;10;undefined;undefined;1504 x 1003;1504 x 1003
H005;22;Vrouwelijk;Rechts;5;115;left;no;150;leftarrow;544;true;focus;yes;1095196;Chrome;111.0;Windows;10;undefined;undefined;1504 x 1003;1504 x 1003
H005;22;Vrouwelijk;Rechts;5;116;right;yes;150;undefined;null;true;focus;yes;1097226;Chrome;111.0;Windows;10;undefined;undefined;1504 x 1003;1504 x 1003
H005;22;Vrouwelijk;Rechts;5;117;left;no;200;leftarrow;431;true;focus;yes;1098422;Chrome;111.0;Windows;10;undefined;undefined;1504 x 1003;1504 x 1003
H005;22;Vrouwelijk;Rechts;5;118;left;no;200;leftarrow;432;true;focus;yes;1099644;Chrome;111.0;Windows;10;undefined;undefined;1504 x 1003;1504 x 1003
H005;22;Vrouwelijk;Rechts;5;119;left;yes;200;undefined;null;true;focus;yes;1101683;Chrome;111.0;Windows;10;undefined;undefined;1504 x 1003;1504 x 1003
H005;22;Vrouwelijk;Rechts;5;120;right;no;250;rightarrow;419;true;focus;yes;1102881;Chrome;111.0;Windows;10;undefined;undefined;1504 x 1003;1504 x 1003
H005;22;Vrouwelijk;Rechts;5;121;right;no;250;rightarrow;494;true;focus;yes;1104156;Chrome;111.0;Windows;10;undefined;undefined;1504 x 1003;1504 x 1003
H005;22;Vrouwelijk;Rechts;5;122;left;yes;250;leftarrow;526;false;focus;yes;1105462;Chrome;111.0;Windows;10;undefined;undefined;1504 x 1003;1504 x 1003
H005;22;Vrouwelijk;Rechts;5;123;right;no;200;rightarrow;540;true;focus;yes;1106783;Chrome;111.0;Windows;10;undefined;undefined;1504 x 1003;1504 x 1003
H005;22;Vrouwelijk;Rechts;5;124;left;no;200;leftarrow;518;true;focus;yes;1108075;Chrome;111.0;Windows;10;undefined;undefined;1504 x 1003;1504 x 1003
H005;22;Vrouwelijk;Rechts;5;125;left;no;200;leftarrow;458;true;focus;yes;1109303;Chrome;111.0;Windows;10;undefined;undefined;1504 x 1003;1504 x 1003
H005;22;Vrouwelijk;Rechts;5;126;left;no;200;leftarrow;387;true;focus;yes;1110465;Chrome;111.0;Windows;10;undefined;undefined;1504 x 1003;1504 x 1003
H005;22;Vrouwelijk;Rechts;5;127;right;yes;200;undefined;null;true;focus;yes;1112506;Chrome;111.0;Windows;10;undefined;undefined;1504 x 1003;1504 x 1003
H005;22;Vrouwelijk;Rechts;5;128;right;no;250;leftarrow;553;false;focus;yes;1113830;Chrome;111.0;Windows;10;undefined;undefined;1504 x 1003;1504 x 1003
H005;22;Vrouwelijk;Rechts;6;1;right;no;250;rightarrow;539;true;focus;yes;1133066;Chrome;111.0;Windows;10;undefined;undefined;1504 x 1003;1504 x 1003
H005;22;Vrouwelijk;Rechts;6;2;left;no;250;leftarrow;342;true;focus;yes;1134194;Chrome;111.0;Windows;10;undefined;undefined;1504 x 1003;1504 x 1003
H005;22;Vrouwelijk;Rechts;6;3;right;no;250;rightarrow;302;true;focus;yes;1135265;Chrome;111.0;Windows;10;undefined;undefined;1504 x 1003;1504 x 1003
H005;22;Vrouwelijk;Rechts;6;4;right;no;250;leftarrow;246;false;focus;yes;1136278;Chrome;111.0;Windows;10;undefined;undefined;1504 x 1003;1504 x 1003
H005;22;Vrouwelijk;Rechts;6;5;left;yes;250;leftarrow;332;false;focus;yes;1137375;Chrome;111.0;Windows;10;undefined;undefined;1504 x 1003;1504 x 1003
H005;22;Vrouwelijk;Rechts;6;6;left;no;200;rightarrow;257;false;focus;yes;1138427;Chrome;111.0;Windows;10;undefined;undefined;1504 x 1003;1504 x 1003
H005;22;Vrouwelijk;Rechts;6;7;left;no;200;leftarrow;425;true;focus;yes;1139617;Chrome;111.0;Windows;10;undefined;undefined;1504 x 1003;1504 x 1003
H005;22;Vrouwelijk;Rechts;6;8;right;yes;200;rightarrow;427;false;focus;yes;1140825;Chrome;111.0;Windows;10;undefined;undefined;1504 x 1003;1504 x 1003
H005;22;Vrouwelijk;Rechts;6;9;right;no;150;rightarrow;479;true;focus;yes;1142089;Chrome;111.0;Windows;10;undefined;undefined;1504 x 1003;1504 x 1003
H005;22;Vrouwelijk;Rechts;6;10;right;no;150;rightarrow;334;true;focus;yes;1143195;Chrome;111.0;Windows;10;undefined;undefined;1504 x 1003;1504 x 1003
H005;22;Vrouwelijk;Rechts;6;11;right;yes;150;undefined;null;true;focus;yes;1145225;Chrome;111.0;Windows;10;undefined;undefined;1504 x 1003;1504 x 1003
H005;22;Vrouwelijk;Rechts;6;12;left;no;200;leftarrow;344;true;focus;yes;1146338;Chrome;111.0;Windows;10;undefined;undefined;1504 x 1003;1504 x 1003
H005;22;Vrouwelijk;Rechts;6;13;right;no;200;rightarrow;512;true;focus;yes;1147617;Chrome;111.0;Windows;10;undefined;undefined;1504 x 1003;1504 x 1003
H005;22;Vrouwelijk;Rechts;6;14;left;no;200;leftarrow;364;true;focus;yes;1148787;Chrome;111.0;Windows;10;undefined;undefined;1504 x 1003;1504 x 1003
H005;22;Vrouwelijk;Rechts;6;15;left;yes;200;leftarrow;383;false;focus;yes;1149942;Chrome;111.0;Windows;10;undefined;undefined;1504 x 1003;1504 x 1003
H005;22;Vrouwelijk;Rechts;6;16;left;no;150;leftarrow;463;true;focus;yes;1151172;Chrome;111.0;Windows;10;undefined;undefined;1504 x 1003;1504 x 1003
H005;22;Vrouwelijk;Rechts;6;17;left;no;150;leftarrow;435;true;focus;yes;1152408;Chrome;111.0;Windows;10;undefined;undefined;1504 x 1003;1504 x 1003
H005;22;Vrouwelijk;Rechts;6;18;left;no;150;leftarrow;360;true;focus;yes;1153542;Chrome;111.0;Windows;10;undefined;undefined;1504 x 1003;1504 x 1003
H005;22;Vrouwelijk;Rechts;6;19;left;yes;150;leftarrow;366;false;focus;yes;1154690;Chrome;111.0;Windows;10;undefined;undefined;1504 x 1003;1504 x 1003
