participantID;age;gender;handedness;block_i;trial_i;stim;signal;SSD;response;rt;correct;focus;Fullscreen;time_elapsed;browser_name;browser_version;os_name;os_version;tablet;mobile;screen_resolution;window_resolution
H006;52;Mannelijk;Rechts;0;1;right;no;200;rightarrow;798;true;focus;yes;108722;Chrome;112.0;Windows;10;undefined;undefined;1024 x 768;1024 x 768
H006;52;Mannelijk;Rechts;0;2;right;yes;200;rightarrow;611;false;focus;yes;110890;Chrome;112.0;Windows;10;undefined;undefined;1024 x 768;1024 x 768
H006;52;Mannelijk;Rechts;0;3;left;no;150;leftarrow;523;true;focus;yes;112962;Chrome;112.0;Windows;10;undefined;undefined;1024 x 768;1024 x 768
H006;52;Mannelijk;Rechts;0;4;left;no;150;leftarrow;465;true;focus;yes;114950;Chrome;112.0;Windows;10;undefined;undefined;1024 x 768;1024 x 768
H006;52;Mannelijk;Rechts;0;5;right;no;150;rightarrow;468;true;focus;yes;116967;Chrome;112.0;Windows;10;undefined;undefined;1024 x 768;1024 x 768
H006;52;Mannelijk;Rechts;0;6;left;no;150;leftarrow;468;true;focus;yes;118968;Chrome;112.0;Windows;10;undefined;undefined;1024 x 768;1024 x 768
H006;52;Mannelijk;Rechts;0;7;left;yes;150;leftarrow;471;false;focus;yes;120970;Chrome;112.0;Windows;10;undefined;undefined;1024 x 768;1024 x 768
H006;52;Mannelijk;Rechts;0;8;right;no;100;rightarrow;468;true;focus;yes;122967;Chrome;112.0;Windows;10;undefined;undefined;1024 x 768;1024 x 768
H006;52;Mannelijk;Rechts;1;1;left;yes;100;leftarrow;469;false;focus;yes;145141;Chrome;112.0;Windows;10;undefined;undefined;1024 x 768;1024 x 768
H006;52;Mannelijk;Rechts;1;2;right;no;50;rightarrow;419;true;focus;yes;146361;Chrome;112.0;Windows;10;undefined;undefined;1024 x 768;1024 x 768
H006;52;Mannelijk;Rechts;1;3;left;no;50;leftarrow;412;true;focus;yes;147552;Chrome;112.0;Windows;10;undefined;undefined;1024 x 768;1024 x 768
H006;52;Mannelijk;Rechts;1;4;right;no;50;rightarrow;406;true;focus;yes;148729;Chrome;112.0;Windows;10;undefined;undefined;1024 x 768;1024 x 768
H006;52;Mannelijk;Rechts;1;5;right;no;50;rightarrow;459;true;focus;yes;149969;Chrome;112.0;Windows;10;undefined;undefined;1024 x 768;1024 x 768
H006;52;Mannelijk;Rechts;1;6;left;no;50;leftarrow;401;true;focus;yes;151136;Chrome;112.0;Windows;10;undefined;undefined;1024 x 768;1024 x 768
H006;52;Mannelijk;Rechts;1;7;right;yes;50;leftarrow;541;false;focus;yes;152453;Chrome;112.0;Windows;10;undefined;undefined;1024 x 768;1024 x 768
H006;52;Mannelijk;Rechts;1;8;left;no;50;leftarrow;449;true;focus;yes;153683;Chrome;112.0;Windows;10;undefined;undefined;1024 x 768;1024 x 768
H006;52;Mannelijk;Rechts;1;9;right;no;50;rightarrow;438;true;focus;yes;154913;Chrome;112.0;Windows;10;undefined;undefined;1024 x 768;1024 x 768
H006;52;Mannelijk;Rechts;1;10;right;no;50;rightarrow;447;true;focus;yes;156134;Chrome;112.0;Windows;10;undefined;undefined;1024 x 768;1024 x 768
H006;52;Mannelijk;Rechts;1;11;right;yes;50;rightarrow;406;false;focus;yes;157327;Chrome;112.0;Windows;10;undefined;undefined;1024 x 768;1024 x 768
H006;52;Mannelijk;Rechts;1;12;left;no;50;leftarrow;411;true;focus;yes;158515;Chrome;112.0;Windows;10;undefined;undefined;1024 x 768;1024 x 768
H006;52;Mannelijk;Rechts;1;13;left;yes;50;leftarrow;437;false;focus;yes;159733;Chrome;112.0;Windows;10;undefined;undefined;1024 x 768;1024 x 768
H006;52;Mannelijk;Rechts;1;14;left;no;50;leftarrow;404;true;focus;yes;160921;Chrome;112.0;Windows;10;undefined;undefined;1024 x 768;1024 x 768
H006;52;Mannelijk;Rechts;1;15;right;no;50;leftarrow;384;false;focus;yes;162071;Chrome;112.0;Windows;10;undefined;undefined;1024 x 768;1024 x 768
H006;52;Mannelijk;Rechts;1;16;left;no;50;leftarrow;422;true;focus;yes;163250;Chrome;112.0;Windows;10;undefined;undefined;1024 x 768;1024 x 768
H006;52;Mannelijk;Rechts;1;17;left;no;50;leftarrow;405;true;focus;yes;164452;Chrome;112.0;Windows;10;undefined;undefined;1024 x 768;1024 x 768
H006;52;Mannelijk;Rechts;1;18;right;no;50;rightarrow;450;true;focus;yes;165689;Chrome;112.0;Windows;10;undefined;undefined;1024 x 768;1024 x 768
H006;52;Mannelijk;Rechts;1;19;left;no;50;leftarrow;446;true;focus;yes;166921;Chrome;112.0;Windows;10;undefined;undefined;1024 x 768;1024 x 768
H006;52;Mannelijk;Rechts;1;20;right;no;50;rightarrow;430;true;focus;yes;168118;Chrome;112.0;Windows;10;undefined;undefined;1024 x 768;1024 x 768
H006;52;Mannelijk;Rechts;1;21;left;no;50;leftarrow;454;true;focus;yes;169359;Chrome;112.0;Windows;10;undefined;undefined;1024 x 768;1024 x 768
H006;52;Mannelijk;Rechts;1;22;right;yes;50;rightarrow;484;false;focus;yes;170608;Chrome;112.0;Windows;10;undefined;undefined;1024 x 768;1024 x 768
H006;52;Mannelijk;Rechts;1;23;left;yes;50;leftarrow;508;false;focus;yes;171913;Chrome;112.0;Windows;10;undefined;undefined;1024 x 768;1024 x 768
H006;52;Mannelijk;Rechts;1;24;right;no;50;rightarrow;368;true;focus;yes;173056;Chrome;112.0;Windows;10;undefined;undefined;1024 x 768;1024 x 768
H006;52;Mannelijk;Rechts;1;25;left;no;50;leftarrow;469;true;focus;yes;174296;Chrome;112.0;Windows;10;undefined;undefined;1024 x 768;1024 x 768
H006;52;Mannelijk;Rechts;1;26;right;no;50;rightarrow;391;true;focus;yes;175465;Chrome;112.0;Windows;10;undefined;undefined;1024 x 768;1024 x 768
H006;52;Mannelijk;Rechts;1;27;left;yes;50;leftarrow;328;false;focus;yes;176562;Chrome;112.0;Windows;10;undefined;undefined;1024 x 768;1024 x 768
H006;52;Mannelijk;Rechts;1;28;left;no;50;rightarrow;281;false;focus;yes;177633;Chrome;112.0;Windows;10;undefined;undefined;1024 x 768;1024 x 768
H006;52;Mannelijk;Rechts;1;29;right;no;50;rightarrow;457;true;focus;yes;178849;Chrome;112.0;Windows;10;undefined;undefined;1024 x 768;1024 x 768
H006;52;Mannelijk;Rechts;1;30;right;no;50;rightarrow;454;true;focus;yes;180081;Chrome;112.0;Windows;10;undefined;undefined;1024 x 768;1024 x 768
H006;52;Mannelijk;Rechts;1;31;left;no;50;leftarrow;453;true;focus;yes;181298;Chrome;112.0;Windows;10;undefined;undefined;1024 x 768;1024 x 768
H006;52;Mannelijk;Rechts;1;32;right;yes;50;rightarrow;426;false;focus;yes;182503;Chrome;112.0;Windows;10;undefined;undefined;1024 x 768;1024 x 768
H006;52;Mannelijk;Rechts;1;33;right;no;50;rightarrow;391;true;focus;yes;183671;Chrome;112.0;Windows;10;undefined;undefined;1024 x 768;1024 x 768
H006;52;Mannelijk;Rechts;1;34;left;no;50;leftarrow;446;true;focus;yes;184883;Chrome;112.0;Windows;10;undefined;undefined;1024 x 768;1024 x 768
H006;52;Mannelijk;Rechts;1;35;left;yes;50;leftarrow;436;false;focus;yes;186093;Chrome;112.0;Windows;10;undefined;undefined;1024 x 768;1024 x 768
H006;52;Mannelijk;Rechts;1;36;right;no;50;rightarrow;510;true;focus;yes;187369;Chrome;112.0;Windows;10;undefined;undefined;1024 x 768;1024 x 768
H006;52;Mannelijk;Rechts;1;37;right;yes;50;rightarrow;404;false;focus;yes;188546;Chrome;112.0;Windows;10;undefined;undefined;1024 x 768;1024 x 768
H006;52;Mannelijk;Rechts;1;38;left;no;50;leftarrow;423;true;focus;yes;189751;Chrome;112.0;Windows;10;undefined;undefined;1024 x 768;1024 x 768
H006;52;Mannelijk;Rechts;1;39;left;no;50;leftarrow;361;true;focus;yes;190891;Chrome;112.0;Windows;10;undefined;undefined;1024 x 768;1024 x 768
H006;52;Mannelijk;Rechts;1;40;right;no;50;rightarrow;446;true;focus;yes;192113;Chrome;112.0;Windows;10;undefined;undefined;1024 x 768;1024 x 768
H006;52;Mannelijk;Rechts;1;41;right;yes;50;rightarrow;512;false;focus;yes;193389;Chrome;112.0;Windows;10;undefined;undefined;1024 x 768;1024 x 768
H006;52;Mannelijk;Rechts;1;42;left;yes;50;leftarrow;405;false;focus;yes;194585;Chrome;112.0;Windows;10;undefined;undefined;1024 x 768;1024 x 768
H006;52;Mannelijk;Rechts;1;43;left;no;50;leftarrow;389;true;focus;yes;195733;Chrome;112.0;Windows;10;undefined;undefined;1024 x 768;1024 x 768
H006;52;Mannelijk;Rechts;1;44;right;no;50;rightarrow;510;true;focus;yes;197023;Chrome;112.0;Windows;10;undefined;undefined;1024 x 768;1024 x 768
H006;52;Mannelijk;Rechts;1;45;left;no;50;leftarrow;389;true;focus;yes;198201;Chrome;112.0;Windows;10;undefined;undefined;1024 x 768;1024 x 768
H006;52;Mannelijk;Rechts;1;46;left;no;50;leftarrow;359;true;focus;yes;199327;Chrome;112.0;Windows;10;undefined;undefined;1024 x 768;1024 x 768
H006;52;Mannelijk;Rechts;1;47;right;no;50;leftarrow;315;false;focus;yes;200424;Chrome;112.0;Windows;10;undefined;undefined;1024 x 768;1024 x 768
H006;52;Mannelijk;Rechts;1;48;right;no;50;rightarrow;431;true;focus;yes;201627;Chrome;112.0;Windows;10;undefined;undefined;1024 x 768;1024 x 768
H006;52;Mannelijk;Rechts;1;49;right;yes;50;rightarrow;336;false;focus;yes;202761;Chrome;112.0;Windows;10;undefined;undefined;1024 x 768;1024 x 768
H006;52;Mannelijk;Rechts;1;50;right;no;50;rightarrow;391;true;focus;yes;203921;Chrome;112.0;Windows;10;undefined;undefined;1024 x 768;1024 x 768
H006;52;Mannelijk;Rechts;1;51;left;no;50;rightarrow;374;false;focus;yes;205081;Chrome;112.0;Windows;10;undefined;undefined;1024 x 768;1024 x 768
H006;52;Mannelijk;Rechts;1;52;left;no;50;leftarrow;545;true;focus;yes;206405;Chrome;112.0;Windows;10;undefined;undefined;1024 x 768;1024 x 768
H006;52;Mannelijk;Rechts;1;53;right;no;50;rightarrow;509;true;focus;yes;207705;Chrome;112.0;Windows;10;undefined;undefined;1024 x 768;1024 x 768
H006;52;Mannelijk;Rechts;1;54;left;yes;50;leftarrow;419;false;focus;yes;208897;Chrome;112.0;Windows;10;undefined;undefined;1024 x 768;1024 x 768
H006;52;Mannelijk;Rechts;1;55;left;no;50;leftarrow;388;true;focus;yes;210061;Chrome;112.0;Windows;10;undefined;undefined;1024 x 768;1024 x 768
H006;52;Mannelijk;Rechts;1;56;right;no;50;leftarrow;389;false;focus;yes;211249;Chrome;112.0;Windows;10;undefined;undefined;1024 x 768;1024 x 768
H006;52;Mannelijk;Rechts;1;57;left;no;50;leftarrow;453;true;focus;yes;212483;Chrome;112.0;Windows;10;undefined;undefined;1024 x 768;1024 x 768
H006;52;Mannelijk;Rechts;1;58;left;no;50;leftarrow;407;true;focus;yes;213671;Chrome;112.0;Windows;10;undefined;undefined;1024 x 768;1024 x 768
H006;52;Mannelijk;Rechts;1;59;right;yes;50;rightarrow;468;false;focus;yes;214921;Chrome;112.0;Windows;10;undefined;undefined;1024 x 768;1024 x 768
H006;52;Mannelijk;Rechts;1;60;right;no;50;rightarrow;430;true;focus;yes;216121;Chrome;112.0;Windows;10;undefined;undefined;1024 x 768;1024 x 768
H006;52;Mannelijk;Rechts;1;61;left;yes;50;leftarrow;446;false;focus;yes;217337;Chrome;112.0;Windows;10;undefined;undefined;1024 x 768;1024 x 768
H006;52;Mannelijk;Rechts;1;62;right;no;50;rightarrow;437;true;focus;yes;218546;Chrome;112.0;Windows;10;undefined;undefined;1024 x 768;1024 x 768
H006;52;Mannelijk;Rechts;1;63;right;no;50;rightarrow;421;true;focus;yes;219765;Chrome;112.0;Windows;10;undefined;undefined;1024 x 768;1024 x 768
H006;52;Mannelijk;Rechts;1;64;left;no;50;leftarrow;468;true;focus;yes;221009;Chrome;112.0;Windows;10;undefined;undefined;1024 x 768;1024 x 768
H006;52;Mannelijk;Rechts;1;65;right;yes;50;rightarrow;473;false;focus;yes;222255;Chrome;112.0;Windows;10;undefined;undefined;1024 x 768;1024 x 768
H006;52;Mannelijk;Rechts;1;66;left;no;50;leftarrow;405;true;focus;yes;223436;Chrome;112.0;Windows;10;undefined;undefined;1024 x 768;1024 x 768
H006;52;Mannelijk;Rechts;1;67;right;no;50;rightarrow;344;true;focus;yes;224562;Chrome;112.0;Windows;10;undefined;undefined;1024 x 768;1024 x 768
H006;52;Mannelijk;Rechts;1;68;left;yes;50;leftarrow;373;false;focus;yes;225721;Chrome;112.0;Windows;10;undefined;undefined;1024 x 768;1024 x 768
H006;52;Mannelijk;Rechts;1;69;left;no;50;leftarrow;359;true;focus;yes;226865;Chrome;112.0;Windows;10;undefined;undefined;1024 x 768;1024 x 768
H006;52;Mannelijk;Rechts;1;70;right;no;50;rightarrow;412;true;focus;yes;228052;Chrome;112.0;Windows;10;undefined;undefined;1024 x 768;1024 x 768
H006;52;Mannelijk;Rechts;1;71;right;no;50;rightarrow;468;true;focus;yes;229313;Chrome;112.0;Windows;10;undefined;undefined;1024 x 768;1024 x 768
H006;52;Mannelijk;Rechts;1;72;left;no;50;leftarrow;435;true;focus;yes;230530;Chrome;112.0;Windows;10;undefined;undefined;1024 x 768;1024 x 768
H006;52;Mannelijk;Rechts;1;73;right;no;50;rightarrow;423;true;focus;yes;231738;Chrome;112.0;Windows;10;undefined;undefined;1024 x 768;1024 x 768
H006;52;Mannelijk;Rechts;1;74;right;no;50;rightarrow;392;true;focus;yes;232905;Chrome;112.0;Windows;10;undefined;undefined;1024 x 768;1024 x 768
H006;52;Mannelijk;Rechts;1;75;left;yes;50;leftarrow;433;false;focus;yes;234120;Chrome;112.0;Windows;10;undefined;undefined;1024 x 768;1024 x 768
H006;52;Mannelijk;Rechts;1;76;left;no;50;leftarrow;395;true;focus;yes;235297;Chrome;112.0;Windows;10;undefined;undefined;1024 x 768;1024 x 768
H006;52;Mannelijk;Rechts;1;77;right;no;50;rightarrow;406;true;focus;yes;236489;Chrome;112.0;Windows;10;undefined;undefined;1024 x 768;1024 x 768
H006;52;Mannelijk;Rechts;1;78;left;no;50;leftarrow;470;true;focus;yes;237720;Chrome;112.0;Windows;10;undefined;undefined;1024 x 768;1024 x 768
H006;52;Mannelijk;Rechts;1;79;right;yes;50;rightarrow;359;false;focus;yes;238858;Chrome;112.0;Windows;10;undefined;undefined;1024 x 768;1024 x 768
H006;52;Mannelijk;Rechts;1;80;left;no;50;leftarrow;410;true;focus;yes;240065;Chrome;112.0;Windows;10;undefined;undefined;1024 x 768;1024 x 768
H006;52;Mannelijk;Rechts;1;81;left;no;50;leftarrow;404;true;focus;yes;241257;Chrome;112.0;Windows;10;undefined;undefined;1024 x 768;1024 x 768
H006;52;Mannelijk;Rechts;1;82;left;no;50;leftarrow;358;true;focus;yes;242385;Chrome;112.0;Windows;10;undefined;undefined;1024 x 768;1024 x 768
H006;52;Mannelijk;Rechts;1;83;right;no;50;rightarrow;592;true;focus;yes;243761;Chrome;112.0;Windows;10;undefined;undefined;1024 x 768;1024 x 768
H006;52;Mannelijk;Rechts;1;84;left;yes;50;leftarrow;420;false;focus;yes;244952;Chrome;112.0;Windows;10;undefined;undefined;1024 x 768;1024 x 768
H006;52;Mannelijk;Rechts;1;85;right;no;50;rightarrow;421;true;focus;yes;246140;Chrome;112.0;Windows;10;undefined;undefined;1024 x 768;1024 x 768
H006;52;Mannelijk;Rechts;1;86;right;no;50;rightarrow;427;true;focus;yes;247353;Chrome;112.0;Windows;10;undefined;undefined;1024 x 768;1024 x 768
H006;52;Mannelijk;Rechts;1;87;left;no;50;leftarrow;393;true;focus;yes;248513;Chrome;112.0;Windows;10;undefined;undefined;1024 x 768;1024 x 768
H006;52;Mannelijk;Rechts;1;88;right;yes;50;rightarrow;360;false;focus;yes;249642;Chrome;112.0;Windows;10;undefined;undefined;1024 x 768;1024 x 768
H006;52;Mannelijk;Rechts;1;89;left;no;50;leftarrow;406;true;focus;yes;250830;Chrome;112.0;Windows;10;undefined;undefined;1024 x 768;1024 x 768
H006;52;Mannelijk;Rechts;1;90;left;no;50;leftarrow;422;true;focus;yes;252017;Chrome;112.0;Windows;10;undefined;undefined;1024 x 768;1024 x 768
H006;52;Mannelijk;Rechts;1;91;right;yes;50;rightarrow;373;false;focus;yes;253186;Chrome;112.0;Windows;10;undefined;undefined;1024 x 768;1024 x 768
H006;52;Mannelijk;Rechts;1;92;left;yes;50;leftarrow;375;false;focus;yes;254327;Chrome;112.0;Windows;10;undefined;undefined;1024 x 768;1024 x 768
H006;52;Mannelijk;Rechts;1;93;left;no;50;leftarrow;483;true;focus;yes;255593;Chrome;112.0;Windows;10;undefined;undefined;1024 x 768;1024 x 768
H006;52;Mannelijk;Rechts;1;94;right;no;50;rightarrow;453;true;focus;yes;256827;Chrome;112.0;Windows;10;undefined;undefined;1024 x 768;1024 x 768
H006;52;Mannelijk;Rechts;1;95;right;no;50;rightarrow;359;true;focus;yes;257970;Chrome;112.0;Windows;10;undefined;undefined;1024 x 768;1024 x 768
H006;52;Mannelijk;Rechts;1;96;right;no;50;rightarrow;406;true;focus;yes;259169;Chrome;112.0;Windows;10;undefined;undefined;1024 x 768;1024 x 768
H006;52;Mannelijk;Rechts;1;97;left;no;50;rightarrow;399;false;focus;yes;260337;Chrome;112.0;Windows;10;undefined;undefined;1024 x 768;1024 x 768
H006;52;Mannelijk;Rechts;1;98;right;yes;50;rightarrow;466;false;focus;yes;261592;Chrome;112.0;Windows;10;undefined;undefined;1024 x 768;1024 x 768
H006;52;Mannelijk;Rechts;1;99;right;no;50;rightarrow;390;true;focus;yes;262764;Chrome;112.0;Windows;10;undefined;undefined;1024 x 768;1024 x 768
H006;52;Mannelijk;Rechts;1;100;right;no;50;rightarrow;358;true;focus;yes;263913;Chrome;112.0;Windows;10;undefined;undefined;1024 x 768;1024 x 768
H006;52;Mannelijk;Rechts;1;101;left;no;50;leftarrow;389;true;focus;yes;265081;Chrome;112.0;Windows;10;undefined;undefined;1024 x 768;1024 x 768
H006;52;Mannelijk;Rechts;1;102;left;no;50;leftarrow;390;true;focus;yes;266265;Chrome;112.0;Windows;10;undefined;undefined;1024 x 768;1024 x 768
H006;52;Mannelijk;Rechts;1;103;left;yes;50;leftarrow;561;false;focus;yes;267617;Chrome;112.0;Windows;10;undefined;undefined;1024 x 768;1024 x 768
H006;52;Mannelijk;Rechts;1;104;right;no;50;rightarrow;435;true;focus;yes;268814;Chrome;112.0;Windows;10;undefined;undefined;1024 x 768;1024 x 768
H006;52;Mannelijk;Rechts;1;105;left;no;50;leftarrow;467;true;focus;yes;270065;Chrome;112.0;Windows;10;undefined;undefined;1024 x 768;1024 x 768
H006;52;Mannelijk;Rechts;1;106;right;no;50;rightarrow;484;true;focus;yes;271328;Chrome;112.0;Windows;10;undefined;undefined;1024 x 768;1024 x 768
H006;52;Mannelijk;Rechts;1;107;right;no;50;rightarrow;436;true;focus;yes;272531;Chrome;112.0;Windows;10;undefined;undefined;1024 x 768;1024 x 768
H006;52;Mannelijk;Rechts;1;108;left;yes;50;leftarrow;421;false;focus;yes;273745;Chrome;112.0;Windows;10;undefined;undefined;1024 x 768;1024 x 768
H006;52;Mannelijk;Rechts;1;109;left;no;50;leftarrow;390;true;focus;yes;274921;Chrome;112.0;Windows;10;undefined;undefined;1024 x 768;1024 x 768
H006;52;Mannelijk;Rechts;1;110;right;yes;50;leftarrow;371;false;focus;yes;276073;Chrome;112.0;Windows;10;undefined;undefined;1024 x 768;1024 x 768
H006;52;Mannelijk;Rechts;1;111;right;no;50;rightarrow;571;true;focus;yes;277417;Chrome;112.0;Windows;10;undefined;undefined;1024 x 768;1024 x 768
H006;52;Mannelijk;Rechts;1;112;left;no;50;leftarrow;419;true;focus;yes;278592;Chrome;112.0;Windows;10;undefined;undefined;1024 x 768;1024 x 768
H006;52;Mannelijk;Rechts;1;113;right;no;50;rightarrow;467;true;focus;yes;279833;Chrome;112.0;Windows;10;undefined;undefined;1024 x 768;1024 x 768
H006;52;Mannelijk;Rechts;1;114;left;no;50;leftarrow;405;true;focus;yes;281017;Chrome;112.0;Windows;10;undefined;undefined;1024 x 768;1024 x 768
H006;52;Mannelijk;Rechts;1;115;right;no;50;leftarrow;468;false;focus;yes;282257;Chrome;112.0;Windows;10;undefined;undefined;1024 x 768;1024 x 768
H006;52;Mannelijk;Rechts;1;116;left;no;50;leftarrow;437;true;focus;yes;283465;Chrome;112.0;Windows;10;undefined;undefined;1024 x 768;1024 x 768
H006;52;Mannelijk;Rechts;1;117;right;yes;50;rightarrow;529;false;focus;yes;284749;Chrome;112.0;Windows;10;undefined;undefined;1024 x 768;1024 x 768
H006;52;Mannelijk;Rechts;1;118;left;no;50;leftarrow;452;true;focus;yes;285985;Chrome;112.0;Windows;10;undefined;undefined;1024 x 768;1024 x 768
H006;52;Mannelijk;Rechts;1;119;right;no;50;rightarrow;487;true;focus;yes;287249;Chrome;112.0;Windows;10;undefined;undefined;1024 x 768;1024 x 768
H006;52;Mannelijk;Rechts;1;120;left;yes;50;leftarrow;451;false;focus;yes;288467;Chrome;112.0;Windows;10;undefined;undefined;1024 x 768;1024 x 768
H006;52;Mannelijk;Rechts;1;121;left;no;50;leftarrow;400;true;focus;yes;289647;Chrome;112.0;Windows;10;undefined;undefined;1024 x 768;1024 x 768
H006;52;Mannelijk;Rechts;1;122;left;no;50;leftarrow;373;true;focus;yes;290796;Chrome;112.0;Windows;10;undefined;undefined;1024 x 768;1024 x 768
H006;52;Mannelijk;Rechts;1;123;left;yes;50;leftarrow;419;false;focus;yes;292001;Chrome;112.0;Windows;10;undefined;undefined;1024 x 768;1024 x 768
H006;52;Mannelijk;Rechts;1;124;right;no;50;leftarrow;374;false;focus;yes;293155;Chrome;112.0;Windows;10;undefined;undefined;1024 x 768;1024 x 768
H006;52;Mannelijk;Rechts;1;125;right;no;50;rightarrow;592;true;focus;yes;294529;Chrome;112.0;Windows;10;undefined;undefined;1024 x 768;1024 x 768
H006;52;Mannelijk;Rechts;1;126;right;no;50;rightarrow;405;true;focus;yes;295705;Chrome;112.0;Windows;10;undefined;undefined;1024 x 768;1024 x 768
H006;52;Mannelijk;Rechts;1;127;left;no;50;leftarrow;437;true;focus;yes;296909;Chrome;112.0;Windows;10;undefined;undefined;1024 x 768;1024 x 768
H006;52;Mannelijk;Rechts;1;128;right;yes;50;rightarrow;500;false;focus;yes;298190;Chrome;112.0;Windows;10;undefined;undefined;1024 x 768;1024 x 768
H006;52;Mannelijk;Rechts;2;1;left;yes;50;undefined;null;true;focus;yes;320216;Chrome;112.0;Windows;10;undefined;undefined;1024 x 768;1024 x 768
H006;52;Mannelijk;Rechts;2;2;left;no;100;leftarrow;494;true;focus;yes;321482;Chrome;112.0;Windows;10;undefined;undefined;1024 x 768;1024 x 768
H006;52;Mannelijk;Rechts;2;3;left;no;100;leftarrow;423;true;focus;yes;322682;Chrome;112.0;Windows;10;undefined;undefined;1024 x 768;1024 x 768
H006;52;Mannelijk;Rechts;2;4;left;no;100;leftarrow;504;true;focus;yes;323962;Chrome;112.0;Windows;10;undefined;undefined;1024 x 768;1024 x 768
H006;52;Mannelijk;Rechts;2;5;right;no;100;rightarrow;499;true;focus;yes;325238;Chrome;112.0;Windows;10;undefined;undefined;1024 x 768;1024 x 768
H006;52;Mannelijk;Rechts;2;6;right;yes;100;rightarrow;411;false;focus;yes;326425;Chrome;112.0;Windows;10;undefined;undefined;1024 x 768;1024 x 768
H006;52;Mannelijk;Rechts;2;7;right;no;50;rightarrow;669;true;focus;yes;327874;Chrome;112.0;Windows;10;undefined;undefined;1024 x 768;1024 x 768
H006;52;Mannelijk;Rechts;2;8;right;no;50;rightarrow;413;true;focus;yes;329050;Chrome;112.0;Windows;10;undefined;undefined;1024 x 768;1024 x 768
H006;52;Mannelijk;Rechts;2;9;left;no;50;rightarrow;469;false;focus;yes;330299;Chrome;112.0;Windows;10;undefined;undefined;1024 x 768;1024 x 768
H006;52;Mannelijk;Rechts;2;10;left;no;50;leftarrow;440;true;focus;yes;331530;Chrome;112.0;Windows;10;undefined;undefined;1024 x 768;1024 x 768
H006;52;Mannelijk;Rechts;2;11;right;no;50;rightarrow;579;true;focus;yes;332877;Chrome;112.0;Windows;10;undefined;undefined;1024 x 768;1024 x 768
H006;52;Mannelijk;Rechts;2;12;left;yes;50;undefined;null;true;focus;yes;334918;Chrome;112.0;Windows;10;undefined;undefined;1024 x 768;1024 x 768
H006;52;Mannelijk;Rechts;2;13;right;no;100;rightarrow;469;true;focus;yes;336158;Chrome;112.0;Windows;10;undefined;undefined;1024 x 768;1024 x 768
H006;52;Mannelijk;Rechts;2;14;left;no;100;leftarrow;470;true;focus;yes;337409;Chrome;112.0;Windows;10;undefined;undefined;1024 x 768;1024 x 768
H006;52;Mannelijk;Rechts;2;15;right;no;100;rightarrow;484;true;focus;yes;338690;Chrome;112.0;Windows;10;undefined;undefined;1024 x 768;1024 x 768
H006;52;Mannelijk;Rechts;2;16;right;yes;100;rightarrow;413;false;focus;yes;339890;Chrome;112.0;Windows;10;undefined;undefined;1024 x 768;1024 x 768
H006;52;Mannelijk;Rechts;2;17;left;no;50;leftarrow;455;true;focus;yes;341112;Chrome;112.0;Windows;10;undefined;undefined;1024 x 768;1024 x 768
H006;52;Mannelijk;Rechts;2;18;left;no;50;leftarrow;440;true;focus;yes;342332;Chrome;112.0;Windows;10;undefined;undefined;1024 x 768;1024 x 768
H006;52;Mannelijk;Rechts;2;19;left;no;50;leftarrow;408;true;focus;yes;343522;Chrome;112.0;Windows;10;undefined;undefined;1024 x 768;1024 x 768
H006;52;Mannelijk;Rechts;2;20;left;yes;50;undefined;null;true;focus;yes;345547;Chrome;112.0;Windows;10;undefined;undefined;1024 x 768;1024 x 768
H006;52;Mannelijk;Rechts;2;21;right;no;100;rightarrow;517;true;focus;yes;346831;Chrome;112.0;Windows;10;undefined;undefined;1024 x 768;1024 x 768
H006;52;Mannelijk;Rechts;2;22;right;yes;100;rightarrow;407;false;focus;yes;348019;Chrome;112.0;Windows;10;undefined;undefined;1024 x 768;1024 x 768
H006;52;Mannelijk;Rechts;2;23;right;no;50;rightarrow;614;true;focus;yes;349411;Chrome;112.0;Windows;10;undefined;undefined;1024 x 768;1024 x 768
H006;52;Mannelijk;Rechts;2;24;right;no;50;rightarrow;455;true;focus;yes;350644;Chrome;112.0;Windows;10;undefined;undefined;1024 x 768;1024 x 768
H006;52;Mannelijk;Rechts;2;25;right;no;50;rightarrow;423;true;focus;yes;351862;Chrome;112.0;Windows;10;undefined;undefined;1024 x 768;1024 x 768
H006;52;Mannelijk;Rechts;2;26;left;no;50;leftarrow;565;true;focus;yes;353208;Chrome;112.0;Windows;10;undefined;undefined;1024 x 768;1024 x 768
H006;52;Mannelijk;Rechts;2;27;left;no;50;leftarrow;477;true;focus;yes;354458;Chrome;112.0;Windows;10;undefined;undefined;1024 x 768;1024 x 768
H006;52;Mannelijk;Rechts;2;28;right;no;50;rightarrow;611;true;focus;yes;355842;Chrome;112.0;Windows;10;undefined;undefined;1024 x 768;1024 x 768
H006;52;Mannelijk;Rechts;2;29;right;no;50;rightarrow;564;true;focus;yes;357178;Chrome;112.0;Windows;10;undefined;undefined;1024 x 768;1024 x 768
H006;52;Mannelijk;Rechts;2;30;left;yes;50;undefined;null;true;focus;yes;359206;Chrome;112.0;Windows;10;undefined;undefined;1024 x 768;1024 x 768
H006;52;Mannelijk;Rechts;2;31;right;yes;100;rightarrow;407;false;focus;yes;360378;Chrome;112.0;Windows;10;undefined;undefined;1024 x 768;1024 x 768
H006;52;Mannelijk;Rechts;2;32;left;no;50;leftarrow;362;true;focus;yes;361519;Chrome;112.0;Windows;10;undefined;undefined;1024 x 768;1024 x 768
H006;52;Mannelijk;Rechts;2;33;right;no;50;rightarrow;454;true;focus;yes;362753;Chrome;112.0;Windows;10;undefined;undefined;1024 x 768;1024 x 768
H006;52;Mannelijk;Rechts;2;34;left;no;50;leftarrow;439;true;focus;yes;363986;Chrome;112.0;Windows;10;undefined;undefined;1024 x 768;1024 x 768
H006;52;Mannelijk;Rechts;2;35;left;no;50;leftarrow;408;true;focus;yes;365159;Chrome;112.0;Windows;10;undefined;undefined;1024 x 768;1024 x 768
H006;52;Mannelijk;Rechts;2;36;right;no;50;rightarrow;584;true;focus;yes;366513;Chrome;112.0;Windows;10;undefined;undefined;1024 x 768;1024 x 768
H006;52;Mannelijk;Rechts;2;37;right;yes;50;undefined;null;true;focus;yes;368536;Chrome;112.0;Windows;10;undefined;undefined;1024 x 768;1024 x 768
H006;52;Mannelijk;Rechts;2;38;left;no;100;leftarrow;454;true;focus;yes;369768;Chrome;112.0;Windows;10;undefined;undefined;1024 x 768;1024 x 768
H006;52;Mannelijk;Rechts;2;39;left;yes;100;undefined;null;true;focus;yes;371803;Chrome;112.0;Windows;10;undefined;undefined;1024 x 768;1024 x 768
H006;52;Mannelijk;Rechts;2;40;right;no;150;rightarrow;392;true;focus;yes;372972;Chrome;112.0;Windows;10;undefined;undefined;1024 x 768;1024 x 768
H006;52;Mannelijk;Rechts;2;41;right;yes;150;rightarrow;471;false;focus;yes;374222;Chrome;112.0;Windows;10;undefined;undefined;1024 x 768;1024 x 768
H006;52;Mannelijk;Rechts;2;42;right;no;100;rightarrow;642;true;focus;yes;375643;Chrome;112.0;Windows;10;undefined;undefined;1024 x 768;1024 x 768
H006;52;Mannelijk;Rechts;2;43;right;no;100;rightarrow;448;true;focus;yes;376862;Chrome;112.0;Windows;10;undefined;undefined;1024 x 768;1024 x 768
H006;52;Mannelijk;Rechts;2;44;left;no;100;leftarrow;516;true;focus;yes;378170;Chrome;112.0;Windows;10;undefined;undefined;1024 x 768;1024 x 768
H006;52;Mannelijk;Rechts;2;45;left;no;100;leftarrow;407;true;focus;yes;379354;Chrome;112.0;Windows;10;undefined;undefined;1024 x 768;1024 x 768
H006;52;Mannelijk;Rechts;2;46;right;no;100;rightarrow;596;true;focus;yes;380722;Chrome;112.0;Windows;10;undefined;undefined;1024 x 768;1024 x 768
H006;52;Mannelijk;Rechts;2;47;left;no;100;rightarrow;387;false;focus;yes;381888;Chrome;112.0;Windows;10;undefined;undefined;1024 x 768;1024 x 768
H006;52;Mannelijk;Rechts;2;48;left;yes;100;undefined;null;true;focus;yes;383926;Chrome;112.0;Windows;10;undefined;undefined;1024 x 768;1024 x 768
H006;52;Mannelijk;Rechts;2;49;left;no;150;leftarrow;524;true;focus;yes;385228;Chrome;112.0;Windows;10;undefined;undefined;1024 x 768;1024 x 768
H006;52;Mannelijk;Rechts;2;50;right;no;150;rightarrow;472;true;focus;yes;386498;Chrome;112.0;Windows;10;undefined;undefined;1024 x 768;1024 x 768
H006;52;Mannelijk;Rechts;2;51;left;no;150;leftarrow;472;true;focus;yes;387736;Chrome;112.0;Windows;10;undefined;undefined;1024 x 768;1024 x 768
H006;52;Mannelijk;Rechts;2;52;right;no;150;rightarrow;442;true;focus;yes;388962;Chrome;112.0;Windows;10;undefined;undefined;1024 x 768;1024 x 768
H006;52;Mannelijk;Rechts;2;53;left;yes;150;leftarrow;468;false;focus;yes;390210;Chrome;112.0;Windows;10;undefined;undefined;1024 x 768;1024 x 768
H006;52;Mannelijk;Rechts;2;54;right;yes;100;undefined;null;true;focus;yes;392247;Chrome;112.0;Windows;10;undefined;undefined;1024 x 768;1024 x 768
H006;52;Mannelijk;Rechts;2;55;left;no;150;leftarrow;519;true;focus;yes;393533;Chrome;112.0;Windows;10;undefined;undefined;1024 x 768;1024 x 768
H006;52;Mannelijk;Rechts;2;56;right;no;150;rightarrow;575;true;focus;yes;394898;Chrome;112.0;Windows;10;undefined;undefined;1024 x 768;1024 x 768
H006;52;Mannelijk;Rechts;2;57;left;yes;150;undefined;null;true;focus;yes;396928;Chrome;112.0;Windows;10;undefined;undefined;1024 x 768;1024 x 768
H006;52;Mannelijk;Rechts;2;58;right;no;200;rightarrow;462;true;focus;yes;398166;Chrome;112.0;Windows;10;undefined;undefined;1024 x 768;1024 x 768
H006;52;Mannelijk;Rechts;2;59;right;yes;200;undefined;null;true;focus;yes;400206;Chrome;112.0;Windows;10;undefined;undefined;1024 x 768;1024 x 768
H006;52;Mannelijk;Rechts;2;60;right;no;250;rightarrow;560;true;focus;yes;401549;Chrome;112.0;Windows;10;undefined;undefined;1024 x 768;1024 x 768
H006;52;Mannelijk;Rechts;2;61;left;no;250;leftarrow;488;true;focus;yes;402817;Chrome;112.0;Windows;10;undefined;undefined;1024 x 768;1024 x 768
H006;52;Mannelijk;Rechts;2;62;right;no;250;rightarrow;544;true;focus;yes;404128;Chrome;112.0;Windows;10;undefined;undefined;1024 x 768;1024 x 768
H006;52;Mannelijk;Rechts;2;63;left;no;250;leftarrow;423;true;focus;yes;405331;Chrome;112.0;Windows;10;undefined;undefined;1024 x 768;1024 x 768
H006;52;Mannelijk;Rechts;2;64;left;no;250;leftarrow;407;true;focus;yes;406530;Chrome;112.0;Windows;10;undefined;undefined;1024 x 768;1024 x 768
H006;52;Mannelijk;Rechts;2;65;left;no;250;leftarrow;408;true;focus;yes;407714;Chrome;112.0;Windows;10;undefined;undefined;1024 x 768;1024 x 768
H006;52;Mannelijk;Rechts;2;66;right;no;250;leftarrow;392;false;focus;yes;408878;Chrome;112.0;Windows;10;undefined;undefined;1024 x 768;1024 x 768
H006;52;Mannelijk;Rechts;2;67;right;no;250;rightarrow;605;true;focus;yes;410269;Chrome;112.0;Windows;10;undefined;undefined;1024 x 768;1024 x 768
H006;52;Mannelijk;Rechts;2;68;left;yes;250;undefined;null;true;focus;yes;412299;Chrome;112.0;Windows;10;undefined;undefined;1024 x 768;1024 x 768
H006;52;Mannelijk;Rechts;2;69;right;no;300;rightarrow;408;true;focus;yes;413489;Chrome;112.0;Windows;10;undefined;undefined;1024 x 768;1024 x 768
H006;52;Mannelijk;Rechts;2;70;left;no;300;leftarrow;438;true;focus;yes;414706;Chrome;112.0;Windows;10;undefined;undefined;1024 x 768;1024 x 768
H006;52;Mannelijk;Rechts;2;71;right;yes;300;rightarrow;438;false;focus;yes;415909;Chrome;112.0;Windows;10;undefined;undefined;1024 x 768;1024 x 768
H006;52;Mannelijk;Rechts;2;72;left;no;250;leftarrow;827;true;focus;yes;417517;Chrome;112.0;Windows;10;undefined;undefined;1024 x 768;1024 x 768
H006;52;Mannelijk;Rechts;2;73;left;yes;250;undefined;null;true;focus;yes;419559;Chrome;112.0;Windows;10;undefined;undefined;1024 x 768;1024 x 768
H006;52;Mannelijk;Rechts;2;74;right;no;300;rightarrow;501;true;focus;yes;420830;Chrome;112.0;Windows;10;undefined;undefined;1024 x 768;1024 x 768
H006;52;Mannelijk;Rechts;2;75;left;no;300;leftarrow;572;true;focus;yes;422183;Chrome;112.0;Windows;10;undefined;undefined;1024 x 768;1024 x 768
H006;52;Mannelijk;Rechts;2;76;left;no;300;leftarrow;462;true;focus;yes;423424;Chrome;112.0;Windows;10;undefined;undefined;1024 x 768;1024 x 768
H006;52;Mannelijk;Rechts;2;77;right;no;300;rightarrow;424;true;focus;yes;424627;Chrome;112.0;Windows;10;undefined;undefined;1024 x 768;1024 x 768
H006;52;Mannelijk;Rechts;2;78;left;no;300;leftarrow;495;true;focus;yes;425921;Chrome;112.0;Windows;10;undefined;undefined;1024 x 768;1024 x 768
H006;52;Mannelijk;Rechts;2;79;right;yes;300;undefined;null;true;focus;yes;427940;Chrome;112.0;Windows;10;undefined;undefined;1024 x 768;1024 x 768
H006;52;Mannelijk;Rechts;2;80;right;no;350;rightarrow;555;true;focus;yes;429268;Chrome;112.0;Windows;10;undefined;undefined;1024 x 768;1024 x 768
H006;52;Mannelijk;Rechts;2;81;right;no;350;rightarrow;472;true;focus;yes;430535;Chrome;112.0;Windows;10;undefined;undefined;1024 x 768;1024 x 768
H006;52;Mannelijk;Rechts;2;82;right;no;350;rightarrow;422;true;focus;yes;431746;Chrome;112.0;Windows;10;undefined;undefined;1024 x 768;1024 x 768
H006;52;Mannelijk;Rechts;2;83;left;yes;350;leftarrow;472;false;focus;yes;432988;Chrome;112.0;Windows;10;undefined;undefined;1024 x 768;1024 x 768
H006;52;Mannelijk;Rechts;2;84;right;no;300;rightarrow;579;true;focus;yes;434345;Chrome;112.0;Windows;10;undefined;undefined;1024 x 768;1024 x 768
H006;52;Mannelijk;Rechts;2;85;right;yes;300;rightarrow;408;false;focus;yes;435533;Chrome;112.0;Windows;10;undefined;undefined;1024 x 768;1024 x 768
H006;52;Mannelijk;Rechts;2;86;left;no;250;leftarrow;547;true;focus;yes;436861;Chrome;112.0;Windows;10;undefined;undefined;1024 x 768;1024 x 768
H006;52;Mannelijk;Rechts;2;87;left;no;250;leftarrow;876;true;focus;yes;438521;Chrome;112.0;Windows;10;undefined;undefined;1024 x 768;1024 x 768
H006;52;Mannelijk;Rechts;2;88;left;no;250;leftarrow;549;true;focus;yes;439846;Chrome;112.0;Windows;10;undefined;undefined;1024 x 768;1024 x 768
H006;52;Mannelijk;Rechts;2;89;right;no;250;rightarrow;610;true;focus;yes;441236;Chrome;112.0;Windows;10;undefined;undefined;1024 x 768;1024 x 768
H006;52;Mannelijk;Rechts;2;90;right;no;250;rightarrow;707;true;focus;yes;442720;Chrome;112.0;Windows;10;undefined;undefined;1024 x 768;1024 x 768
H006;52;Mannelijk;Rechts;2;91;right;yes;250;rightarrow;545;false;focus;yes;444048;Chrome;112.0;Windows;10;undefined;undefined;1024 x 768;1024 x 768
H006;52;Mannelijk;Rechts;2;92;right;no;200;rightarrow;626;true;focus;yes;445455;Chrome;112.0;Windows;10;undefined;undefined;1024 x 768;1024 x 768
H006;52;Mannelijk;Rechts;2;93;left;yes;200;leftarrow;499;false;focus;yes;446729;Chrome;112.0;Windows;10;undefined;undefined;1024 x 768;1024 x 768
H006;52;Mannelijk;Rechts;2;94;left;no;150;leftarrow;651;true;focus;yes;448152;Chrome;112.0;Windows;10;undefined;undefined;1024 x 768;1024 x 768
H006;52;Mannelijk;Rechts;2;95;left;no;150;leftarrow;805;true;focus;yes;449728;Chrome;112.0;Windows;10;undefined;undefined;1024 x 768;1024 x 768
H006;52;Mannelijk;Rechts;2;96;left;no;150;leftarrow;455;true;focus;yes;450955;Chrome;112.0;Windows;10;undefined;undefined;1024 x 768;1024 x 768
H006;52;Mannelijk;Rechts;2;97;right;no;150;rightarrow;736;true;focus;yes;452471;Chrome;112.0;Windows;10;undefined;undefined;1024 x 768;1024 x 768
H006;52;Mannelijk;Rechts;2;98;right;yes;150;undefined;null;true;focus;yes;454502;Chrome;112.0;Windows;10;undefined;undefined;1024 x 768;1024 x 768
H006;52;Mannelijk;Rechts;2;99;right;no;200;rightarrow;595;true;focus;yes;455861;Chrome;112.0;Windows;10;undefined;undefined;1024 x 768;1024 x 768
H006;52;Mannelijk;Rechts;2;100;left;yes;200;undefined;null;true;focus;yes;457892;Chrome;112.0;Windows;10;undefined;undefined;1024 x 768;1024 x 768
H006;52;Mannelijk;Rechts;2;101;left;no;250;leftarrow;871;true;focus;yes;459534;Chrome;112.0;Windows;10;undefined;undefined;1024 x 768;1024 x 768
H006;52;Mannelijk;Rechts;2;102;right;no;250;rightarrow;501;true;focus;yes;460815;Chrome;112.0;Windows;10;undefined;undefined;1024 x 768;1024 x 768
H006;52;Mannelijk;Rechts;2;103;left;no;250;leftarrow;533;true;focus;yes;462128;Chrome;112.0;Windows;10;undefined;undefined;1024 x 768;1024 x 768
H006;52;Mannelijk;Rechts;2;104;left;no;250;leftarrow;565;true;focus;yes;463473;Chrome;112.0;Windows;10;undefined;undefined;1024 x 768;1024 x 768
H006;52;Mannelijk;Rechts;2;105;right;no;250;rightarrow;501;true;focus;yes;464761;Chrome;112.0;Windows;10;undefined;undefined;1024 x 768;1024 x 768
H006;52;Mannelijk;Rechts;2;106;left;no;250;leftarrow;485;true;focus;yes;466017;Chrome;112.0;Windows;10;undefined;undefined;1024 x 768;1024 x 768
H006;52;Mannelijk;Rechts;2;107;right;no;250;rightarrow;609;true;focus;yes;467408;Chrome;112.0;Windows;10;undefined;undefined;1024 x 768;1024 x 768
H006;52;Mannelijk;Rechts;2;108;left;no;250;leftarrow;438;true;focus;yes;468627;Chrome;112.0;Windows;10;undefined;undefined;1024 x 768;1024 x 768
H006;52;Mannelijk;Rechts;2;109;right;yes;250;undefined;null;true;focus;yes;470668;Chrome;112.0;Windows;10;undefined;undefined;1024 x 768;1024 x 768
H006;52;Mannelijk;Rechts;2;110;right;no;300;rightarrow;470;true;focus;yes;471921;Chrome;112.0;Windows;10;undefined;undefined;1024 x 768;1024 x 768
H006;52;Mannelijk;Rechts;2;111;left;yes;300;leftarrow;470;false;focus;yes;473158;Chrome;112.0;Windows;10;undefined;undefined;1024 x 768;1024 x 768
H006;52;Mannelijk;Rechts;2;112;left;no;250;leftarrow;517;true;focus;yes;474455;Chrome;112.0;Windows;10;undefined;undefined;1024 x 768;1024 x 768
H006;52;Mannelijk;Rechts;2;113;right;no;250;rightarrow;532;true;focus;yes;475768;Chrome;112.0;Windows;10;undefined;undefined;1024 x 768;1024 x 768
H006;52;Mannelijk;Rechts;2;114;left;no;250;leftarrow;578;true;focus;yes;477125;Chrome;112.0;Windows;10;undefined;undefined;1024 x 768;1024 x 768
H006;52;Mannelijk;Rechts;2;115;left;yes;250;undefined;null;true;focus;yes;479160;Chrome;112.0;Windows;10;undefined;undefined;1024 x 768;1024 x 768
H006;52;Mannelijk;Rechts;2;116;right;no;300;rightarrow;464;true;focus;yes;480395;Chrome;112.0;Windows;10;undefined;undefined;1024 x 768;1024 x 768
H006;52;Mannelijk;Rechts;2;117;right;yes;300;undefined;null;true;focus;yes;482416;Chrome;112.0;Windows;10;undefined;undefined;1024 x 768;1024 x 768
H006;52;Mannelijk;Rechts;2;118;left;no;350;leftarrow;470;true;focus;yes;483666;Chrome;112.0;Windows;10;undefined;undefined;1024 x 768;1024 x 768
H006;52;Mannelijk;Rechts;2;119;left;no;350;leftarrow;423;true;focus;yes;484862;Chrome;112.0;Windows;10;undefined;undefined;1024 x 768;1024 x 768
H006;52;Mannelijk;Rechts;2;120;right;no;350;rightarrow;485;true;focus;yes;486128;Chrome;112.0;Windows;10;undefined;undefined;1024 x 768;1024 x 768
H006;52;Mannelijk;Rechts;2;121;left;yes;350;undefined;null;true;focus;yes;488159;Chrome;112.0;Windows;10;undefined;undefined;1024 x 768;1024 x 768
H006;52;Mannelijk;Rechts;2;122;left;no;400;leftarrow;423;true;focus;yes;489362;Chrome;112.0;Windows;10;undefined;undefined;1024 x 768;1024 x 768
H006;52;Mannelijk;Rechts;2;123;left;no;400;leftarrow;626;true;focus;yes;490768;Chrome;112.0;Windows;10;undefined;undefined;1024 x 768;1024 x 768
H006;52;Mannelijk;Rechts;2;124;right;yes;400;rightarrow;453;false;focus;yes;492001;Chrome;112.0;Windows;10;undefined;undefined;1024 x 768;1024 x 768
H006;52;Mannelijk;Rechts;2;125;left;no;350;leftarrow;455;true;focus;yes;493237;Chrome;112.0;Windows;10;undefined;undefined;1024 x 768;1024 x 768
H006;52;Mannelijk;Rechts;2;126;right;no;350;rightarrow;708;true;focus;yes;494722;Chrome;112.0;Windows;10;undefined;undefined;1024 x 768;1024 x 768
H006;52;Mannelijk;Rechts;2;127;right;no;350;rightarrow;618;true;focus;yes;496122;Chrome;112.0;Windows;10;undefined;undefined;1024 x 768;1024 x 768
H006;52;Mannelijk;Rechts;2;128;right;no;350;rightarrow;470;true;focus;yes;497362;Chrome;112.0;Windows;10;undefined;undefined;1024 x 768;1024 x 768
H006;52;Mannelijk;Rechts;3;1;left;no;350;leftarrow;585;true;focus;yes;518541;Chrome;112.0;Windows;10;undefined;undefined;1024 x 768;1024 x 768
H006;52;Mannelijk;Rechts;3;2;left;no;350;leftarrow;423;true;focus;yes;519762;Chrome;112.0;Windows;10;undefined;undefined;1024 x 768;1024 x 768
H006;52;Mannelijk;Rechts;3;3;right;no;350;rightarrow;470;true;focus;yes;521003;Chrome;112.0;Windows;10;undefined;undefined;1024 x 768;1024 x 768
H006;52;Mannelijk;Rechts;3;4;right;no;350;rightarrow;483;true;focus;yes;522282;Chrome;112.0;Windows;10;undefined;undefined;1024 x 768;1024 x 768
H006;52;Mannelijk;Rechts;3;5;left;yes;350;undefined;null;true;focus;yes;524322;Chrome;112.0;Windows;10;undefined;undefined;1024 x 768;1024 x 768
H006;52;Mannelijk;Rechts;3;6;right;no;400;rightarrow;625;true;focus;yes;525707;Chrome;112.0;Windows;10;undefined;undefined;1024 x 768;1024 x 768
H006;52;Mannelijk;Rechts;3;7;left;no;400;leftarrow;478;true;focus;yes;526986;Chrome;112.0;Windows;10;undefined;undefined;1024 x 768;1024 x 768
H006;52;Mannelijk;Rechts;3;8;right;yes;400;rightarrow;430;false;focus;yes;528194;Chrome;112.0;Windows;10;undefined;undefined;1024 x 768;1024 x 768
H006;52;Mannelijk;Rechts;3;9;right;yes;350;rightarrow;426;false;focus;yes;529380;Chrome;112.0;Windows;10;undefined;undefined;1024 x 768;1024 x 768
H006;52;Mannelijk;Rechts;3;10;left;no;300;leftarrow;420;true;focus;yes;530578;Chrome;112.0;Windows;10;undefined;undefined;1024 x 768;1024 x 768
H006;52;Mannelijk;Rechts;3;11;left;no;300;leftarrow;565;true;focus;yes;531914;Chrome;112.0;Windows;10;undefined;undefined;1024 x 768;1024 x 768
H006;52;Mannelijk;Rechts;3;12;left;yes;300;leftarrow;469;false;focus;yes;533159;Chrome;112.0;Windows;10;undefined;undefined;1024 x 768;1024 x 768
H006;52;Mannelijk;Rechts;3;13;right;no;250;rightarrow;485;true;focus;yes;534424;Chrome;112.0;Windows;10;undefined;undefined;1024 x 768;1024 x 768
H006;52;Mannelijk;Rechts;3;14;left;no;250;leftarrow;556;true;focus;yes;535760;Chrome;112.0;Windows;10;undefined;undefined;1024 x 768;1024 x 768
H006;52;Mannelijk;Rechts;3;15;right;no;250;rightarrow;641;true;focus;yes;537174;Chrome;112.0;Windows;10;undefined;undefined;1024 x 768;1024 x 768
H006;52;Mannelijk;Rechts;3;16;right;no;250;rightarrow;663;true;focus;yes;538616;Chrome;112.0;Windows;10;undefined;undefined;1024 x 768;1024 x 768
H006;52;Mannelijk;Rechts;3;17;left;no;250;leftarrow;783;true;focus;yes;540185;Chrome;112.0;Windows;10;undefined;undefined;1024 x 768;1024 x 768
H006;52;Mannelijk;Rechts;3;18;left;no;250;leftarrow;723;true;focus;yes;541676;Chrome;112.0;Windows;10;undefined;undefined;1024 x 768;1024 x 768
H006;52;Mannelijk;Rechts;3;19;left;no;250;leftarrow;634;true;focus;yes;543096;Chrome;112.0;Windows;10;undefined;undefined;1024 x 768;1024 x 768
H006;52;Mannelijk;Rechts;3;20;left;yes;250;undefined;null;true;focus;yes;545127;Chrome;112.0;Windows;10;undefined;undefined;1024 x 768;1024 x 768
H006;52;Mannelijk;Rechts;3;21;right;yes;300;rightarrow;439;false;focus;yes;546346;Chrome;112.0;Windows;10;undefined;undefined;1024 x 768;1024 x 768
H006;52;Mannelijk;Rechts;3;22;right;no;250;leftarrow;502;false;focus;yes;547627;Chrome;112.0;Windows;10;undefined;undefined;1024 x 768;1024 x 768
H006;52;Mannelijk;Rechts;3;23;right;no;250;rightarrow;496;true;focus;yes;548909;Chrome;112.0;Windows;10;undefined;undefined;1024 x 768;1024 x 768
H006;52;Mannelijk;Rechts;3;24;right;no;250;rightarrow;425;true;focus;yes;550129;Chrome;112.0;Windows;10;undefined;undefined;1024 x 768;1024 x 768
H006;52;Mannelijk;Rechts;3;25;right;yes;250;rightarrow;408;false;focus;yes;551314;Chrome;112.0;Windows;10;undefined;undefined;1024 x 768;1024 x 768
H006;52;Mannelijk;Rechts;3;26;left;no;200;leftarrow;486;true;focus;yes;552596;Chrome;112.0;Windows;10;undefined;undefined;1024 x 768;1024 x 768
H006;52;Mannelijk;Rechts;3;27;right;no;200;rightarrow;565;true;focus;yes;553940;Chrome;112.0;Windows;10;undefined;undefined;1024 x 768;1024 x 768
H006;52;Mannelijk;Rechts;3;28;left;no;200;leftarrow;641;true;focus;yes;555377;Chrome;112.0;Windows;10;undefined;undefined;1024 x 768;1024 x 768
H006;52;Mannelijk;Rechts;3;29;right;no;200;rightarrow;643;true;focus;yes;556799;Chrome;112.0;Windows;10;undefined;undefined;1024 x 768;1024 x 768
H006;52;Mannelijk;Rechts;3;30;left;no;200;leftarrow;549;true;focus;yes;558128;Chrome;112.0;Windows;10;undefined;undefined;1024 x 768;1024 x 768
H006;52;Mannelijk;Rechts;3;31;left;yes;200;undefined;null;true;focus;yes;560158;Chrome;112.0;Windows;10;undefined;undefined;1024 x 768;1024 x 768
H006;52;Mannelijk;Rechts;3;32;right;no;250;rightarrow;436;true;focus;yes;561393;Chrome;112.0;Windows;10;undefined;undefined;1024 x 768;1024 x 768
H006;52;Mannelijk;Rechts;3;33;right;no;250;rightarrow;511;true;focus;yes;562674;Chrome;112.0;Windows;10;undefined;undefined;1024 x 768;1024 x 768
H006;52;Mannelijk;Rechts;3;34;right;no;250;rightarrow;471;true;focus;yes;563937;Chrome;112.0;Windows;10;undefined;undefined;1024 x 768;1024 x 768
H006;52;Mannelijk;Rechts;3;35;left;no;250;leftarrow;816;true;focus;yes;565519;Chrome;112.0;Windows;10;undefined;undefined;1024 x 768;1024 x 768
H006;52;Mannelijk;Rechts;3;36;left;yes;250;rightarrow;483;false;focus;yes;566780;Chrome;112.0;Windows;10;undefined;undefined;1024 x 768;1024 x 768
H006;52;Mannelijk;Rechts;3;37;left;no;200;leftarrow;579;true;focus;yes;568143;Chrome;112.0;Windows;10;undefined;undefined;1024 x 768;1024 x 768
H006;52;Mannelijk;Rechts;3;38;right;no;200;rightarrow;883;true;focus;yes;569809;Chrome;112.0;Windows;10;undefined;undefined;1024 x 768;1024 x 768
H006;52;Mannelijk;Rechts;3;39;left;no;200;leftarrow;533;true;focus;yes;571121;Chrome;112.0;Windows;10;undefined;undefined;1024 x 768;1024 x 768
H006;52;Mannelijk;Rechts;3;40;right;yes;200;rightarrow;423;false;focus;yes;572314;Chrome;112.0;Windows;10;undefined;undefined;1024 x 768;1024 x 768
H006;52;Mannelijk;Rechts;3;41;right;no;150;rightarrow;610;true;focus;yes;573720;Chrome;112.0;Windows;10;undefined;undefined;1024 x 768;1024 x 768
H006;52;Mannelijk;Rechts;3;42;left;no;150;leftarrow;480;true;focus;yes;574980;Chrome;112.0;Windows;10;undefined;undefined;1024 x 768;1024 x 768
H006;52;Mannelijk;Rechts;3;43;left;no;150;leftarrow;693;true;focus;yes;576455;Chrome;112.0;Windows;10;undefined;undefined;1024 x 768;1024 x 768
H006;52;Mannelijk;Rechts;3;44;left;no;150;leftarrow;1055;true;focus;yes;578290;Chrome;112.0;Windows;10;undefined;undefined;1024 x 768;1024 x 768
H006;52;Mannelijk;Rechts;3;45;right;no;150;rightarrow;867;true;focus;yes;579931;Chrome;112.0;Windows;10;undefined;undefined;1024 x 768;1024 x 768
H006;52;Mannelijk;Rechts;3;46;right;yes;150;undefined;null;true;focus;yes;581954;Chrome;112.0;Windows;10;undefined;undefined;1024 x 768;1024 x 768
H006;52;Mannelijk;Rechts;3;47;right;no;200;rightarrow;720;true;focus;yes;583457;Chrome;112.0;Windows;10;undefined;undefined;1024 x 768;1024 x 768
H006;52;Mannelijk;Rechts;3;48;left;yes;200;undefined;null;true;focus;yes;585486;Chrome;112.0;Windows;10;undefined;undefined;1024 x 768;1024 x 768
H006;52;Mannelijk;Rechts;3;49;right;yes;250;rightarrow;474;false;focus;yes;586736;Chrome;112.0;Windows;10;undefined;undefined;1024 x 768;1024 x 768
H006;52;Mannelijk;Rechts;3;50;right;no;200;rightarrow;536;true;focus;yes;588049;Chrome;112.0;Windows;10;undefined;undefined;1024 x 768;1024 x 768
H006;52;Mannelijk;Rechts;3;51;left;no;200;leftarrow;610;true;focus;yes;589439;Chrome;112.0;Windows;10;undefined;undefined;1024 x 768;1024 x 768
H006;52;Mannelijk;Rechts;3;52;left;no;200;leftarrow;758;true;focus;yes;590971;Chrome;112.0;Windows;10;undefined;undefined;1024 x 768;1024 x 768
H006;52;Mannelijk;Rechts;3;53;right;no;200;rightarrow;721;true;focus;yes;592497;Chrome;112.0;Windows;10;undefined;undefined;1024 x 768;1024 x 768
H006;52;Mannelijk;Rechts;3;54;right;no;200;rightarrow;669;true;focus;yes;593937;Chrome;112.0;Windows;10;undefined;undefined;1024 x 768;1024 x 768
H006;52;Mannelijk;Rechts;3;55;left;no;200;leftarrow;540;true;focus;yes;595243;Chrome;112.0;Windows;10;undefined;undefined;1024 x 768;1024 x 768
H006;52;Mannelijk;Rechts;3;56;left;yes;200;leftarrow;470;false;focus;yes;596486;Chrome;112.0;Windows;10;undefined;undefined;1024 x 768;1024 x 768
H006;52;Mannelijk;Rechts;3;57;left;no;150;leftarrow;521;true;focus;yes;597784;Chrome;112.0;Windows;10;undefined;undefined;1024 x 768;1024 x 768
H006;52;Mannelijk;Rechts;3;58;left;no;150;leftarrow;909;true;focus;yes;599457;Chrome;112.0;Windows;10;undefined;undefined;1024 x 768;1024 x 768
H006;52;Mannelijk;Rechts;3;59;left;yes;150;undefined;null;true;focus;yes;601483;Chrome;112.0;Windows;10;undefined;undefined;1024 x 768;1024 x 768
H006;52;Mannelijk;Rechts;3;60;left;no;200;leftarrow;588;true;focus;yes;602840;Chrome;112.0;Windows;10;undefined;undefined;1024 x 768;1024 x 768
H006;52;Mannelijk;Rechts;3;61;right;no;200;rightarrow;688;true;focus;yes;604299;Chrome;112.0;Windows;10;undefined;undefined;1024 x 768;1024 x 768
H006;52;Mannelijk;Rechts;3;62;right;no;200;rightarrow;874;true;focus;yes;605954;Chrome;112.0;Windows;10;undefined;undefined;1024 x 768;1024 x 768
H006;52;Mannelijk;Rechts;3;63;right;no;200;rightarrow;627;true;focus;yes;607347;Chrome;112.0;Windows;10;undefined;undefined;1024 x 768;1024 x 768
H006;52;Mannelijk;Rechts;3;64;right;yes;200;undefined;null;true;focus;yes;609394;Chrome;112.0;Windows;10;undefined;undefined;1024 x 768;1024 x 768
H006;52;Mannelijk;Rechts;3;65;right;no;250;rightarrow;557;true;focus;yes;610721;Chrome;112.0;Windows;10;undefined;undefined;1024 x 768;1024 x 768
H006;52;Mannelijk;Rechts;3;66;right;no;250;rightarrow;486;true;focus;yes;611987;Chrome;112.0;Windows;10;undefined;undefined;1024 x 768;1024 x 768
H006;52;Mannelijk;Rechts;3;67;left;no;250;leftarrow;738;true;focus;yes;613502;Chrome;112.0;Windows;10;undefined;undefined;1024 x 768;1024 x 768
H006;52;Mannelijk;Rechts;3;68;right;no;250;rightarrow;612;true;focus;yes;614894;Chrome;112.0;Windows;10;undefined;undefined;1024 x 768;1024 x 768
H006;52;Mannelijk;Rechts;3;69;left;yes;250;undefined;null;true;focus;yes;616937;Chrome;112.0;Windows;10;undefined;undefined;1024 x 768;1024 x 768
H006;52;Mannelijk;Rechts;3;70;left;no;300;leftarrow;608;true;focus;yes;618312;Chrome;112.0;Windows;10;undefined;undefined;1024 x 768;1024 x 768
H006;52;Mannelijk;Rechts;3;71;right;yes;300;undefined;null;true;focus;yes;620348;Chrome;112.0;Windows;10;undefined;undefined;1024 x 768;1024 x 768
H006;52;Mannelijk;Rechts;3;72;left;no;350;leftarrow;643;true;focus;yes;621769;Chrome;112.0;Windows;10;undefined;undefined;1024 x 768;1024 x 768
H006;52;Mannelijk;Rechts;3;73;left;no;350;leftarrow;500;true;focus;yes;623035;Chrome;112.0;Windows;10;undefined;undefined;1024 x 768;1024 x 768
H006;52;Mannelijk;Rechts;3;74;left;no;350;leftarrow;502;true;focus;yes;624331;Chrome;112.0;Windows;10;undefined;undefined;1024 x 768;1024 x 768
H006;52;Mannelijk;Rechts;3;75;left;yes;350;leftarrow;549;false;focus;yes;625675;Chrome;112.0;Windows;10;undefined;undefined;1024 x 768;1024 x 768
H006;52;Mannelijk;Rechts;3;76;right;no;300;rightarrow;549;true;focus;yes;627003;Chrome;112.0;Windows;10;undefined;undefined;1024 x 768;1024 x 768
H006;52;Mannelijk;Rechts;3;77;left;no;300;leftarrow;877;true;focus;yes;628675;Chrome;112.0;Windows;10;undefined;undefined;1024 x 768;1024 x 768
H006;52;Mannelijk;Rechts;3;78;right;no;300;rightarrow;598;true;focus;yes;630052;Chrome;112.0;Windows;10;undefined;undefined;1024 x 768;1024 x 768
H006;52;Mannelijk;Rechts;3;79;right;no;300;rightarrow;831;true;focus;yes;631682;Chrome;112.0;Windows;10;undefined;undefined;1024 x 768;1024 x 768
H006;52;Mannelijk;Rechts;3;80;right;yes;300;undefined;null;true;focus;yes;633706;Chrome;112.0;Windows;10;undefined;undefined;1024 x 768;1024 x 768
H006;52;Mannelijk;Rechts;3;81;right;no;350;rightarrow;547;true;focus;yes;635034;Chrome;112.0;Windows;10;undefined;undefined;1024 x 768;1024 x 768
H006;52;Mannelijk;Rechts;3;82;left;yes;350;leftarrow;533;false;focus;yes;636347;Chrome;112.0;Windows;10;undefined;undefined;1024 x 768;1024 x 768
H006;52;Mannelijk;Rechts;3;83;left;no;300;leftarrow;641;true;focus;yes;637784;Chrome;112.0;Windows;10;undefined;undefined;1024 x 768;1024 x 768
H006;52;Mannelijk;Rechts;3;84;right;no;300;rightarrow;767;true;focus;yes;639330;Chrome;112.0;Windows;10;undefined;undefined;1024 x 768;1024 x 768
H006;52;Mannelijk;Rechts;3;85;left;no;300;leftarrow;717;true;focus;yes;640816;Chrome;112.0;Windows;10;undefined;undefined;1024 x 768;1024 x 768
H006;52;Mannelijk;Rechts;3;86;right;yes;300;undefined;null;true;focus;yes;642849;Chrome;112.0;Windows;10;undefined;undefined;1024 x 768;1024 x 768
H006;52;Mannelijk;Rechts;3;87;right;no;350;rightarrow;502;true;focus;yes;644128;Chrome;112.0;Windows;10;undefined;undefined;1024 x 768;1024 x 768
H006;52;Mannelijk;Rechts;3;88;left;no;350;leftarrow;610;true;focus;yes;645518;Chrome;112.0;Windows;10;undefined;undefined;1024 x 768;1024 x 768
H006;52;Mannelijk;Rechts;3;89;left;yes;350;leftarrow;565;false;focus;yes;646863;Chrome;112.0;Windows;10;undefined;undefined;1024 x 768;1024 x 768
H006;52;Mannelijk;Rechts;3;90;right;no;300;rightarrow;600;true;focus;yes;648237;Chrome;112.0;Windows;10;undefined;undefined;1024 x 768;1024 x 768
H006;52;Mannelijk;Rechts;3;91;right;no;300;rightarrow;723;true;focus;yes;649737;Chrome;112.0;Windows;10;undefined;undefined;1024 x 768;1024 x 768
H006;52;Mannelijk;Rechts;3;92;left;no;300;leftarrow;902;true;focus;yes;651416;Chrome;112.0;Windows;10;undefined;undefined;1024 x 768;1024 x 768
H006;52;Mannelijk;Rechts;3;93;right;yes;300;undefined;null;true;focus;yes;653471;Chrome;112.0;Windows;10;undefined;undefined;1024 x 768;1024 x 768
H006;52;Mannelijk;Rechts;3;94;left;no;350;leftarrow;502;true;focus;yes;654753;Chrome;112.0;Windows;10;undefined;undefined;1024 x 768;1024 x 768
H006;52;Mannelijk;Rechts;3;95;right;no;350;rightarrow;690;true;focus;yes;656222;Chrome;112.0;Windows;10;undefined;undefined;1024 x 768;1024 x 768
H006;52;Mannelijk;Rechts;3;96;left;no;350;leftarrow;720;true;focus;yes;657721;Chrome;112.0;Windows;10;undefined;undefined;1024 x 768;1024 x 768
H006;52;Mannelijk;Rechts;3;97;right;no;350;rightarrow;751;true;focus;yes;659253;Chrome;112.0;Windows;10;undefined;undefined;1024 x 768;1024 x 768
H006;52;Mannelijk;Rechts;3;98;right;yes;350;undefined;null;true;focus;yes;661312;Chrome;112.0;Windows;10;undefined;undefined;1024 x 768;1024 x 768
H006;52;Mannelijk;Rechts;3;99;left;no;400;leftarrow;658;true;focus;yes;662737;Chrome;112.0;Windows;10;undefined;undefined;1024 x 768;1024 x 768
H006;52;Mannelijk;Rechts;3;100;right;no;400;rightarrow;660;true;focus;yes;664174;Chrome;112.0;Windows;10;undefined;undefined;1024 x 768;1024 x 768
H006;52;Mannelijk;Rechts;3;101;right;no;400;rightarrow;612;true;focus;yes;665566;Chrome;112.0;Windows;10;undefined;undefined;1024 x 768;1024 x 768
H006;52;Mannelijk;Rechts;3;102;left;no;400;leftarrow;767;true;focus;yes;667113;Chrome;112.0;Windows;10;undefined;undefined;1024 x 768;1024 x 768
H006;52;Mannelijk;Rechts;3;103;left;no;400;leftarrow;824;true;focus;yes;668730;Chrome;112.0;Windows;10;undefined;undefined;1024 x 768;1024 x 768
H006;52;Mannelijk;Rechts;3;104;left;yes;400;undefined;null;true;focus;yes;670754;Chrome;112.0;Windows;10;undefined;undefined;1024 x 768;1024 x 768
H006;52;Mannelijk;Rechts;3;105;left;no;450;leftarrow;548;true;focus;yes;672081;Chrome;112.0;Windows;10;undefined;undefined;1024 x 768;1024 x 768
H006;52;Mannelijk;Rechts;3;106;left;no;450;leftarrow;704;true;focus;yes;673566;Chrome;112.0;Windows;10;undefined;undefined;1024 x 768;1024 x 768
H006;52;Mannelijk;Rechts;3;107;left;yes;450;undefined;null;true;focus;yes;675609;Chrome;112.0;Windows;10;undefined;undefined;1024 x 768;1024 x 768
H006;52;Mannelijk;Rechts;3;108;right;yes;500;rightarrow;579;false;focus;yes;676956;Chrome;112.0;Windows;10;undefined;undefined;1024 x 768;1024 x 768
H006;52;Mannelijk;Rechts;3;109;left;no;450;leftarrow;627;true;focus;yes;678378;Chrome;112.0;Windows;10;undefined;undefined;1024 x 768;1024 x 768
H006;52;Mannelijk;Rechts;3;110;right;no;450;rightarrow;845;true;focus;yes;680010;Chrome;112.0;Windows;10;undefined;undefined;1024 x 768;1024 x 768
H006;52;Mannelijk;Rechts;3;111;right;no;450;rightarrow;583;true;focus;yes;681370;Chrome;112.0;Windows;10;undefined;undefined;1024 x 768;1024 x 768
H006;52;Mannelijk;Rechts;3;112;right;no;450;rightarrow;735;true;focus;yes;682878;Chrome;112.0;Windows;10;undefined;undefined;1024 x 768;1024 x 768
H006;52;Mannelijk;Rechts;3;113;right;no;450;rightarrow;799;true;focus;yes;684458;Chrome;112.0;Windows;10;undefined;undefined;1024 x 768;1024 x 768
H006;52;Mannelijk;Rechts;3;114;right;yes;450;undefined;null;true;focus;yes;686502;Chrome;112.0;Windows;10;undefined;undefined;1024 x 768;1024 x 768
H006;52;Mannelijk;Rechts;3;115;left;no;500;leftarrow;683;true;focus;yes;687966;Chrome;112.0;Windows;10;undefined;undefined;1024 x 768;1024 x 768
H006;52;Mannelijk;Rechts;3;116;left;no;500;leftarrow;915;true;focus;yes;689666;Chrome;112.0;Windows;10;undefined;undefined;1024 x 768;1024 x 768
H006;52;Mannelijk;Rechts;3;117;right;no;500;rightarrow;767;true;focus;yes;691210;Chrome;112.0;Windows;10;undefined;undefined;1024 x 768;1024 x 768
H006;52;Mannelijk;Rechts;3;118;left;yes;500;undefined;null;true;focus;yes;693237;Chrome;112.0;Windows;10;undefined;undefined;1024 x 768;1024 x 768
H006;52;Mannelijk;Rechts;3;119;left;no;550;leftarrow;584;true;focus;yes;694598;Chrome;112.0;Windows;10;undefined;undefined;1024 x 768;1024 x 768
H006;52;Mannelijk;Rechts;3;120;right;no;550;rightarrow;549;true;focus;yes;695929;Chrome;112.0;Windows;10;undefined;undefined;1024 x 768;1024 x 768
H006;52;Mannelijk;Rechts;3;121;left;no;550;leftarrow;691;true;focus;yes;697396;Chrome;112.0;Windows;10;undefined;undefined;1024 x 768;1024 x 768
H006;52;Mannelijk;Rechts;3;122;right;no;550;rightarrow;653;true;focus;yes;698818;Chrome;112.0;Windows;10;undefined;undefined;1024 x 768;1024 x 768
H006;52;Mannelijk;Rechts;3;123;right;no;550;rightarrow;609;true;focus;yes;700191;Chrome;112.0;Windows;10;undefined;undefined;1024 x 768;1024 x 768
H006;52;Mannelijk;Rechts;3;124;right;no;550;rightarrow;822;true;focus;yes;701785;Chrome;112.0;Windows;10;undefined;undefined;1024 x 768;1024 x 768
H006;52;Mannelijk;Rechts;3;125;left;no;550;leftarrow;843;true;focus;yes;703408;Chrome;112.0;Windows;10;undefined;undefined;1024 x 768;1024 x 768
H006;52;Mannelijk;Rechts;3;126;left;no;550;leftarrow;829;true;focus;yes;705018;Chrome;112.0;Windows;10;undefined;undefined;1024 x 768;1024 x 768
H006;52;Mannelijk;Rechts;3;127;right;yes;550;rightarrow;781;false;focus;yes;706580;Chrome;112.0;Windows;10;undefined;undefined;1024 x 768;1024 x 768
H006;52;Mannelijk;Rechts;3;128;left;yes;500;leftarrow;529;false;focus;yes;707890;Chrome;112.0;Windows;10;undefined;undefined;1024 x 768;1024 x 768
H006;52;Mannelijk;Rechts;4;1;right;no;450;rightarrow;485;true;focus;yes;727315;Chrome;112.0;Windows;10;undefined;undefined;1024 x 768;1024 x 768
H006;52;Mannelijk;Rechts;4;2;left;no;450;leftarrow;562;true;focus;yes;728673;Chrome;112.0;Windows;10;undefined;undefined;1024 x 768;1024 x 768
H006;52;Mannelijk;Rechts;4;3;right;yes;450;undefined;null;true;focus;yes;730705;Chrome;112.0;Windows;10;undefined;undefined;1024 x 768;1024 x 768
H006;52;Mannelijk;Rechts;4;4;left;no;500;leftarrow;595;true;focus;yes;732081;Chrome;112.0;Windows;10;undefined;undefined;1024 x 768;1024 x 768
H006;52;Mannelijk;Rechts;4;5;left;no;500;leftarrow;801;true;focus;yes;733662;Chrome;112.0;Windows;10;undefined;undefined;1024 x 768;1024 x 768
H006;52;Mannelijk;Rechts;4;6;right;no;500;rightarrow;782;true;focus;yes;735221;Chrome;112.0;Windows;10;undefined;undefined;1024 x 768;1024 x 768
H006;52;Mannelijk;Rechts;4;7;left;yes;500;undefined;null;true;focus;yes;737265;Chrome;112.0;Windows;10;undefined;undefined;1024 x 768;1024 x 768
H006;52;Mannelijk;Rechts;4;8;right;no;550;rightarrow;711;true;focus;yes;738747;Chrome;112.0;Windows;10;undefined;undefined;1024 x 768;1024 x 768
H006;52;Mannelijk;Rechts;4;9;left;yes;550;undefined;null;true;focus;yes;740785;Chrome;112.0;Windows;10;undefined;undefined;1024 x 768;1024 x 768
H006;52;Mannelijk;Rechts;4;10;right;no;600;rightarrow;685;true;focus;yes;742249;Chrome;112.0;Windows;10;undefined;undefined;1024 x 768;1024 x 768
H006;52;Mannelijk;Rechts;4;11;left;no;600;leftarrow;919;true;focus;yes;743951;Chrome;112.0;Windows;10;undefined;undefined;1024 x 768;1024 x 768
H006;52;Mannelijk;Rechts;4;12;right;no;600;rightarrow;783;true;focus;yes;745519;Chrome;112.0;Windows;10;undefined;undefined;1024 x 768;1024 x 768
H006;52;Mannelijk;Rechts;4;13;right;yes;600;rightarrow;892;false;focus;yes;747190;Chrome;112.0;Windows;10;undefined;undefined;1024 x 768;1024 x 768
H006;52;Mannelijk;Rechts;4;14;left;no;550;leftarrow;1096;true;focus;yes;749069;Chrome;112.0;Windows;10;undefined;undefined;1024 x 768;1024 x 768
H006;52;Mannelijk;Rechts;4;15;left;no;550;leftarrow;899;true;focus;yes;750744;Chrome;112.0;Windows;10;undefined;undefined;1024 x 768;1024 x 768
H006;52;Mannelijk;Rechts;4;16;right;no;550;rightarrow;849;true;focus;yes;752370;Chrome;112.0;Windows;10;undefined;undefined;1024 x 768;1024 x 768
H006;52;Mannelijk;Rechts;4;17;right;yes;550;undefined;null;true;focus;yes;754393;Chrome;112.0;Windows;10;undefined;undefined;1024 x 768;1024 x 768
H006;52;Mannelijk;Rechts;4;18;left;yes;600;leftarrow;746;false;focus;yes;755909;Chrome;112.0;Windows;10;undefined;undefined;1024 x 768;1024 x 768
H006;52;Mannelijk;Rechts;4;19;right;no;550;rightarrow;1111;true;focus;yes;757801;Chrome;112.0;Windows;10;undefined;undefined;1024 x 768;1024 x 768
H006;52;Mannelijk;Rechts;4;20;left;no;550;leftarrow;1049;true;focus;yes;759628;Chrome;112.0;Windows;10;undefined;undefined;1024 x 768;1024 x 768
H006;52;Mannelijk;Rechts;4;21;right;no;550;rightarrow;564;true;focus;yes;760971;Chrome;112.0;Windows;10;undefined;undefined;1024 x 768;1024 x 768
H006;52;Mannelijk;Rechts;4;22;right;no;550;rightarrow;505;true;focus;yes;762269;Chrome;112.0;Windows;10;undefined;undefined;1024 x 768;1024 x 768
H006;52;Mannelijk;Rechts;4;23;left;no;550;leftarrow;549;true;focus;yes;763597;Chrome;112.0;Windows;10;undefined;undefined;1024 x 768;1024 x 768
H006;52;Mannelijk;Rechts;4;24;left;no;550;leftarrow;620;true;focus;yes;764997;Chrome;112.0;Windows;10;undefined;undefined;1024 x 768;1024 x 768
H006;52;Mannelijk;Rechts;4;25;right;no;550;rightarrow;1205;true;focus;yes;766987;Chrome;112.0;Windows;10;undefined;undefined;1024 x 768;1024 x 768
H006;52;Mannelijk;Rechts;4;26;left;yes;550;leftarrow;770;false;focus;yes;768534;Chrome;112.0;Windows;10;undefined;undefined;1024 x 768;1024 x 768
H006;52;Mannelijk;Rechts;4;27;left;no;500;undefined;null;false;focus;yes;770571;Chrome;112.0;Windows;10;undefined;undefined;1024 x 768;1024 x 768
H006;52;Mannelijk;Rechts;4;28;right;yes;500;rightarrow;550;false;focus;yes;772162;Chrome;112.0;Windows;10;undefined;undefined;1024 x 768;1024 x 768
H006;52;Mannelijk;Rechts;4;29;left;no;450;leftarrow;939;true;focus;yes;773878;Chrome;112.0;Windows;10;undefined;undefined;1024 x 768;1024 x 768
H006;52;Mannelijk;Rechts;4;30;right;no;450;rightarrow;877;true;focus;yes;775534;Chrome;112.0;Windows;10;undefined;undefined;1024 x 768;1024 x 768
H006;52;Mannelijk;Rechts;4;31;left;no;450;leftarrow;742;true;focus;yes;777072;Chrome;112.0;Windows;10;undefined;undefined;1024 x 768;1024 x 768
H006;52;Mannelijk;Rechts;4;32;right;no;450;rightarrow;951;true;focus;yes;778784;Chrome;112.0;Windows;10;undefined;undefined;1024 x 768;1024 x 768
H006;52;Mannelijk;Rechts;4;33;left;no;450;leftarrow;821;true;focus;yes;780393;Chrome;112.0;Windows;10;undefined;undefined;1024 x 768;1024 x 768
H006;52;Mannelijk;Rechts;4;34;right;yes;450;rightarrow;510;false;focus;yes;781673;Chrome;112.0;Windows;10;undefined;undefined;1024 x 768;1024 x 768
H006;52;Mannelijk;Rechts;4;35;right;no;400;rightarrow;883;true;focus;yes;783361;Chrome;112.0;Windows;10;undefined;undefined;1024 x 768;1024 x 768
H006;52;Mannelijk;Rechts;4;36;left;no;400;leftarrow;936;true;focus;yes;785077;Chrome;112.0;Windows;10;undefined;undefined;1024 x 768;1024 x 768
H006;52;Mannelijk;Rechts;4;37;left;yes;400;undefined;null;true;focus;yes;787110;Chrome;112.0;Windows;10;undefined;undefined;1024 x 768;1024 x 768
H006;52;Mannelijk;Rechts;4;38;right;no;450;rightarrow;640;true;focus;yes;788545;Chrome;112.0;Windows;10;undefined;undefined;1024 x 768;1024 x 768
H006;52;Mannelijk;Rechts;4;39;right;no;450;rightarrow;830;true;focus;yes;790145;Chrome;112.0;Windows;10;undefined;undefined;1024 x 768;1024 x 768
H006;52;Mannelijk;Rechts;4;40;left;no;450;leftarrow;839;true;focus;yes;791752;Chrome;112.0;Windows;10;undefined;undefined;1024 x 768;1024 x 768
H006;52;Mannelijk;Rechts;4;41;right;yes;450;undefined;null;true;focus;yes;793789;Chrome;112.0;Windows;10;undefined;undefined;1024 x 768;1024 x 768
H006;52;Mannelijk;Rechts;4;42;left;yes;500;leftarrow;657;false;focus;yes;795220;Chrome;112.0;Windows;10;undefined;undefined;1024 x 768;1024 x 768
H006;52;Mannelijk;Rechts;4;43;right;no;450;rightarrow;729;true;focus;yes;796733;Chrome;112.0;Windows;10;undefined;undefined;1024 x 768;1024 x 768
H006;52;Mannelijk;Rechts;4;44;right;no;450;rightarrow;821;true;focus;yes;798345;Chrome;112.0;Windows;10;undefined;undefined;1024 x 768;1024 x 768
H006;52;Mannelijk;Rechts;4;45;right;no;450;rightarrow;840;true;focus;yes;799950;Chrome;112.0;Windows;10;undefined;undefined;1024 x 768;1024 x 768
H006;52;Mannelijk;Rechts;4;46;left;no;450;leftarrow;893;true;focus;yes;801628;Chrome;112.0;Windows;10;undefined;undefined;1024 x 768;1024 x 768
H006;52;Mannelijk;Rechts;4;47;left;no;450;leftarrow;1019;true;focus;yes;803441;Chrome;112.0;Windows;10;undefined;undefined;1024 x 768;1024 x 768
H006;52;Mannelijk;Rechts;4;48;left;no;450;leftarrow;780;true;focus;yes;804993;Chrome;112.0;Windows;10;undefined;undefined;1024 x 768;1024 x 768
H006;52;Mannelijk;Rechts;4;49;left;no;450;leftarrow;995;true;focus;yes;806785;Chrome;112.0;Windows;10;undefined;undefined;1024 x 768;1024 x 768
H006;52;Mannelijk;Rechts;4;50;left;no;450;leftarrow;1048;true;focus;yes;808612;Chrome;112.0;Windows;10;undefined;undefined;1024 x 768;1024 x 768
H006;52;Mannelijk;Rechts;4;51;right;no;450;rightarrow;971;true;focus;yes;810362;Chrome;112.0;Windows;10;undefined;undefined;1024 x 768;1024 x 768
H006;52;Mannelijk;Rechts;4;52;left;yes;450;undefined;null;true;focus;yes;812408;Chrome;112.0;Windows;10;undefined;undefined;1024 x 768;1024 x 768
H006;52;Mannelijk;Rechts;4;53;right;yes;500;rightarrow;706;false;focus;yes;813878;Chrome;112.0;Windows;10;undefined;undefined;1024 x 768;1024 x 768
H006;52;Mannelijk;Rechts;4;54;right;no;450;rightarrow;876;true;focus;yes;815533;Chrome;112.0;Windows;10;undefined;undefined;1024 x 768;1024 x 768
H006;52;Mannelijk;Rechts;4;55;left;no;450;leftarrow;1133;true;focus;yes;817446;Chrome;112.0;Windows;10;undefined;undefined;1024 x 768;1024 x 768
H006;52;Mannelijk;Rechts;4;56;right;no;450;rightarrow;838;true;focus;yes;819051;Chrome;112.0;Windows;10;undefined;undefined;1024 x 768;1024 x 768
H006;52;Mannelijk;Rechts;4;57;left;no;450;leftarrow;944;true;focus;yes;820758;Chrome;112.0;Windows;10;undefined;undefined;1024 x 768;1024 x 768
H006;52;Mannelijk;Rechts;4;58;left;no;450;leftarrow;1205;true;focus;yes;822736;Chrome;112.0;Windows;10;undefined;undefined;1024 x 768;1024 x 768
H006;52;Mannelijk;Rechts;4;59;right;yes;450;undefined;null;true;focus;yes;824764;Chrome;112.0;Windows;10;undefined;undefined;1024 x 768;1024 x 768
H006;52;Mannelijk;Rechts;4;60;right;no;500;rightarrow;750;true;focus;yes;826283;Chrome;112.0;Windows;10;undefined;undefined;1024 x 768;1024 x 768
H006;52;Mannelijk;Rechts;4;61;left;no;500;leftarrow;897;true;focus;yes;827976;Chrome;112.0;Windows;10;undefined;undefined;1024 x 768;1024 x 768
H006;52;Mannelijk;Rechts;4;62;left;yes;500;undefined;null;true;focus;yes;830001;Chrome;112.0;Windows;10;undefined;undefined;1024 x 768;1024 x 768
H006;52;Mannelijk;Rechts;4;63;right;no;550;rightarrow;716;true;focus;yes;831486;Chrome;112.0;Windows;10;undefined;undefined;1024 x 768;1024 x 768
H006;52;Mannelijk;Rechts;4;64;right;no;550;rightarrow;842;true;focus;yes;833095;Chrome;112.0;Windows;10;undefined;undefined;1024 x 768;1024 x 768
H006;52;Mannelijk;Rechts;4;65;left;no;550;leftarrow;924;true;focus;yes;834809;Chrome;112.0;Windows;10;undefined;undefined;1024 x 768;1024 x 768
H006;52;Mannelijk;Rechts;4;66;right;yes;550;undefined;null;true;focus;yes;836829;Chrome;112.0;Windows;10;undefined;undefined;1024 x 768;1024 x 768
H006;52;Mannelijk;Rechts;4;67;left;no;600;leftarrow;610;true;focus;yes;838223;Chrome;112.0;Windows;10;undefined;undefined;1024 x 768;1024 x 768
H006;52;Mannelijk;Rechts;4;68;left;yes;600;leftarrow;720;false;focus;yes;839721;Chrome;112.0;Windows;10;undefined;undefined;1024 x 768;1024 x 768
H006;52;Mannelijk;Rechts;4;69;right;no;550;rightarrow;1033;true;focus;yes;841533;Chrome;112.0;Windows;10;undefined;undefined;1024 x 768;1024 x 768
H006;52;Mannelijk;Rechts;4;70;left;no;550;leftarrow;922;true;focus;yes;843235;Chrome;112.0;Windows;10;undefined;undefined;1024 x 768;1024 x 768
H006;52;Mannelijk;Rechts;4;71;right;no;550;rightarrow;707;true;focus;yes;844720;Chrome;112.0;Windows;10;undefined;undefined;1024 x 768;1024 x 768
H006;52;Mannelijk;Rechts;4;72;right;no;550;rightarrow;804;true;focus;yes;846304;Chrome;112.0;Windows;10;undefined;undefined;1024 x 768;1024 x 768
H006;52;Mannelijk;Rechts;4;73;right;yes;550;rightarrow;442;false;focus;yes;847529;Chrome;112.0;Windows;10;undefined;undefined;1024 x 768;1024 x 768
H006;52;Mannelijk;Rechts;4;74;right;no;500;rightarrow;674;true;focus;yes;848971;Chrome;112.0;Windows;10;undefined;undefined;1024 x 768;1024 x 768
H006;52;Mannelijk;Rechts;4;75;left;no;500;leftarrow;858;true;focus;yes;850608;Chrome;112.0;Windows;10;undefined;undefined;1024 x 768;1024 x 768
H006;52;Mannelijk;Rechts;4;76;right;no;500;rightarrow;868;true;focus;yes;852243;Chrome;112.0;Windows;10;undefined;undefined;1024 x 768;1024 x 768
H006;52;Mannelijk;Rechts;4;77;left;yes;500;undefined;null;true;focus;yes;854283;Chrome;112.0;Windows;10;undefined;undefined;1024 x 768;1024 x 768
H006;52;Mannelijk;Rechts;4;78;right;no;550;rightarrow;672;true;focus;yes;855736;Chrome;112.0;Windows;10;undefined;undefined;1024 x 768;1024 x 768
H006;52;Mannelijk;Rechts;4;79;left;no;550;leftarrow;739;true;focus;yes;857252;Chrome;112.0;Windows;10;undefined;undefined;1024 x 768;1024 x 768
H006;52;Mannelijk;Rechts;4;80;left;no;550;leftarrow;964;true;focus;yes;858995;Chrome;112.0;Windows;10;undefined;undefined;1024 x 768;1024 x 768
H006;52;Mannelijk;Rechts;4;81;right;yes;550;undefined;null;true;focus;yes;861031;Chrome;112.0;Windows;10;undefined;undefined;1024 x 768;1024 x 768
H006;52;Mannelijk;Rechts;4;82;left;no;600;leftarrow;534;true;focus;yes;862331;Chrome;112.0;Windows;10;undefined;undefined;1024 x 768;1024 x 768
H006;52;Mannelijk;Rechts;4;83;right;no;600;rightarrow;705;true;focus;yes;863830;Chrome;112.0;Windows;10;undefined;undefined;1024 x 768;1024 x 768
H006;52;Mannelijk;Rechts;4;84;right;no;600;rightarrow;873;true;focus;yes;865483;Chrome;112.0;Windows;10;undefined;undefined;1024 x 768;1024 x 768
H006;52;Mannelijk;Rechts;4;85;right;no;600;rightarrow;900;true;focus;yes;867177;Chrome;112.0;Windows;10;undefined;undefined;1024 x 768;1024 x 768
H006;52;Mannelijk;Rechts;4;86;left;no;600;leftarrow;962;true;focus;yes;868915;Chrome;112.0;Windows;10;undefined;undefined;1024 x 768;1024 x 768
H006;52;Mannelijk;Rechts;4;87;left;yes;600;leftarrow;814;false;focus;yes;870517;Chrome;112.0;Windows;10;undefined;undefined;1024 x 768;1024 x 768
H006;52;Mannelijk;Rechts;4;88;left;no;550;leftarrow;798;true;focus;yes;872095;Chrome;112.0;Windows;10;undefined;undefined;1024 x 768;1024 x 768
H006;52;Mannelijk;Rechts;4;89;right;no;550;rightarrow;1142;true;focus;yes;874017;Chrome;112.0;Windows;10;undefined;undefined;1024 x 768;1024 x 768
H006;52;Mannelijk;Rechts;4;90;left;yes;550;undefined;null;true;focus;yes;876058;Chrome;112.0;Windows;10;undefined;undefined;1024 x 768;1024 x 768
H006;52;Mannelijk;Rechts;4;91;right;no;600;rightarrow;1002;true;focus;yes;877830;Chrome;112.0;Windows;10;undefined;undefined;1024 x 768;1024 x 768
H006;52;Mannelijk;Rechts;4;92;right;no;600;rightarrow;961;true;focus;yes;879565;Chrome;112.0;Windows;10;undefined;undefined;1024 x 768;1024 x 768
H006;52;Mannelijk;Rechts;4;93;right;yes;600;undefined;null;true;focus;yes;881602;Chrome;112.0;Windows;10;undefined;undefined;1024 x 768;1024 x 768
H006;52;Mannelijk;Rechts;4;94;left;no;650;leftarrow;752;true;focus;yes;883137;Chrome;112.0;Windows;10;undefined;undefined;1024 x 768;1024 x 768
H006;52;Mannelijk;Rechts;4;95;left;no;650;leftarrow;860;true;focus;yes;884767;Chrome;112.0;Windows;10;undefined;undefined;1024 x 768;1024 x 768
H006;52;Mannelijk;Rechts;4;96;left;no;650;leftarrow;917;true;focus;yes;886464;Chrome;112.0;Windows;10;undefined;undefined;1024 x 768;1024 x 768
H006;52;Mannelijk;Rechts;4;97;right;no;650;rightarrow;910;true;focus;yes;888160;Chrome;112.0;Windows;10;undefined;undefined;1024 x 768;1024 x 768
H006;52;Mannelijk;Rechts;4;98;right;no;650;rightarrow;997;true;focus;yes;889936;Chrome;112.0;Windows;10;undefined;undefined;1024 x 768;1024 x 768
H006;52;Mannelijk;Rechts;4;99;right;no;650;rightarrow;776;true;focus;yes;891497;Chrome;112.0;Windows;10;undefined;undefined;1024 x 768;1024 x 768
H006;52;Mannelijk;Rechts;4;100;left;no;650;leftarrow;939;true;focus;yes;893205;Chrome;112.0;Windows;10;undefined;undefined;1024 x 768;1024 x 768
H006;52;Mannelijk;Rechts;4;101;right;yes;650;undefined;null;true;focus;yes;895251;Chrome;112.0;Windows;10;undefined;undefined;1024 x 768;1024 x 768
H006;52;Mannelijk;Rechts;4;102;left;no;700;leftarrow;928;true;focus;yes;896959;Chrome;112.0;Windows;10;undefined;undefined;1024 x 768;1024 x 768
H006;52;Mannelijk;Rechts;4;103;left;no;700;leftarrow;835;true;focus;yes;898585;Chrome;112.0;Windows;10;undefined;undefined;1024 x 768;1024 x 768
H006;52;Mannelijk;Rechts;4;104;left;yes;700;undefined;null;true;focus;yes;900627;Chrome;112.0;Windows;10;undefined;undefined;1024 x 768;1024 x 768
H006;52;Mannelijk;Rechts;4;105;right;no;750;rightarrow;688;true;focus;yes;902096;Chrome;112.0;Windows;10;undefined;undefined;1024 x 768;1024 x 768
H006;52;Mannelijk;Rechts;4;106;left;no;750;leftarrow;1078;true;focus;yes;903954;Chrome;112.0;Windows;10;undefined;undefined;1024 x 768;1024 x 768
H006;52;Mannelijk;Rechts;4;107;right;yes;750;undefined;null;true;focus;yes;905996;Chrome;112.0;Windows;10;undefined;undefined;1024 x 768;1024 x 768
H006;52;Mannelijk;Rechts;4;108;left;yes;800;leftarrow;661;false;focus;yes;907425;Chrome;112.0;Windows;10;undefined;undefined;1024 x 768;1024 x 768
H006;52;Mannelijk;Rechts;4;109;right;no;750;rightarrow;649;true;focus;yes;908858;Chrome;112.0;Windows;10;undefined;undefined;1024 x 768;1024 x 768
H006;52;Mannelijk;Rechts;4;110;right;no;750;rightarrow;830;true;focus;yes;910456;Chrome;112.0;Windows;10;undefined;undefined;1024 x 768;1024 x 768
H006;52;Mannelijk;Rechts;4;111;left;no;750;leftarrow;1048;true;focus;yes;912284;Chrome;112.0;Windows;10;undefined;undefined;1024 x 768;1024 x 768
H006;52;Mannelijk;Rechts;4;112;left;no;750;leftarrow;1212;true;focus;yes;914282;Chrome;112.0;Windows;10;undefined;undefined;1024 x 768;1024 x 768
H006;52;Mannelijk;Rechts;4;113;left;no;750;leftarrow;828;true;focus;yes;915894;Chrome;112.0;Windows;10;undefined;undefined;1024 x 768;1024 x 768
H006;52;Mannelijk;Rechts;4;114;right;no;750;rightarrow;839;true;focus;yes;917503;Chrome;112.0;Windows;10;undefined;undefined;1024 x 768;1024 x 768
H006;52;Mannelijk;Rechts;4;115;right;no;750;rightarrow;564;true;focus;yes;918846;Chrome;112.0;Windows;10;undefined;undefined;1024 x 768;1024 x 768
H006;52;Mannelijk;Rechts;4;116;left;no;750;leftarrow;1039;true;focus;yes;920666;Chrome;112.0;Windows;10;undefined;undefined;1024 x 768;1024 x 768
H006;52;Mannelijk;Rechts;4;117;left;yes;750;undefined;null;true;focus;yes;922700;Chrome;112.0;Windows;10;undefined;undefined;1024 x 768;1024 x 768
H006;52;Mannelijk;Rechts;4;118;left;no;800;leftarrow;798;true;focus;yes;924262;Chrome;112.0;Windows;10;undefined;undefined;1024 x 768;1024 x 768
H006;52;Mannelijk;Rechts;4;119;right;no;800;rightarrow;1076;true;focus;yes;926105;Chrome;112.0;Windows;10;undefined;undefined;1024 x 768;1024 x 768
H006;52;Mannelijk;Rechts;4;120;right;yes;800;rightarrow;1022;false;focus;yes;927915;Chrome;112.0;Windows;10;undefined;undefined;1024 x 768;1024 x 768
H006;52;Mannelijk;Rechts;4;121;left;no;750;leftarrow;555;true;focus;yes;929244;Chrome;112.0;Windows;10;undefined;undefined;1024 x 768;1024 x 768
H006;52;Mannelijk;Rechts;4;122;left;no;750;leftarrow;1036;true;focus;yes;931049;Chrome;112.0;Windows;10;undefined;undefined;1024 x 768;1024 x 768
H006;52;Mannelijk;Rechts;4;123;right;no;750;rightarrow;1049;true;focus;yes;932878;Chrome;112.0;Windows;10;undefined;undefined;1024 x 768;1024 x 768
H006;52;Mannelijk;Rechts;4;124;left;no;750;leftarrow;1011;true;focus;yes;934668;Chrome;112.0;Windows;10;undefined;undefined;1024 x 768;1024 x 768
H006;52;Mannelijk;Rechts;4;125;right;no;750;rightarrow;924;true;focus;yes;936378;Chrome;112.0;Windows;10;undefined;undefined;1024 x 768;1024 x 768
H006;52;Mannelijk;Rechts;4;126;right;yes;750;undefined;null;true;focus;yes;938410;Chrome;112.0;Windows;10;undefined;undefined;1024 x 768;1024 x 768
H006;52;Mannelijk;Rechts;4;127;left;yes;800;leftarrow;903;false;focus;yes;940093;Chrome;112.0;Windows;10;undefined;undefined;1024 x 768;1024 x 768
H006;52;Mannelijk;Rechts;4;128;right;no;750;rightarrow;608;true;focus;yes;941484;Chrome;112.0;Windows;10;undefined;undefined;1024 x 768;1024 x 768
H006;52;Mannelijk;Rechts;5;1;left;no;750;leftarrow;523;true;focus;yes;961477;Chrome;112.0;Windows;10;undefined;undefined;1024 x 768;1024 x 768
H006;52;Mannelijk;Rechts;5;2;left;yes;750;leftarrow;762;false;focus;yes;963025;Chrome;112.0;Windows;10;undefined;undefined;1024 x 768;1024 x 768
H006;52;Mannelijk;Rechts;5;3;right;no;700;rightarrow;596;true;focus;yes;964393;Chrome;112.0;Windows;10;undefined;undefined;1024 x 768;1024 x 768
H006;52;Mannelijk;Rechts;5;4;right;no;700;rightarrow;933;true;focus;yes;966096;Chrome;112.0;Windows;10;undefined;undefined;1024 x 768;1024 x 768
H006;52;Mannelijk;Rechts;5;5;left;no;700;leftarrow;1113;true;focus;yes;967989;Chrome;112.0;Windows;10;undefined;undefined;1024 x 768;1024 x 768
H006;52;Mannelijk;Rechts;5;6;right;no;700;rightarrow;1066;true;focus;yes;969829;Chrome;112.0;Windows;10;undefined;undefined;1024 x 768;1024 x 768
H006;52;Mannelijk;Rechts;5;7;left;no;700;leftarrow;845;true;focus;yes;971455;Chrome;112.0;Windows;10;undefined;undefined;1024 x 768;1024 x 768
H006;52;Mannelijk;Rechts;5;8;right;yes;700;rightarrow;876;false;focus;yes;973111;Chrome;112.0;Windows;10;undefined;undefined;1024 x 768;1024 x 768
H006;52;Mannelijk;Rechts;5;9;right;yes;650;rightarrow;921;false;focus;yes;974818;Chrome;112.0;Windows;10;undefined;undefined;1024 x 768;1024 x 768
H006;52;Mannelijk;Rechts;5;10;right;no;600;rightarrow;1167;true;focus;yes;976752;Chrome;112.0;Windows;10;undefined;undefined;1024 x 768;1024 x 768
H006;52;Mannelijk;Rechts;5;11;left;no;600;undefined;null;false;focus;yes;978789;Chrome;112.0;Windows;10;undefined;undefined;1024 x 768;1024 x 768
H006;52;Mannelijk;Rechts;5;12;right;no;600;rightarrow;796;true;focus;yes;980358;Chrome;112.0;Windows;10;undefined;undefined;1024 x 768;1024 x 768
H006;52;Mannelijk;Rechts;5;13;right;no;600;rightarrow;645;true;focus;yes;981786;Chrome;112.0;Windows;10;undefined;undefined;1024 x 768;1024 x 768
H006;52;Mannelijk;Rechts;5;14;left;no;600;leftarrow;720;true;focus;yes;983289;Chrome;112.0;Windows;10;undefined;undefined;1024 x 768;1024 x 768
H006;52;Mannelijk;Rechts;5;15;left;no;600;leftarrow;799;true;focus;yes;984861;Chrome;112.0;Windows;10;undefined;undefined;1024 x 768;1024 x 768
H006;52;Mannelijk;Rechts;5;16;left;yes;600;undefined;null;true;focus;yes;986893;Chrome;112.0;Windows;10;undefined;undefined;1024 x 768;1024 x 768
H006;52;Mannelijk;Rechts;5;17;right;yes;650;rightarrow;767;false;focus;yes;988423;Chrome;112.0;Windows;10;undefined;undefined;1024 x 768;1024 x 768
H006;52;Mannelijk;Rechts;5;18;left;yes;600;leftarrow;622;false;focus;yes;989825;Chrome;112.0;Windows;10;undefined;undefined;1024 x 768;1024 x 768
H006;52;Mannelijk;Rechts;5;19;left;no;550;leftarrow;908;true;focus;yes;991502;Chrome;112.0;Windows;10;undefined;undefined;1024 x 768;1024 x 768
H006;52;Mannelijk;Rechts;5;20;right;no;550;rightarrow;843;true;focus;yes;993112;Chrome;112.0;Windows;10;undefined;undefined;1024 x 768;1024 x 768
H006;52;Mannelijk;Rechts;5;21;right;no;550;rightarrow;803;true;focus;yes;994697;Chrome;112.0;Windows;10;undefined;undefined;1024 x 768;1024 x 768
H006;52;Mannelijk;Rechts;5;22;right;no;550;rightarrow;752;true;focus;yes;996215;Chrome;112.0;Windows;10;undefined;undefined;1024 x 768;1024 x 768
H006;52;Mannelijk;Rechts;5;23;left;no;550;leftarrow;791;true;focus;yes;997801;Chrome;112.0;Windows;10;undefined;undefined;1024 x 768;1024 x 768
H006;52;Mannelijk;Rechts;5;24;left;no;550;leftarrow;1158;true;focus;yes;999722;Chrome;112.0;Windows;10;undefined;undefined;1024 x 768;1024 x 768
H006;52;Mannelijk;Rechts;5;25;right;no;550;rightarrow;674;true;focus;yes;1001185;Chrome;112.0;Windows;10;undefined;undefined;1024 x 768;1024 x 768
H006;52;Mannelijk;Rechts;5;26;right;no;550;rightarrow;668;true;focus;yes;1002612;Chrome;112.0;Windows;10;undefined;undefined;1024 x 768;1024 x 768
H006;52;Mannelijk;Rechts;5;27;left;no;550;leftarrow;548;true;focus;yes;1003939;Chrome;112.0;Windows;10;undefined;undefined;1024 x 768;1024 x 768
H006;52;Mannelijk;Rechts;5;28;right;yes;550;rightarrow;835;false;focus;yes;1005548;Chrome;112.0;Windows;10;undefined;undefined;1024 x 768;1024 x 768
H006;52;Mannelijk;Rechts;5;29;right;no;500;rightarrow;932;true;focus;yes;1007261;Chrome;112.0;Windows;10;undefined;undefined;1024 x 768;1024 x 768
H006;52;Mannelijk;Rechts;5;30;left;no;500;leftarrow;875;true;focus;yes;1008924;Chrome;112.0;Windows;10;undefined;undefined;1024 x 768;1024 x 768
H006;52;Mannelijk;Rechts;5;31;left;no;500;leftarrow;821;true;focus;yes;1010534;Chrome;112.0;Windows;10;undefined;undefined;1024 x 768;1024 x 768
H006;52;Mannelijk;Rechts;5;32;left;yes;500;undefined;null;true;focus;yes;1012564;Chrome;112.0;Windows;10;undefined;undefined;1024 x 768;1024 x 768
H006;52;Mannelijk;Rechts;5;33;left;no;550;leftarrow;684;true;focus;yes;1014034;Chrome;112.0;Windows;10;undefined;undefined;1024 x 768;1024 x 768
H006;52;Mannelijk;Rechts;5;34;right;no;550;rightarrow;673;true;focus;yes;1015486;Chrome;112.0;Windows;10;undefined;undefined;1024 x 768;1024 x 768
H006;52;Mannelijk;Rechts;5;35;left;no;550;leftarrow;698;true;focus;yes;1016961;Chrome;112.0;Windows;10;undefined;undefined;1024 x 768;1024 x 768
H006;52;Mannelijk;Rechts;5;36;right;yes;550;rightarrow;798;false;focus;yes;1018548;Chrome;112.0;Windows;10;undefined;undefined;1024 x 768;1024 x 768
H006;52;Mannelijk;Rechts;5;37;right;no;500;rightarrow;782;true;focus;yes;1020111;Chrome;112.0;Windows;10;undefined;undefined;1024 x 768;1024 x 768
H006;52;Mannelijk;Rechts;5;38;left;yes;500;leftarrow;704;false;focus;yes;1021596;Chrome;112.0;Windows;10;undefined;undefined;1024 x 768;1024 x 768
H006;52;Mannelijk;Rechts;5;39;right;no;450;rightarrow;549;true;focus;yes;1022925;Chrome;112.0;Windows;10;undefined;undefined;1024 x 768;1024 x 768
H006;52;Mannelijk;Rechts;5;40;left;no;450;leftarrow;972;true;focus;yes;1024677;Chrome;112.0;Windows;10;undefined;undefined;1024 x 768;1024 x 768
H006;52;Mannelijk;Rechts;5;41;left;no;450;leftarrow;635;true;focus;yes;1026106;Chrome;112.0;Windows;10;undefined;undefined;1024 x 768;1024 x 768
H006;52;Mannelijk;Rechts;5;42;left;no;450;leftarrow;906;true;focus;yes;1027784;Chrome;112.0;Windows;10;undefined;undefined;1024 x 768;1024 x 768
H006;52;Mannelijk;Rechts;5;43;right;yes;450;undefined;null;true;focus;yes;1029822;Chrome;112.0;Windows;10;undefined;undefined;1024 x 768;1024 x 768
H006;52;Mannelijk;Rechts;5;44;left;yes;500;undefined;null;true;focus;yes;1031853;Chrome;112.0;Windows;10;undefined;undefined;1024 x 768;1024 x 768
H006;52;Mannelijk;Rechts;5;45;right;no;550;rightarrow;876;true;focus;yes;1033503;Chrome;112.0;Windows;10;undefined;undefined;1024 x 768;1024 x 768
H006;52;Mannelijk;Rechts;5;46;left;no;550;leftarrow;1117;true;focus;yes;1035385;Chrome;112.0;Windows;10;undefined;undefined;1024 x 768;1024 x 768
H006;52;Mannelijk;Rechts;5;47;right;no;550;rightarrow;1120;true;focus;yes;1037284;Chrome;112.0;Windows;10;undefined;undefined;1024 x 768;1024 x 768
H006;52;Mannelijk;Rechts;5;48;right;no;550;rightarrow;1119;true;focus;yes;1039184;Chrome;112.0;Windows;10;undefined;undefined;1024 x 768;1024 x 768
H006;52;Mannelijk;Rechts;5;49;right;no;550;undefined;null;false;focus;yes;1041215;Chrome;112.0;Windows;10;undefined;undefined;1024 x 768;1024 x 768
H006;52;Mannelijk;Rechts;5;50;right;no;550;rightarrow;985;true;focus;yes;1042972;Chrome;112.0;Windows;10;undefined;undefined;1024 x 768;1024 x 768
H006;52;Mannelijk;Rechts;5;51;left;no;550;leftarrow;676;true;focus;yes;1044450;Chrome;112.0;Windows;10;undefined;undefined;1024 x 768;1024 x 768
H006;52;Mannelijk;Rechts;5;52;right;no;550;rightarrow;654;true;focus;yes;1045868;Chrome;112.0;Windows;10;undefined;undefined;1024 x 768;1024 x 768
H006;52;Mannelijk;Rechts;5;53;left;no;550;leftarrow;988;true;focus;yes;1047648;Chrome;112.0;Windows;10;undefined;undefined;1024 x 768;1024 x 768
H006;52;Mannelijk;Rechts;5;54;right;yes;550;rightarrow;657;false;focus;yes;1049098;Chrome;112.0;Windows;10;undefined;undefined;1024 x 768;1024 x 768
H006;52;Mannelijk;Rechts;5;55;left;no;500;leftarrow;689;true;focus;yes;1050569;Chrome;112.0;Windows;10;undefined;undefined;1024 x 768;1024 x 768
H006;52;Mannelijk;Rechts;5;56;left;yes;500;leftarrow;786;false;focus;yes;1052131;Chrome;112.0;Windows;10;undefined;undefined;1024 x 768;1024 x 768
H006;52;Mannelijk;Rechts;5;57;right;no;450;rightarrow;736;true;focus;yes;1053644;Chrome;112.0;Windows;10;undefined;undefined;1024 x 768;1024 x 768
H006;52;Mannelijk;Rechts;5;58;left;no;450;leftarrow;656;true;focus;yes;1055081;Chrome;112.0;Windows;10;undefined;undefined;1024 x 768;1024 x 768
H006;52;Mannelijk;Rechts;5;59;right;yes;450;rightarrow;718;false;focus;yes;1056580;Chrome;112.0;Windows;10;undefined;undefined;1024 x 768;1024 x 768
H006;52;Mannelijk;Rechts;5;60;left;no;400;leftarrow;766;true;focus;yes;1058127;Chrome;112.0;Windows;10;undefined;undefined;1024 x 768;1024 x 768
H006;52;Mannelijk;Rechts;5;61;right;no;400;rightarrow;878;true;focus;yes;1059784;Chrome;112.0;Windows;10;undefined;undefined;1024 x 768;1024 x 768
H006;52;Mannelijk;Rechts;5;62;right;no;400;rightarrow;1047;true;focus;yes;1061628;Chrome;112.0;Windows;10;undefined;undefined;1024 x 768;1024 x 768
H006;52;Mannelijk;Rechts;5;63;left;yes;400;undefined;null;true;focus;yes;1063674;Chrome;112.0;Windows;10;undefined;undefined;1024 x 768;1024 x 768
H006;52;Mannelijk;Rechts;5;64;left;no;450;leftarrow;899;true;focus;yes;1065353;Chrome;112.0;Windows;10;undefined;undefined;1024 x 768;1024 x 768
H006;52;Mannelijk;Rechts;5;65;right;no;450;rightarrow;876;true;focus;yes;1067018;Chrome;112.0;Windows;10;undefined;undefined;1024 x 768;1024 x 768
H006;52;Mannelijk;Rechts;5;66;right;yes;450;rightarrow;580;false;focus;yes;1068394;Chrome;112.0;Windows;10;undefined;undefined;1024 x 768;1024 x 768
H006;52;Mannelijk;Rechts;5;67;right;no;400;rightarrow;855;true;focus;yes;1070019;Chrome;112.0;Windows;10;undefined;undefined;1024 x 768;1024 x 768
H006;52;Mannelijk;Rechts;5;68;right;no;400;rightarrow;1018;true;focus;yes;1071816;Chrome;112.0;Windows;10;undefined;undefined;1024 x 768;1024 x 768
H006;52;Mannelijk;Rechts;5;69;left;no;400;leftarrow;659;true;focus;yes;1073254;Chrome;112.0;Windows;10;undefined;undefined;1024 x 768;1024 x 768
H006;52;Mannelijk;Rechts;5;70;left;no;400;leftarrow;1018;true;focus;yes;1075035;Chrome;112.0;Windows;10;undefined;undefined;1024 x 768;1024 x 768
H006;52;Mannelijk;Rechts;5;71;left;yes;400;undefined;null;true;focus;yes;1077082;Chrome;112.0;Windows;10;undefined;undefined;1024 x 768;1024 x 768
H006;52;Mannelijk;Rechts;5;72;left;no;450;leftarrow;907;true;focus;yes;1078769;Chrome;112.0;Windows;10;undefined;undefined;1024 x 768;1024 x 768
H006;52;Mannelijk;Rechts;5;73;right;no;450;rightarrow;983;true;focus;yes;1080527;Chrome;112.0;Windows;10;undefined;undefined;1024 x 768;1024 x 768
H006;52;Mannelijk;Rechts;5;74;left;yes;450;undefined;null;true;focus;yes;1082564;Chrome;112.0;Windows;10;undefined;undefined;1024 x 768;1024 x 768
H006;52;Mannelijk;Rechts;5;75;right;no;500;rightarrow;782;true;focus;yes;1084127;Chrome;112.0;Windows;10;undefined;undefined;1024 x 768;1024 x 768
H006;52;Mannelijk;Rechts;5;76;right;no;500;rightarrow;800;true;focus;yes;1085706;Chrome;112.0;Windows;10;undefined;undefined;1024 x 768;1024 x 768
H006;52;Mannelijk;Rechts;5;77;right;yes;500;undefined;null;true;focus;yes;1087736;Chrome;112.0;Windows;10;undefined;undefined;1024 x 768;1024 x 768
H006;52;Mannelijk;Rechts;5;78;left;no;550;leftarrow;785;true;focus;yes;1089298;Chrome;112.0;Windows;10;undefined;undefined;1024 x 768;1024 x 768
H006;52;Mannelijk;Rechts;5;79;left;no;550;leftarrow;642;true;focus;yes;1090736;Chrome;112.0;Windows;10;undefined;undefined;1024 x 768;1024 x 768
H006;52;Mannelijk;Rechts;5;80;left;no;550;leftarrow;1126;true;focus;yes;1092639;Chrome;112.0;Windows;10;undefined;undefined;1024 x 768;1024 x 768
H006;52;Mannelijk;Rechts;5;81;left;yes;550;undefined;null;true;focus;yes;1094675;Chrome;112.0;Windows;10;undefined;undefined;1024 x 768;1024 x 768
H006;52;Mannelijk;Rechts;5;82;left;no;600;leftarrow;1077;true;focus;yes;1096531;Chrome;112.0;Windows;10;undefined;undefined;1024 x 768;1024 x 768
H006;52;Mannelijk;Rechts;5;83;right;no;600;rightarrow;1063;true;focus;yes;1098376;Chrome;112.0;Windows;10;undefined;undefined;1024 x 768;1024 x 768
H006;52;Mannelijk;Rechts;5;84;left;no;600;leftarrow;1133;true;focus;yes;1100289;Chrome;112.0;Windows;10;undefined;undefined;1024 x 768;1024 x 768
H006;52;Mannelijk;Rechts;5;85;left;no;600;leftarrow;931;true;focus;yes;1101994;Chrome;112.0;Windows;10;undefined;undefined;1024 x 768;1024 x 768
H006;52;Mannelijk;Rechts;5;86;right;no;600;rightarrow;1099;true;focus;yes;1103880;Chrome;112.0;Windows;10;undefined;undefined;1024 x 768;1024 x 768
H006;52;Mannelijk;Rechts;5;87;right;yes;600;undefined;null;true;focus;yes;1105908;Chrome;112.0;Windows;10;undefined;undefined;1024 x 768;1024 x 768
H006;52;Mannelijk;Rechts;5;88;right;no;650;rightarrow;935;true;focus;yes;1107608;Chrome;112.0;Windows;10;undefined;undefined;1024 x 768;1024 x 768
H006;52;Mannelijk;Rechts;5;89;right;no;650;rightarrow;888;true;focus;yes;1109279;Chrome;112.0;Windows;10;undefined;undefined;1024 x 768;1024 x 768
H006;52;Mannelijk;Rechts;5;90;left;no;650;leftarrow;922;true;focus;yes;1110986;Chrome;112.0;Windows;10;undefined;undefined;1024 x 768;1024 x 768
H006;52;Mannelijk;Rechts;5;91;right;no;650;rightarrow;882;true;focus;yes;1112664;Chrome;112.0;Windows;10;undefined;undefined;1024 x 768;1024 x 768
H006;52;Mannelijk;Rechts;5;92;right;no;650;rightarrow;898;true;focus;yes;1114351;Chrome;112.0;Windows;10;undefined;undefined;1024 x 768;1024 x 768
H006;52;Mannelijk;Rechts;5;93;left;yes;650;leftarrow;996;false;focus;yes;1116138;Chrome;112.0;Windows;10;undefined;undefined;1024 x 768;1024 x 768
H006;52;Mannelijk;Rechts;5;94;left;no;600;leftarrow;962;true;focus;yes;1117884;Chrome;112.0;Windows;10;undefined;undefined;1024 x 768;1024 x 768
H006;52;Mannelijk;Rechts;5;95;left;no;600;leftarrow;1044;true;focus;yes;1119721;Chrome;112.0;Windows;10;undefined;undefined;1024 x 768;1024 x 768
H006;52;Mannelijk;Rechts;5;96;right;yes;600;undefined;null;true;focus;yes;1121751;Chrome;112.0;Windows;10;undefined;undefined;1024 x 768;1024 x 768
H006;52;Mannelijk;Rechts;5;97;left;no;650;leftarrow;1039;true;focus;yes;1123571;Chrome;112.0;Windows;10;undefined;undefined;1024 x 768;1024 x 768
H006;52;Mannelijk;Rechts;5;98;left;no;650;leftarrow;1126;true;focus;yes;1125486;Chrome;112.0;Windows;10;undefined;undefined;1024 x 768;1024 x 768
H006;52;Mannelijk;Rechts;5;99;left;no;650;undefined;null;false;focus;yes;1127517;Chrome;112.0;Windows;10;undefined;undefined;1024 x 768;1024 x 768
H006;52;Mannelijk;Rechts;5;100;left;yes;650;undefined;null;true;focus;yes;1129556;Chrome;112.0;Windows;10;undefined;undefined;1024 x 768;1024 x 768
H006;52;Mannelijk;Rechts;5;101;right;no;700;rightarrow;972;true;focus;yes;1131300;Chrome;112.0;Windows;10;undefined;undefined;1024 x 768;1024 x 768
H006;52;Mannelijk;Rechts;5;102;right;no;700;rightarrow;924;true;focus;yes;1133019;Chrome;112.0;Windows;10;undefined;undefined;1024 x 768;1024 x 768
H006;52;Mannelijk;Rechts;5;103;right;yes;700;undefined;null;true;focus;yes;1135064;Chrome;112.0;Windows;10;undefined;undefined;1024 x 768;1024 x 768
H006;52;Mannelijk;Rechts;5;104;right;no;750;rightarrow;789;true;focus;yes;1136623;Chrome;112.0;Windows;10;undefined;undefined;1024 x 768;1024 x 768
H006;52;Mannelijk;Rechts;5;105;left;no;750;leftarrow;1077;true;focus;yes;1138468;Chrome;112.0;Windows;10;undefined;undefined;1024 x 768;1024 x 768
H006;52;Mannelijk;Rechts;5;106;left;yes;750;undefined;null;true;focus;yes;1140514;Chrome;112.0;Windows;10;undefined;undefined;1024 x 768;1024 x 768
H006;52;Mannelijk;Rechts;5;107;left;no;800;leftarrow;783;true;focus;yes;1142065;Chrome;112.0;Windows;10;undefined;undefined;1024 x 768;1024 x 768
H006;52;Mannelijk;Rechts;5;108;left;no;800;leftarrow;1075;true;focus;yes;1143920;Chrome;112.0;Windows;10;undefined;undefined;1024 x 768;1024 x 768
H006;52;Mannelijk;Rechts;5;109;right;no;800;rightarrow;945;true;focus;yes;1145650;Chrome;112.0;Windows;10;undefined;undefined;1024 x 768;1024 x 768
H006;52;Mannelijk;Rechts;5;110;right;no;800;rightarrow;983;true;focus;yes;1147423;Chrome;112.0;Windows;10;undefined;undefined;1024 x 768;1024 x 768
H006;52;Mannelijk;Rechts;5;111;right;no;800;rightarrow;1200;true;focus;yes;1149405;Chrome;112.0;Windows;10;undefined;undefined;1024 x 768;1024 x 768
H006;52;Mannelijk;Rechts;5;112;right;yes;800;undefined;null;true;focus;yes;1151447;Chrome;112.0;Windows;10;undefined;undefined;1024 x 768;1024 x 768
H006;52;Mannelijk;Rechts;5;113;right;no;850;rightarrow;941;true;focus;yes;1153154;Chrome;112.0;Windows;10;undefined;undefined;1024 x 768;1024 x 768
H006;52;Mannelijk;Rechts;5;114;right;yes;850;rightarrow;1061;false;focus;yes;1155000;Chrome;112.0;Windows;10;undefined;undefined;1024 x 768;1024 x 768
H006;52;Mannelijk;Rechts;5;115;left;no;800;leftarrow;768;true;focus;yes;1156549;Chrome;112.0;Windows;10;undefined;undefined;1024 x 768;1024 x 768
H006;52;Mannelijk;Rechts;5;116;left;no;800;undefined;null;false;focus;yes;1158597;Chrome;112.0;Windows;10;undefined;undefined;1024 x 768;1024 x 768
H006;52;Mannelijk;Rechts;5;117;left;no;800;leftarrow;954;true;focus;yes;1160346;Chrome;112.0;Windows;10;undefined;undefined;1024 x 768;1024 x 768
H006;52;Mannelijk;Rechts;5;118;left;yes;800;undefined;null;true;focus;yes;1162378;Chrome;112.0;Windows;10;undefined;undefined;1024 x 768;1024 x 768
H006;52;Mannelijk;Rechts;5;119;right;no;850;rightarrow;710;true;focus;yes;1163868;Chrome;112.0;Windows;10;undefined;undefined;1024 x 768;1024 x 768
H006;52;Mannelijk;Rechts;5;120;right;no;850;rightarrow;971;true;focus;yes;1165628;Chrome;112.0;Windows;10;undefined;undefined;1024 x 768;1024 x 768
H006;52;Mannelijk;Rechts;5;121;right;no;850;rightarrow;877;true;focus;yes;1167298;Chrome;112.0;Windows;10;undefined;undefined;1024 x 768;1024 x 768
H006;52;Mannelijk;Rechts;5;122;left;no;850;leftarrow;1128;true;focus;yes;1169208;Chrome;112.0;Windows;10;undefined;undefined;1024 x 768;1024 x 768
H006;52;Mannelijk;Rechts;5;123;right;yes;850;rightarrow;1080;false;focus;yes;1171066;Chrome;112.0;Windows;10;undefined;undefined;1024 x 768;1024 x 768
H006;52;Mannelijk;Rechts;5;124;right;no;800;rightarrow;780;true;focus;yes;1172625;Chrome;112.0;Windows;10;undefined;undefined;1024 x 768;1024 x 768
H006;52;Mannelijk;Rechts;5;125;left;no;800;undefined;null;false;focus;yes;1174661;Chrome;112.0;Windows;10;undefined;undefined;1024 x 768;1024 x 768
H006;52;Mannelijk;Rechts;5;126;left;yes;800;undefined;null;true;focus;yes;1176703;Chrome;112.0;Windows;10;undefined;undefined;1024 x 768;1024 x 768
H006;52;Mannelijk;Rechts;5;127;left;no;850;leftarrow;765;true;focus;yes;1178251;Chrome;112.0;Windows;10;undefined;undefined;1024 x 768;1024 x 768
H006;52;Mannelijk;Rechts;5;128;right;no;850;rightarrow;1033;true;focus;yes;1180065;Chrome;112.0;Windows;10;undefined;undefined;1024 x 768;1024 x 768
H006;52;Mannelijk;Rechts;6;1;right;yes;850;rightarrow;919;false;focus;yes;1200393;Chrome;112.0;Windows;10;undefined;undefined;1024 x 768;1024 x 768
H006;52;Mannelijk;Rechts;6;2;left;no;800;leftarrow;1229;true;focus;yes;1202394;Chrome;112.0;Windows;10;undefined;undefined;1024 x 768;1024 x 768
H006;52;Mannelijk;Rechts;6;3;right;no;800;rightarrow;933;true;focus;yes;1204097;Chrome;112.0;Windows;10;undefined;undefined;1024 x 768;1024 x 768
H006;52;Mannelijk;Rechts;6;4;left;no;800;leftarrow;740;true;focus;yes;1205616;Chrome;112.0;Windows;10;undefined;undefined;1024 x 768;1024 x 768
H006;52;Mannelijk;Rechts;6;5;left;yes;800;leftarrow;1027;false;focus;yes;1207419;Chrome;112.0;Windows;10;undefined;undefined;1024 x 768;1024 x 768
H006;52;Mannelijk;Rechts;6;6;right;no;750;rightarrow;1045;true;focus;yes;1209249;Chrome;112.0;Windows;10;undefined;undefined;1024 x 768;1024 x 768
H006;52;Mannelijk;Rechts;6;7;left;no;750;leftarrow;1205;true;focus;yes;1211237;Chrome;112.0;Windows;10;undefined;undefined;1024 x 768;1024 x 768
H006;52;Mannelijk;Rechts;6;8;right;no;750;rightarrow;1223;true;focus;yes;1213237;Chrome;112.0;Windows;10;undefined;undefined;1024 x 768;1024 x 768
H006;52;Mannelijk;Rechts;6;9;left;yes;750;leftarrow;1050;false;focus;yes;1215064;Chrome;112.0;Windows;10;undefined;undefined;1024 x 768;1024 x 768
H006;52;Mannelijk;Rechts;6;10;right;no;700;rightarrow;908;true;focus;yes;1216753;Chrome;112.0;Windows;10;undefined;undefined;1024 x 768;1024 x 768
H006;52;Mannelijk;Rechts;6;11;left;no;700;leftarrow;1037;true;focus;yes;1218569;Chrome;112.0;Windows;10;undefined;undefined;1024 x 768;1024 x 768
H006;52;Mannelijk;Rechts;6;12;left;no;700;leftarrow;1018;true;focus;yes;1220363;Chrome;112.0;Windows;10;undefined;undefined;1024 x 768;1024 x 768
H006;52;Mannelijk;Rechts;6;13;left;no;700;undefined;null;false;focus;yes;1222417;Chrome;112.0;Windows;10;undefined;undefined;1024 x 768;1024 x 768
H006;52;Mannelijk;Rechts;6;14;right;no;700;undefined;null;false;focus;yes;1224440;Chrome;112.0;Windows;10;undefined;undefined;1024 x 768;1024 x 768
H006;52;Mannelijk;Rechts;6;15;right;yes;700;undefined;null;true;focus;yes;1226456;Chrome;112.0;Windows;10;undefined;undefined;1024 x 768;1024 x 768
H006;52;Mannelijk;Rechts;6;16;right;no;750;rightarrow;720;true;focus;yes;1227956;Chrome;112.0;Windows;10;undefined;undefined;1024 x 768;1024 x 768
H006;52;Mannelijk;Rechts;6;17;right;no;750;rightarrow;1148;true;focus;yes;1229874;Chrome;112.0;Windows;10;undefined;undefined;1024 x 768;1024 x 768
H006;52;Mannelijk;Rechts;6;18;left;no;750;leftarrow;998;true;focus;yes;1231650;Chrome;112.0;Windows;10;undefined;undefined;1024 x 768;1024 x 768
H006;52;Mannelijk;Rechts;6;19;left;yes;750;undefined;null;true;focus;yes;1233690;Chrome;112.0;Windows;10;undefined;undefined;1024 x 768;1024 x 768
H006;52;Mannelijk;Rechts;6;20;left;no;800;leftarrow;1042;true;focus;yes;1235506;Chrome;112.0;Windows;10;undefined;undefined;1024 x 768;1024 x 768
H006;52;Mannelijk;Rechts;6;21;right;yes;800;rightarrow;1018;false;focus;yes;1237285;Chrome;112.0;Windows;10;undefined;undefined;1024 x 768;1024 x 768
H006;52;Mannelijk;Rechts;6;22;right;no;750;rightarrow;773;true;focus;yes;1238853;Chrome;112.0;Windows;10;undefined;undefined;1024 x 768;1024 x 768
H006;52;Mannelijk;Rechts;6;23;left;no;750;leftarrow;1204;true;focus;yes;1240831;Chrome;112.0;Windows;10;undefined;undefined;1024 x 768;1024 x 768
H006;52;Mannelijk;Rechts;6;24;right;no;750;rightarrow;1118;true;focus;yes;1242721;Chrome;112.0;Windows;10;undefined;undefined;1024 x 768;1024 x 768
H006;52;Mannelijk;Rechts;6;25;right;yes;750;undefined;null;true;focus;yes;1244750;Chrome;112.0;Windows;10;undefined;undefined;1024 x 768;1024 x 768
H006;52;Mannelijk;Rechts;6;26;left;no;800;leftarrow;1035;true;focus;yes;1246562;Chrome;112.0;Windows;10;undefined;undefined;1024 x 768;1024 x 768
H006;52;Mannelijk;Rechts;6;27;left;yes;800;undefined;null;true;focus;yes;1248598;Chrome;112.0;Windows;10;undefined;undefined;1024 x 768;1024 x 768
H006;52;Mannelijk;Rechts;6;28;left;no;850;leftarrow;853;true;focus;yes;1250229;Chrome;112.0;Windows;10;undefined;undefined;1024 x 768;1024 x 768
H006;52;Mannelijk;Rechts;6;29;left;no;850;leftarrow;1206;true;focus;yes;1252207;Chrome;112.0;Windows;10;undefined;undefined;1024 x 768;1024 x 768
H006;52;Mannelijk;Rechts;6;30;right;no;850;undefined;null;false;focus;yes;1254244;Chrome;112.0;Windows;10;undefined;undefined;1024 x 768;1024 x 768
H006;52;Mannelijk;Rechts;6;31;right;no;850;rightarrow;1163;true;focus;yes;1256186;Chrome;112.0;Windows;10;undefined;undefined;1024 x 768;1024 x 768
H006;52;Mannelijk;Rechts;6;32;right;no;850;undefined;null;false;focus;yes;1258212;Chrome;112.0;Windows;10;undefined;undefined;1024 x 768;1024 x 768
