participantID;age;gender;handedness;block_i;trial_i;stim;signal;SSD;response;rt;correct;focus;Fullscreen;time_elapsed;browser_name;browser_version;os_name;os_version;tablet;mobile;screen_resolution;window_resolution
H015;49;Mannelijk;Rechts;0;1;left;no;200;leftarrow;936;true;focus;yes;116125;Chrome;112.0;Windows;10;undefined;undefined;1536 x 864;1536 x 864
H015;49;Mannelijk;Rechts;0;2;left;no;200;leftarrow;403;true;focus;yes;118064;Chrome;112.0;Windows;10;undefined;undefined;1536 x 864;1536 x 864
H015;49;Mannelijk;Rechts;0;4;left;no;150;leftarrow;419;true;focus;yes;121935;Chrome;112.0;Windows;10;undefined;undefined;1536 x 864;1536 x 864
H015;49;Mannelijk;Rechts;0;3;right;yes;200;rightarrow;399;false;focus;yes;119978;Chrome;112.0;Windows;10;undefined;undefined;1536 x 864;1536 x 864
H015;49;Mannelijk;Rechts;0;5;left;yes;150;undefined;null;true;focus;yes;124717;Chrome;112.0;Windows;10;undefined;undefined;1536 x 864;1536 x 864
H015;49;Mannelijk;Rechts;0;6;right;no;200;rightarrow;510;true;focus;yes;126760;Chrome;112.0;Windows;10;undefined;undefined;1536 x 864;1536 x 864
H015;49;Mannelijk;Rechts;0;7;right;no;200;rightarrow;512;true;focus;yes;128802;Chrome;112.0;Windows;10;undefined;undefined;1536 x 864;1536 x 864
H015;49;Mannelijk;Rechts;0;8;right;no;200;rightarrow;520;true;focus;yes;130855;Chrome;112.0;Windows;10;undefined;undefined;1536 x 864;1536 x 864
H015;49;Mannelijk;Rechts;1;1;right;no;200;rightarrow;591;true;focus;yes;151641;Chrome;112.0;Windows;10;undefined;undefined;1536 x 864;1536 x 864
H015;49;Mannelijk;Rechts;1;2;left;no;200;leftarrow;441;true;focus;yes;152856;Chrome;112.0;Windows;10;undefined;undefined;1536 x 864;1536 x 864
H015;49;Mannelijk;Rechts;1;3;left;no;200;leftarrow;528;true;focus;yes;154160;Chrome;112.0;Windows;10;undefined;undefined;1536 x 864;1536 x 864
H015;49;Mannelijk;Rechts;1;4;right;yes;200;rightarrow;399;false;focus;yes;155315;Chrome;112.0;Windows;10;undefined;undefined;1536 x 864;1536 x 864
H015;49;Mannelijk;Rechts;1;5;right;no;150;rightarrow;765;true;focus;yes;156843;Chrome;112.0;Windows;10;undefined;undefined;1536 x 864;1536 x 864
H015;49;Mannelijk;Rechts;1;6;left;no;150;leftarrow;782;true;focus;yes;158408;Chrome;112.0;Windows;10;undefined;undefined;1536 x 864;1536 x 864
H015;49;Mannelijk;Rechts;1;7;left;yes;150;undefined;null;true;focus;yes;160434;Chrome;112.0;Windows;10;undefined;undefined;1536 x 864;1536 x 864
H015;49;Mannelijk;Rechts;1;8;right;no;200;rightarrow;435;true;focus;yes;161642;Chrome;112.0;Windows;10;undefined;undefined;1536 x 864;1536 x 864
H015;49;Mannelijk;Rechts;1;9;left;no;200;leftarrow;794;true;focus;yes;163208;Chrome;112.0;Windows;10;undefined;undefined;1536 x 864;1536 x 864
H015;49;Mannelijk;Rechts;1;10;left;yes;200;undefined;null;true;focus;yes;165241;Chrome;112.0;Windows;10;undefined;undefined;1536 x 864;1536 x 864
H015;49;Mannelijk;Rechts;1;11;left;no;250;leftarrow;552;true;focus;yes;166561;Chrome;112.0;Windows;10;undefined;undefined;1536 x 864;1536 x 864
H015;49;Mannelijk;Rechts;1;12;right;no;250;rightarrow;683;true;focus;yes;168014;Chrome;112.0;Windows;10;undefined;undefined;1536 x 864;1536 x 864
H015;49;Mannelijk;Rechts;1;13;right;yes;250;undefined;null;true;focus;yes;170027;Chrome;112.0;Windows;10;undefined;undefined;1536 x 864;1536 x 864
H015;49;Mannelijk;Rechts;1;14;left;no;300;leftarrow;338;true;focus;yes;171134;Chrome;112.0;Windows;10;undefined;undefined;1536 x 864;1536 x 864
H015;49;Mannelijk;Rechts;1;15;right;no;300;rightarrow;702;true;focus;yes;172595;Chrome;112.0;Windows;10;undefined;undefined;1536 x 864;1536 x 864
H015;49;Mannelijk;Rechts;1;16;right;no;300;rightarrow;764;true;focus;yes;174121;Chrome;112.0;Windows;10;undefined;undefined;1536 x 864;1536 x 864
H015;49;Mannelijk;Rechts;1;17;right;yes;300;undefined;null;true;focus;yes;176143;Chrome;112.0;Windows;10;undefined;undefined;1536 x 864;1536 x 864
H015;49;Mannelijk;Rechts;1;18;left;yes;350;leftarrow;396;false;focus;yes;177309;Chrome;112.0;Windows;10;undefined;undefined;1536 x 864;1536 x 864
H015;49;Mannelijk;Rechts;1;19;right;no;300;rightarrow;925;true;focus;yes;179008;Chrome;112.0;Windows;10;undefined;undefined;1536 x 864;1536 x 864
H015;49;Mannelijk;Rechts;1;20;right;no;300;rightarrow;932;true;focus;yes;180712;Chrome;112.0;Windows;10;undefined;undefined;1536 x 864;1536 x 864
H015;49;Mannelijk;Rechts;1;21;left;no;300;leftarrow;879;true;focus;yes;182358;Chrome;112.0;Windows;10;undefined;undefined;1536 x 864;1536 x 864
H015;49;Mannelijk;Rechts;1;22;right;no;300;rightarrow;875;true;focus;yes;184005;Chrome;112.0;Windows;10;undefined;undefined;1536 x 864;1536 x 864
H015;49;Mannelijk;Rechts;1;23;left;no;300;leftarrow;837;true;focus;yes;185617;Chrome;112.0;Windows;10;undefined;undefined;1536 x 864;1536 x 864
H015;49;Mannelijk;Rechts;1;24;left;no;300;leftarrow;792;true;focus;yes;187171;Chrome;112.0;Windows;10;undefined;undefined;1536 x 864;1536 x 864
H015;49;Mannelijk;Rechts;1;25;left;no;300;leftarrow;780;true;focus;yes;188727;Chrome;112.0;Windows;10;undefined;undefined;1536 x 864;1536 x 864
H015;49;Mannelijk;Rechts;1;26;left;yes;300;undefined;null;true;focus;yes;190747;Chrome;112.0;Windows;10;undefined;undefined;1536 x 864;1536 x 864
H015;49;Mannelijk;Rechts;1;27;left;no;350;leftarrow;487;true;focus;yes;191994;Chrome;112.0;Windows;10;undefined;undefined;1536 x 864;1536 x 864
H015;49;Mannelijk;Rechts;1;28;right;no;350;rightarrow;540;true;focus;yes;193302;Chrome;112.0;Windows;10;undefined;undefined;1536 x 864;1536 x 864
H015;49;Mannelijk;Rechts;1;29;right;yes;350;undefined;null;true;focus;yes;195313;Chrome;112.0;Windows;10;undefined;undefined;1536 x 864;1536 x 864
H015;49;Mannelijk;Rechts;1;30;right;no;400;rightarrow;586;true;focus;yes;196676;Chrome;112.0;Windows;10;undefined;undefined;1536 x 864;1536 x 864
H015;49;Mannelijk;Rechts;1;31;right;no;400;rightarrow;881;true;focus;yes;198327;Chrome;112.0;Windows;10;undefined;undefined;1536 x 864;1536 x 864
H015;49;Mannelijk;Rechts;1;32;left;no;400;leftarrow;876;true;focus;yes;199971;Chrome;112.0;Windows;10;undefined;undefined;1536 x 864;1536 x 864
H015;49;Mannelijk;Rechts;1;33;right;no;400;rightarrow;885;true;focus;yes;201627;Chrome;112.0;Windows;10;undefined;undefined;1536 x 864;1536 x 864
H015;49;Mannelijk;Rechts;1;34;right;yes;400;undefined;null;true;focus;yes;203648;Chrome;112.0;Windows;10;undefined;undefined;1536 x 864;1536 x 864
H015;49;Mannelijk;Rechts;1;35;right;no;450;rightarrow;441;true;focus;yes;204848;Chrome;112.0;Windows;10;undefined;undefined;1536 x 864;1536 x 864
H015;49;Mannelijk;Rechts;1;36;left;no;450;leftarrow;791;true;focus;yes;206413;Chrome;112.0;Windows;10;undefined;undefined;1536 x 864;1536 x 864
H015;49;Mannelijk;Rechts;1;37;right;no;450;rightarrow;843;true;focus;yes;208015;Chrome;112.0;Windows;10;undefined;undefined;1536 x 864;1536 x 864
H015;49;Mannelijk;Rechts;1;38;left;no;450;leftarrow;688;true;focus;yes;209460;Chrome;112.0;Windows;10;undefined;undefined;1536 x 864;1536 x 864
H015;49;Mannelijk;Rechts;1;39;left;no;450;leftarrow;802;true;focus;yes;211044;Chrome;112.0;Windows;10;undefined;undefined;1536 x 864;1536 x 864
H015;49;Mannelijk;Rechts;1;40;left;yes;450;undefined;null;true;focus;yes;213067;Chrome;112.0;Windows;10;undefined;undefined;1536 x 864;1536 x 864
H015;49;Mannelijk;Rechts;1;41;right;yes;500;rightarrow;575;false;focus;yes;214400;Chrome;112.0;Windows;10;undefined;undefined;1536 x 864;1536 x 864
H015;49;Mannelijk;Rechts;1;42;right;no;450;rightarrow;886;true;focus;yes;216042;Chrome;112.0;Windows;10;undefined;undefined;1536 x 864;1536 x 864
H015;49;Mannelijk;Rechts;1;43;left;no;450;leftarrow;973;true;focus;yes;217777;Chrome;112.0;Windows;10;undefined;undefined;1536 x 864;1536 x 864
H015;49;Mannelijk;Rechts;1;44;right;no;450;rightarrow;1093;true;focus;yes;219637;Chrome;112.0;Windows;10;undefined;undefined;1536 x 864;1536 x 864
H015;49;Mannelijk;Rechts;1;45;left;no;450;leftarrow;798;true;focus;yes;221209;Chrome;112.0;Windows;10;undefined;undefined;1536 x 864;1536 x 864
H015;49;Mannelijk;Rechts;1;46;left;no;450;leftarrow;698;true;focus;yes;222670;Chrome;112.0;Windows;10;undefined;undefined;1536 x 864;1536 x 864
H015;49;Mannelijk;Rechts;1;47;right;no;450;rightarrow;847;true;focus;yes;224291;Chrome;112.0;Windows;10;undefined;undefined;1536 x 864;1536 x 864
H015;49;Mannelijk;Rechts;1;48;left;yes;450;undefined;null;true;focus;yes;226316;Chrome;112.0;Windows;10;undefined;undefined;1536 x 864;1536 x 864
H015;49;Mannelijk;Rechts;1;49;left;no;500;leftarrow;624;true;focus;yes;227695;Chrome;112.0;Windows;10;undefined;undefined;1536 x 864;1536 x 864
H015;49;Mannelijk;Rechts;1;50;left;no;500;leftarrow;1036;true;focus;yes;229512;Chrome;112.0;Windows;10;undefined;undefined;1536 x 864;1536 x 864
H015;49;Mannelijk;Rechts;1;51;left;yes;500;undefined;null;true;focus;yes;231552;Chrome;112.0;Windows;10;undefined;undefined;1536 x 864;1536 x 864
H015;49;Mannelijk;Rechts;1;52;right;yes;550;undefined;null;true;focus;yes;233584;Chrome;112.0;Windows;10;undefined;undefined;1536 x 864;1536 x 864
H015;49;Mannelijk;Rechts;1;53;left;no;600;leftarrow;691;true;focus;yes;235051;Chrome;112.0;Windows;10;undefined;undefined;1536 x 864;1536 x 864
H015;49;Mannelijk;Rechts;1;54;right;no;600;rightarrow;1116;true;focus;yes;236942;Chrome;112.0;Windows;10;undefined;undefined;1536 x 864;1536 x 864
H015;49;Mannelijk;Rechts;1;55;right;no;600;rightarrow;944;true;focus;yes;238654;Chrome;112.0;Windows;10;undefined;undefined;1536 x 864;1536 x 864
H015;49;Mannelijk;Rechts;1;56;right;no;600;rightarrow;977;true;focus;yes;240392;Chrome;112.0;Windows;10;undefined;undefined;1536 x 864;1536 x 864
H015;49;Mannelijk;Rechts;1;57;left;no;600;leftarrow;920;true;focus;yes;242081;Chrome;112.0;Windows;10;undefined;undefined;1536 x 864;1536 x 864
H015;49;Mannelijk;Rechts;1;58;left;no;600;leftarrow;899;true;focus;yes;243744;Chrome;112.0;Windows;10;undefined;undefined;1536 x 864;1536 x 864
H015;49;Mannelijk;Rechts;1;59;left;yes;600;undefined;null;true;focus;yes;245789;Chrome;112.0;Windows;10;undefined;undefined;1536 x 864;1536 x 864
H015;49;Mannelijk;Rechts;1;60;right;yes;650;rightarrow;633;false;focus;yes;247191;Chrome;112.0;Windows;10;undefined;undefined;1536 x 864;1536 x 864
H015;49;Mannelijk;Rechts;1;61;right;no;600;rightarrow;1118;true;focus;yes;249077;Chrome;112.0;Windows;10;undefined;undefined;1536 x 864;1536 x 864
H015;49;Mannelijk;Rechts;1;62;right;no;600;rightarrow;941;true;focus;yes;250784;Chrome;112.0;Windows;10;undefined;undefined;1536 x 864;1536 x 864
H015;49;Mannelijk;Rechts;1;63;left;no;600;leftarrow;912;true;focus;yes;252471;Chrome;112.0;Windows;10;undefined;undefined;1536 x 864;1536 x 864
H015;49;Mannelijk;Rechts;1;64;right;no;600;rightarrow;863;true;focus;yes;254105;Chrome;112.0;Windows;10;undefined;undefined;1536 x 864;1536 x 864
H015;49;Mannelijk;Rechts;1;65;right;no;600;rightarrow;923;true;focus;yes;255785;Chrome;112.0;Windows;10;undefined;undefined;1536 x 864;1536 x 864
H015;49;Mannelijk;Rechts;1;66;right;no;600;rightarrow;861;true;focus;yes;257408;Chrome;112.0;Windows;10;undefined;undefined;1536 x 864;1536 x 864
H015;49;Mannelijk;Rechts;1;67;right;yes;600;undefined;null;true;focus;yes;259418;Chrome;112.0;Windows;10;undefined;undefined;1536 x 864;1536 x 864
H015;49;Mannelijk;Rechts;1;68;right;no;650;rightarrow;857;true;focus;yes;261037;Chrome;112.0;Windows;10;undefined;undefined;1536 x 864;1536 x 864
H015;49;Mannelijk;Rechts;1;69;left;no;650;leftarrow;896;true;focus;yes;262706;Chrome;112.0;Windows;10;undefined;undefined;1536 x 864;1536 x 864
H015;49;Mannelijk;Rechts;1;70;left;no;650;leftarrow;862;true;focus;yes;264333;Chrome;112.0;Windows;10;undefined;undefined;1536 x 864;1536 x 864
H015;49;Mannelijk;Rechts;1;71;left;yes;650;undefined;null;true;focus;yes;266354;Chrome;112.0;Windows;10;undefined;undefined;1536 x 864;1536 x 864
H015;49;Mannelijk;Rechts;1;72;left;no;700;leftarrow;838;true;focus;yes;267950;Chrome;112.0;Windows;10;undefined;undefined;1536 x 864;1536 x 864
H015;49;Mannelijk;Rechts;1;73;right;no;700;rightarrow;789;true;focus;yes;269502;Chrome;112.0;Windows;10;undefined;undefined;1536 x 864;1536 x 864
H015;49;Mannelijk;Rechts;1;74;right;yes;700;rightarrow;855;false;focus;yes;271117;Chrome;112.0;Windows;10;undefined;undefined;1536 x 864;1536 x 864
H015;49;Mannelijk;Rechts;1;75;left;no;650;leftarrow;1156;true;focus;yes;273034;Chrome;112.0;Windows;10;undefined;undefined;1536 x 864;1536 x 864
H015;49;Mannelijk;Rechts;1;76;right;no;650;rightarrow;1096;true;focus;yes;274890;Chrome;112.0;Windows;10;undefined;undefined;1536 x 864;1536 x 864
H015;49;Mannelijk;Rechts;1;77;left;no;650;leftarrow;1019;true;focus;yes;276664;Chrome;112.0;Windows;10;undefined;undefined;1536 x 864;1536 x 864
H015;49;Mannelijk;Rechts;1;78;left;yes;650;undefined;null;true;focus;yes;278703;Chrome;112.0;Windows;10;undefined;undefined;1536 x 864;1536 x 864
H015;49;Mannelijk;Rechts;1;79;left;no;700;leftarrow;545;true;focus;yes;280006;Chrome;112.0;Windows;10;undefined;undefined;1536 x 864;1536 x 864
H015;49;Mannelijk;Rechts;1;80;right;no;700;rightarrow;1017;true;focus;yes;281784;Chrome;112.0;Windows;10;undefined;undefined;1536 x 864;1536 x 864
H015;49;Mannelijk;Rechts;1;81;right;no;700;rightarrow;888;true;focus;yes;283439;Chrome;112.0;Windows;10;undefined;undefined;1536 x 864;1536 x 864
H015;49;Mannelijk;Rechts;1;82;left;no;700;leftarrow;704;true;focus;yes;284899;Chrome;112.0;Windows;10;undefined;undefined;1536 x 864;1536 x 864
H015;49;Mannelijk;Rechts;1;83;right;no;700;rightarrow;909;true;focus;yes;286570;Chrome;112.0;Windows;10;undefined;undefined;1536 x 864;1536 x 864
H015;49;Mannelijk;Rechts;1;84;right;no;700;rightarrow;846;true;focus;yes;288176;Chrome;112.0;Windows;10;undefined;undefined;1536 x 864;1536 x 864
H015;49;Mannelijk;Rechts;1;85;right;yes;700;undefined;null;true;focus;yes;290202;Chrome;112.0;Windows;10;undefined;undefined;1536 x 864;1536 x 864
H015;49;Mannelijk;Rechts;1;86;left;no;750;leftarrow;1022;true;focus;yes;292004;Chrome;112.0;Windows;10;undefined;undefined;1536 x 864;1536 x 864
H015;49;Mannelijk;Rechts;1;87;left;yes;750;undefined;null;true;focus;yes;294026;Chrome;112.0;Windows;10;undefined;undefined;1536 x 864;1536 x 864
H015;49;Mannelijk;Rechts;1;88;left;no;800;leftarrow;640;true;focus;yes;295441;Chrome;112.0;Windows;10;undefined;undefined;1536 x 864;1536 x 864
H015;49;Mannelijk;Rechts;1;89;left;no;800;leftarrow;907;true;focus;yes;297106;Chrome;112.0;Windows;10;undefined;undefined;1536 x 864;1536 x 864
H015;49;Mannelijk;Rechts;1;90;right;yes;800;rightarrow;1012;false;focus;yes;298872;Chrome;112.0;Windows;10;undefined;undefined;1536 x 864;1536 x 864
H015;49;Mannelijk;Rechts;1;91;right;no;750;undefined;null;false;focus;yes;300891;Chrome;112.0;Windows;10;undefined;undefined;1536 x 864;1536 x 864
H015;49;Mannelijk;Rechts;1;92;right;no;750;rightarrow;1050;true;focus;yes;302717;Chrome;112.0;Windows;10;undefined;undefined;1536 x 864;1536 x 864
H015;49;Mannelijk;Rechts;1;93;left;no;750;undefined;null;false;focus;yes;304744;Chrome;112.0;Windows;10;undefined;undefined;1536 x 864;1536 x 864
H015;49;Mannelijk;Rechts;1;94;left;no;750;undefined;null;false;focus;yes;306768;Chrome;112.0;Windows;10;undefined;undefined;1536 x 864;1536 x 864
H015;49;Mannelijk;Rechts;1;95;right;no;750;rightarrow;560;true;focus;yes;308087;Chrome;112.0;Windows;10;undefined;undefined;1536 x 864;1536 x 864
H015;49;Mannelijk;Rechts;1;96;left;yes;750;leftarrow;403;false;focus;yes;309246;Chrome;112.0;Windows;10;undefined;undefined;1536 x 864;1536 x 864
H015;49;Mannelijk;Rechts;1;97;left;yes;700;leftarrow;591;false;focus;yes;310600;Chrome;112.0;Windows;10;undefined;undefined;1536 x 864;1536 x 864
H015;49;Mannelijk;Rechts;1;98;left;no;650;leftarrow;583;true;focus;yes;311965;Chrome;112.0;Windows;10;undefined;undefined;1536 x 864;1536 x 864
H015;49;Mannelijk;Rechts;1;99;right;no;650;rightarrow;451;true;focus;yes;313181;Chrome;112.0;Windows;10;undefined;undefined;1536 x 864;1536 x 864
H015;49;Mannelijk;Rechts;1;100;left;no;650;leftarrow;355;true;focus;yes;314304;Chrome;112.0;Windows;10;undefined;undefined;1536 x 864;1536 x 864
H015;49;Mannelijk;Rechts;1;101;right;no;650;rightarrow;294;true;focus;yes;315371;Chrome;112.0;Windows;10;undefined;undefined;1536 x 864;1536 x 864
H015;49;Mannelijk;Rechts;1;102;left;no;650;leftarrow;878;true;focus;yes;317023;Chrome;112.0;Windows;10;undefined;undefined;1536 x 864;1536 x 864
H015;49;Mannelijk;Rechts;1;103;right;no;650;rightarrow;367;true;focus;yes;318146;Chrome;112.0;Windows;10;undefined;undefined;1536 x 864;1536 x 864
H015;49;Mannelijk;Rechts;1;104;right;yes;650;leftarrow;300;false;focus;yes;319214;Chrome;112.0;Windows;10;undefined;undefined;1536 x 864;1536 x 864
H015;49;Mannelijk;Rechts;1;105;right;yes;600;rightarrow;369;false;focus;yes;320362;Chrome;112.0;Windows;10;undefined;undefined;1536 x 864;1536 x 864
H015;49;Mannelijk;Rechts;1;106;left;no;550;leftarrow;337;true;focus;yes;321466;Chrome;112.0;Windows;10;undefined;undefined;1536 x 864;1536 x 864
H015;49;Mannelijk;Rechts;1;107;left;no;550;leftarrow;410;true;focus;yes;322632;Chrome;112.0;Windows;10;undefined;undefined;1536 x 864;1536 x 864
H015;49;Mannelijk;Rechts;1;108;right;no;550;rightarrow;342;true;focus;yes;323729;Chrome;112.0;Windows;10;undefined;undefined;1536 x 864;1536 x 864
H015;49;Mannelijk;Rechts;1;109;right;no;550;leftarrow;308;false;focus;yes;324797;Chrome;112.0;Windows;10;undefined;undefined;1536 x 864;1536 x 864
H015;49;Mannelijk;Rechts;1;110;left;no;550;leftarrow;444;true;focus;yes;325999;Chrome;112.0;Windows;10;undefined;undefined;1536 x 864;1536 x 864
H015;49;Mannelijk;Rechts;1;111;right;no;550;rightarrow;416;true;focus;yes;327177;Chrome;112.0;Windows;10;undefined;undefined;1536 x 864;1536 x 864
H015;49;Mannelijk;Rechts;1;112;left;yes;550;leftarrow;378;false;focus;yes;328323;Chrome;112.0;Windows;10;undefined;undefined;1536 x 864;1536 x 864
H015;49;Mannelijk;Rechts;1;113;left;no;500;leftarrow;479;true;focus;yes;329567;Chrome;112.0;Windows;10;undefined;undefined;1536 x 864;1536 x 864
H015;49;Mannelijk;Rechts;1;114;right;no;500;rightarrow;405;true;focus;yes;330742;Chrome;112.0;Windows;10;undefined;undefined;1536 x 864;1536 x 864
H015;49;Mannelijk;Rechts;1;115;right;no;500;rightarrow;379;true;focus;yes;331890;Chrome;112.0;Windows;10;undefined;undefined;1536 x 864;1536 x 864
H015;49;Mannelijk;Rechts;1;116;left;yes;500;leftarrow;449;false;focus;yes;333105;Chrome;112.0;Windows;10;undefined;undefined;1536 x 864;1536 x 864
H015;49;Mannelijk;Rechts;1;117;right;no;450;rightarrow;428;true;focus;yes;334301;Chrome;112.0;Windows;10;undefined;undefined;1536 x 864;1536 x 864
H015;49;Mannelijk;Rechts;1;118;left;no;450;leftarrow;301;true;focus;yes;335379;Chrome;112.0;Windows;10;undefined;undefined;1536 x 864;1536 x 864
H015;49;Mannelijk;Rechts;1;119;right;yes;450;rightarrow;357;false;focus;yes;336498;Chrome;112.0;Windows;10;undefined;undefined;1536 x 864;1536 x 864
H015;49;Mannelijk;Rechts;1;120;left;no;400;leftarrow;306;true;focus;yes;337561;Chrome;112.0;Windows;10;undefined;undefined;1536 x 864;1536 x 864
H015;49;Mannelijk;Rechts;1;121;left;no;400;leftarrow;498;true;focus;yes;338824;Chrome;112.0;Windows;10;undefined;undefined;1536 x 864;1536 x 864
H015;49;Mannelijk;Rechts;1;122;right;no;400;rightarrow;304;true;focus;yes;339891;Chrome;112.0;Windows;10;undefined;undefined;1536 x 864;1536 x 864
H015;49;Mannelijk;Rechts;1;123;left;no;400;leftarrow;321;true;focus;yes;340975;Chrome;112.0;Windows;10;undefined;undefined;1536 x 864;1536 x 864
H015;49;Mannelijk;Rechts;1;124;left;no;400;leftarrow;348;true;focus;yes;342092;Chrome;112.0;Windows;10;undefined;undefined;1536 x 864;1536 x 864
H015;49;Mannelijk;Rechts;1;125;right;no;400;rightarrow;337;true;focus;yes;343183;Chrome;112.0;Windows;10;undefined;undefined;1536 x 864;1536 x 864
H015;49;Mannelijk;Rechts;1;126;right;no;400;rightarrow;389;true;focus;yes;344344;Chrome;112.0;Windows;10;undefined;undefined;1536 x 864;1536 x 864
H015;49;Mannelijk;Rechts;1;127;right;yes;400;rightarrow;443;false;focus;yes;345552;Chrome;112.0;Windows;10;undefined;undefined;1536 x 864;1536 x 864
H015;49;Mannelijk;Rechts;1;128;left;yes;350;leftarrow;322;false;focus;yes;346652;Chrome;112.0;Windows;10;undefined;undefined;1536 x 864;1536 x 864
H015;49;Mannelijk;Rechts;2;1;right;no;300;rightarrow;925;true;focus;yes;367826;Chrome;112.0;Windows;10;undefined;undefined;1536 x 864;1536 x 864
H015;49;Mannelijk;Rechts;2;2;right;yes;300;rightarrow;453;false;focus;yes;369038;Chrome;112.0;Windows;10;undefined;undefined;1536 x 864;1536 x 864
H015;49;Mannelijk;Rechts;2;3;left;no;250;leftarrow;672;true;focus;yes;370481;Chrome;112.0;Windows;10;undefined;undefined;1536 x 864;1536 x 864
H015;49;Mannelijk;Rechts;2;4;right;no;250;rightarrow;983;true;focus;yes;372218;Chrome;112.0;Windows;10;undefined;undefined;1536 x 864;1536 x 864
H015;49;Mannelijk;Rechts;2;5;left;no;250;leftarrow;463;true;focus;yes;373455;Chrome;112.0;Windows;10;undefined;undefined;1536 x 864;1536 x 864
H015;49;Mannelijk;Rechts;2;6;right;no;250;rightarrow;920;true;focus;yes;375128;Chrome;112.0;Windows;10;undefined;undefined;1536 x 864;1536 x 864
H015;49;Mannelijk;Rechts;2;7;left;yes;250;undefined;null;true;focus;yes;377157;Chrome;112.0;Windows;10;undefined;undefined;1536 x 864;1536 x 864
H015;49;Mannelijk;Rechts;2;8;left;no;300;leftarrow;508;true;focus;yes;378440;Chrome;112.0;Windows;10;undefined;undefined;1536 x 864;1536 x 864
H015;49;Mannelijk;Rechts;2;9;left;yes;300;undefined;null;true;focus;yes;380478;Chrome;112.0;Windows;10;undefined;undefined;1536 x 864;1536 x 864
H015;49;Mannelijk;Rechts;2;10;left;no;350;leftarrow;798;true;focus;yes;382046;Chrome;112.0;Windows;10;undefined;undefined;1536 x 864;1536 x 864
H015;49;Mannelijk;Rechts;2;11;right;yes;350;undefined;null;true;focus;yes;384066;Chrome;112.0;Windows;10;undefined;undefined;1536 x 864;1536 x 864
H015;49;Mannelijk;Rechts;2;12;right;no;400;rightarrow;732;true;focus;yes;385558;Chrome;112.0;Windows;10;undefined;undefined;1536 x 864;1536 x 864
H015;49;Mannelijk;Rechts;2;13;right;no;400;rightarrow;962;true;focus;yes;387284;Chrome;112.0;Windows;10;undefined;undefined;1536 x 864;1536 x 864
H015;49;Mannelijk;Rechts;2;14;right;no;400;rightarrow;1110;true;focus;yes;389168;Chrome;112.0;Windows;10;undefined;undefined;1536 x 864;1536 x 864
H015;49;Mannelijk;Rechts;2;15;left;no;400;leftarrow;958;true;focus;yes;390887;Chrome;112.0;Windows;10;undefined;undefined;1536 x 864;1536 x 864
H015;49;Mannelijk;Rechts;2;16;left;no;400;leftarrow;947;true;focus;yes;392614;Chrome;112.0;Windows;10;undefined;undefined;1536 x 864;1536 x 864
H015;49;Mannelijk;Rechts;2;17;left;no;400;leftarrow;1154;true;focus;yes;394539;Chrome;112.0;Windows;10;undefined;undefined;1536 x 864;1536 x 864
H015;49;Mannelijk;Rechts;2;18;right;no;400;rightarrow;787;true;focus;yes;396103;Chrome;112.0;Windows;10;undefined;undefined;1536 x 864;1536 x 864
H015;49;Mannelijk;Rechts;2;19;right;no;400;rightarrow;857;true;focus;yes;397716;Chrome;112.0;Windows;10;undefined;undefined;1536 x 864;1536 x 864
H015;49;Mannelijk;Rechts;2;20;left;no;400;leftarrow;885;true;focus;yes;399362;Chrome;112.0;Windows;10;undefined;undefined;1536 x 864;1536 x 864
H015;49;Mannelijk;Rechts;2;21;right;yes;400;undefined;null;true;focus;yes;401391;Chrome;112.0;Windows;10;undefined;undefined;1536 x 864;1536 x 864
H015;49;Mannelijk;Rechts;2;22;right;no;450;rightarrow;702;true;focus;yes;402870;Chrome;112.0;Windows;10;undefined;undefined;1536 x 864;1536 x 864
H015;49;Mannelijk;Rechts;2;23;left;yes;450;undefined;null;true;focus;yes;404886;Chrome;112.0;Windows;10;undefined;undefined;1536 x 864;1536 x 864
H015;49;Mannelijk;Rechts;2;24;left;no;500;leftarrow;768;true;focus;yes;406413;Chrome;112.0;Windows;10;undefined;undefined;1536 x 864;1536 x 864
H015;49;Mannelijk;Rechts;2;25;left;yes;500;undefined;null;true;focus;yes;408442;Chrome;112.0;Windows;10;undefined;undefined;1536 x 864;1536 x 864
H015;49;Mannelijk;Rechts;2;26;left;no;550;leftarrow;752;true;focus;yes;409950;Chrome;112.0;Windows;10;undefined;undefined;1536 x 864;1536 x 864
H015;49;Mannelijk;Rechts;2;27;right;no;550;rightarrow;786;true;focus;yes;411496;Chrome;112.0;Windows;10;undefined;undefined;1536 x 864;1536 x 864
H015;49;Mannelijk;Rechts;2;28;left;no;550;leftarrow;919;true;focus;yes;413182;Chrome;112.0;Windows;10;undefined;undefined;1536 x 864;1536 x 864
H015;49;Mannelijk;Rechts;2;29;right;no;550;rightarrow;827;true;focus;yes;414768;Chrome;112.0;Windows;10;undefined;undefined;1536 x 864;1536 x 864
H015;49;Mannelijk;Rechts;2;30;right;yes;550;undefined;null;true;focus;yes;416792;Chrome;112.0;Windows;10;undefined;undefined;1536 x 864;1536 x 864
H015;49;Mannelijk;Rechts;2;31;left;no;600;leftarrow;767;true;focus;yes;418330;Chrome;112.0;Windows;10;undefined;undefined;1536 x 864;1536 x 864
H015;49;Mannelijk;Rechts;2;32;right;no;600;rightarrow;849;true;focus;yes;419943;Chrome;112.0;Windows;10;undefined;undefined;1536 x 864;1536 x 864
H015;49;Mannelijk;Rechts;2;33;right;no;600;rightarrow;1048;true;focus;yes;421762;Chrome;112.0;Windows;10;undefined;undefined;1536 x 864;1536 x 864
H015;49;Mannelijk;Rechts;2;34;right;yes;600;undefined;null;true;focus;yes;423779;Chrome;112.0;Windows;10;undefined;undefined;1536 x 864;1536 x 864
H015;49;Mannelijk;Rechts;2;35;right;no;650;leftarrow;540;false;focus;yes;425081;Chrome;112.0;Windows;10;undefined;undefined;1536 x 864;1536 x 864
H015;49;Mannelijk;Rechts;2;36;left;no;650;undefined;null;false;focus;yes;427099;Chrome;112.0;Windows;10;undefined;undefined;1536 x 864;1536 x 864
H015;49;Mannelijk;Rechts;2;37;left;yes;650;leftarrow;597;false;focus;yes;428459;Chrome;112.0;Windows;10;undefined;undefined;1536 x 864;1536 x 864
H015;49;Mannelijk;Rechts;2;38;right;no;600;rightarrow;406;true;focus;yes;429642;Chrome;112.0;Windows;10;undefined;undefined;1536 x 864;1536 x 864
H015;49;Mannelijk;Rechts;2;39;left;no;600;leftarrow;315;true;focus;yes;430728;Chrome;112.0;Windows;10;undefined;undefined;1536 x 864;1536 x 864
H015;49;Mannelijk;Rechts;2;40;left;no;600;leftarrow;475;true;focus;yes;431969;Chrome;112.0;Windows;10;undefined;undefined;1536 x 864;1536 x 864
H015;49;Mannelijk;Rechts;2;41;left;yes;600;leftarrow;366;false;focus;yes;433113;Chrome;112.0;Windows;10;undefined;undefined;1536 x 864;1536 x 864
H015;49;Mannelijk;Rechts;2;42;right;yes;550;rightarrow;428;false;focus;yes;434319;Chrome;112.0;Windows;10;undefined;undefined;1536 x 864;1536 x 864
H015;49;Mannelijk;Rechts;2;43;right;no;500;rightarrow;464;true;focus;yes;435540;Chrome;112.0;Windows;10;undefined;undefined;1536 x 864;1536 x 864
H015;49;Mannelijk;Rechts;2;44;left;no;500;leftarrow;311;true;focus;yes;436607;Chrome;112.0;Windows;10;undefined;undefined;1536 x 864;1536 x 864
H015;49;Mannelijk;Rechts;2;45;right;no;500;rightarrow;264;true;focus;yes;437626;Chrome;112.0;Windows;10;undefined;undefined;1536 x 864;1536 x 864
H015;49;Mannelijk;Rechts;2;46;left;no;500;leftarrow;300;true;focus;yes;438700;Chrome;112.0;Windows;10;undefined;undefined;1536 x 864;1536 x 864
H015;49;Mannelijk;Rechts;2;47;right;no;500;rightarrow;283;true;focus;yes;439744;Chrome;112.0;Windows;10;undefined;undefined;1536 x 864;1536 x 864
H015;49;Mannelijk;Rechts;2;48;left;no;500;leftarrow;271;true;focus;yes;440780;Chrome;112.0;Windows;10;undefined;undefined;1536 x 864;1536 x 864
H015;49;Mannelijk;Rechts;2;49;left;no;500;leftarrow;469;true;focus;yes;442015;Chrome;112.0;Windows;10;undefined;undefined;1536 x 864;1536 x 864
H015;49;Mannelijk;Rechts;2;50;left;yes;500;rightarrow;331;false;focus;yes;443114;Chrome;112.0;Windows;10;undefined;undefined;1536 x 864;1536 x 864
H015;49;Mannelijk;Rechts;2;51;left;no;450;rightarrow;272;false;focus;yes;444161;Chrome;112.0;Windows;10;undefined;undefined;1536 x 864;1536 x 864
H015;49;Mannelijk;Rechts;2;52;right;no;450;leftarrow;374;false;focus;yes;445304;Chrome;112.0;Windows;10;undefined;undefined;1536 x 864;1536 x 864
H015;49;Mannelijk;Rechts;2;53;right;no;450;rightarrow;393;true;focus;yes;446456;Chrome;112.0;Windows;10;undefined;undefined;1536 x 864;1536 x 864
H015;49;Mannelijk;Rechts;2;54;left;no;450;leftarrow;356;true;focus;yes;447579;Chrome;112.0;Windows;10;undefined;undefined;1536 x 864;1536 x 864
H015;49;Mannelijk;Rechts;2;55;right;no;450;rightarrow;391;true;focus;yes;448735;Chrome;112.0;Windows;10;undefined;undefined;1536 x 864;1536 x 864
H015;49;Mannelijk;Rechts;2;56;right;yes;450;rightarrow;395;false;focus;yes;449909;Chrome;112.0;Windows;10;undefined;undefined;1536 x 864;1536 x 864
H015;49;Mannelijk;Rechts;2;57;left;no;400;leftarrow;302;true;focus;yes;450985;Chrome;112.0;Windows;10;undefined;undefined;1536 x 864;1536 x 864
H015;49;Mannelijk;Rechts;2;58;left;no;400;leftarrow;401;true;focus;yes;452152;Chrome;112.0;Windows;10;undefined;undefined;1536 x 864;1536 x 864
H015;49;Mannelijk;Rechts;2;59;right;no;400;rightarrow;425;true;focus;yes;453359;Chrome;112.0;Windows;10;undefined;undefined;1536 x 864;1536 x 864
H015;49;Mannelijk;Rechts;2;60;right;no;400;rightarrow;451;true;focus;yes;454582;Chrome;112.0;Windows;10;undefined;undefined;1536 x 864;1536 x 864
H015;49;Mannelijk;Rechts;2;61;right;yes;400;rightarrow;408;false;focus;yes;455758;Chrome;112.0;Windows;10;undefined;undefined;1536 x 864;1536 x 864
H015;49;Mannelijk;Rechts;2;62;right;no;350;rightarrow;449;true;focus;yes;456981;Chrome;112.0;Windows;10;undefined;undefined;1536 x 864;1536 x 864
H015;49;Mannelijk;Rechts;2;63;left;yes;350;leftarrow;307;false;focus;yes;458055;Chrome;112.0;Windows;10;undefined;undefined;1536 x 864;1536 x 864
H015;49;Mannelijk;Rechts;2;64;left;no;300;leftarrow;341;true;focus;yes;459174;Chrome;112.0;Windows;10;undefined;undefined;1536 x 864;1536 x 864
H015;49;Mannelijk;Rechts;2;65;right;no;300;rightarrow;400;true;focus;yes;460344;Chrome;112.0;Windows;10;undefined;undefined;1536 x 864;1536 x 864
H015;49;Mannelijk;Rechts;2;66;right;no;300;rightarrow;409;true;focus;yes;461507;Chrome;112.0;Windows;10;undefined;undefined;1536 x 864;1536 x 864
H015;49;Mannelijk;Rechts;2;67;right;no;300;rightarrow;397;true;focus;yes;462664;Chrome;112.0;Windows;10;undefined;undefined;1536 x 864;1536 x 864
H015;49;Mannelijk;Rechts;2;68;left;no;300;leftarrow;339;true;focus;yes;463773;Chrome;112.0;Windows;10;undefined;undefined;1536 x 864;1536 x 864
H015;49;Mannelijk;Rechts;2;69;right;yes;300;rightarrow;365;false;focus;yes;464914;Chrome;112.0;Windows;10;undefined;undefined;1536 x 864;1536 x 864
H015;49;Mannelijk;Rechts;2;70;left;yes;250;leftarrow;398;false;focus;yes;466077;Chrome;112.0;Windows;10;undefined;undefined;1536 x 864;1536 x 864
H015;49;Mannelijk;Rechts;2;71;left;no;200;leftarrow;705;true;focus;yes;467554;Chrome;112.0;Windows;10;undefined;undefined;1536 x 864;1536 x 864
H015;49;Mannelijk;Rechts;2;72;left;no;200;leftarrow;421;true;focus;yes;468734;Chrome;112.0;Windows;10;undefined;undefined;1536 x 864;1536 x 864
H015;49;Mannelijk;Rechts;2;73;right;no;200;rightarrow;372;true;focus;yes;469870;Chrome;112.0;Windows;10;undefined;undefined;1536 x 864;1536 x 864
H015;49;Mannelijk;Rechts;2;74;right;no;200;leftarrow;361;false;focus;yes;470989;Chrome;112.0;Windows;10;undefined;undefined;1536 x 864;1536 x 864
H015;49;Mannelijk;Rechts;2;75;right;no;200;rightarrow;357;true;focus;yes;472159;Chrome;112.0;Windows;10;undefined;undefined;1536 x 864;1536 x 864
H015;49;Mannelijk;Rechts;2;76;right;yes;200;rightarrow;347;false;focus;yes;473282;Chrome;112.0;Windows;10;undefined;undefined;1536 x 864;1536 x 864
H015;49;Mannelijk;Rechts;2;77;left;no;150;leftarrow;299;true;focus;yes;474344;Chrome;112.0;Windows;10;undefined;undefined;1536 x 864;1536 x 864
H015;49;Mannelijk;Rechts;2;78;left;no;150;leftarrow;391;true;focus;yes;475504;Chrome;112.0;Windows;10;undefined;undefined;1536 x 864;1536 x 864
H015;49;Mannelijk;Rechts;2;79;left;yes;150;leftarrow;369;false;focus;yes;476629;Chrome;112.0;Windows;10;undefined;undefined;1536 x 864;1536 x 864
H015;49;Mannelijk;Rechts;2;80;left;no;100;leftarrow;540;true;focus;yes;477937;Chrome;112.0;Windows;10;undefined;undefined;1536 x 864;1536 x 864
H015;49;Mannelijk;Rechts;2;81;left;no;100;leftarrow;385;true;focus;yes;479101;Chrome;112.0;Windows;10;undefined;undefined;1536 x 864;1536 x 864
H015;49;Mannelijk;Rechts;2;82;right;no;100;rightarrow;413;true;focus;yes;480271;Chrome;112.0;Windows;10;undefined;undefined;1536 x 864;1536 x 864
H015;49;Mannelijk;Rechts;2;83;right;no;100;rightarrow;367;true;focus;yes;481393;Chrome;112.0;Windows;10;undefined;undefined;1536 x 864;1536 x 864
H015;49;Mannelijk;Rechts;2;84;right;yes;100;undefined;null;true;focus;yes;483430;Chrome;112.0;Windows;10;undefined;undefined;1536 x 864;1536 x 864
H015;49;Mannelijk;Rechts;2;85;left;yes;150;leftarrow;384;false;focus;yes;484615;Chrome;112.0;Windows;10;undefined;undefined;1536 x 864;1536 x 864
H015;49;Mannelijk;Rechts;2;86;left;no;100;leftarrow;693;true;focus;yes;486074;Chrome;112.0;Windows;10;undefined;undefined;1536 x 864;1536 x 864
H015;49;Mannelijk;Rechts;2;87;left;no;100;leftarrow;737;true;focus;yes;487571;Chrome;112.0;Windows;10;undefined;undefined;1536 x 864;1536 x 864
H015;49;Mannelijk;Rechts;2;88;right;no;100;rightarrow;429;true;focus;yes;488758;Chrome;112.0;Windows;10;undefined;undefined;1536 x 864;1536 x 864
H015;49;Mannelijk;Rechts;2;89;left;no;100;leftarrow;656;true;focus;yes;490188;Chrome;112.0;Windows;10;undefined;undefined;1536 x 864;1536 x 864
H015;49;Mannelijk;Rechts;2;90;right;no;100;rightarrow;757;true;focus;yes;491720;Chrome;112.0;Windows;10;undefined;undefined;1536 x 864;1536 x 864
H015;49;Mannelijk;Rechts;2;91;left;yes;100;undefined;null;true;focus;yes;493730;Chrome;112.0;Windows;10;undefined;undefined;1536 x 864;1536 x 864
H015;49;Mannelijk;Rechts;2;92;right;no;150;rightarrow;451;true;focus;yes;494941;Chrome;112.0;Windows;10;undefined;undefined;1536 x 864;1536 x 864
H015;49;Mannelijk;Rechts;2;93;right;no;150;rightarrow;715;true;focus;yes;496410;Chrome;112.0;Windows;10;undefined;undefined;1536 x 864;1536 x 864
H015;49;Mannelijk;Rechts;2;94;right;yes;150;undefined;null;true;focus;yes;498443;Chrome;112.0;Windows;10;undefined;undefined;1536 x 864;1536 x 864
H015;49;Mannelijk;Rechts;2;95;left;no;200;leftarrow;707;true;focus;yes;499915;Chrome;112.0;Windows;10;undefined;undefined;1536 x 864;1536 x 864
H015;49;Mannelijk;Rechts;2;96;left;no;200;leftarrow;1032;true;focus;yes;501707;Chrome;112.0;Windows;10;undefined;undefined;1536 x 864;1536 x 864
H015;49;Mannelijk;Rechts;2;97;right;no;200;rightarrow;1003;true;focus;yes;503483;Chrome;112.0;Windows;10;undefined;undefined;1536 x 864;1536 x 864
H015;49;Mannelijk;Rechts;2;98;left;yes;200;undefined;null;true;focus;yes;505506;Chrome;112.0;Windows;10;undefined;undefined;1536 x 864;1536 x 864
H015;49;Mannelijk;Rechts;2;99;right;no;250;rightarrow;652;true;focus;yes;506933;Chrome;112.0;Windows;10;undefined;undefined;1536 x 864;1536 x 864
H015;49;Mannelijk;Rechts;2;100;right;yes;250;undefined;null;true;focus;yes;508948;Chrome;112.0;Windows;10;undefined;undefined;1536 x 864;1536 x 864
H015;49;Mannelijk;Rechts;2;101;left;no;300;leftarrow;734;true;focus;yes;510440;Chrome;112.0;Windows;10;undefined;undefined;1536 x 864;1536 x 864
H015;49;Mannelijk;Rechts;2;102;left;no;300;leftarrow;1168;true;focus;yes;512380;Chrome;112.0;Windows;10;undefined;undefined;1536 x 864;1536 x 864
H015;49;Mannelijk;Rechts;2;103;right;no;300;rightarrow;754;true;focus;yes;513893;Chrome;112.0;Windows;10;undefined;undefined;1536 x 864;1536 x 864
H015;49;Mannelijk;Rechts;2;104;left;no;300;undefined;null;false;focus;yes;515916;Chrome;112.0;Windows;10;undefined;undefined;1536 x 864;1536 x 864
H015;49;Mannelijk;Rechts;2;105;right;yes;300;undefined;null;true;focus;yes;517942;Chrome;112.0;Windows;10;undefined;undefined;1536 x 864;1536 x 864
H015;49;Mannelijk;Rechts;2;106;right;no;350;rightarrow;581;true;focus;yes;519277;Chrome;112.0;Windows;10;undefined;undefined;1536 x 864;1536 x 864
H015;49;Mannelijk;Rechts;2;107;left;no;350;leftarrow;1023;true;focus;yes;521062;Chrome;112.0;Windows;10;undefined;undefined;1536 x 864;1536 x 864
H015;49;Mannelijk;Rechts;2;108;right;no;350;rightarrow;923;true;focus;yes;522750;Chrome;112.0;Windows;10;undefined;undefined;1536 x 864;1536 x 864
H015;49;Mannelijk;Rechts;2;109;left;no;350;leftarrow;906;true;focus;yes;524415;Chrome;112.0;Windows;10;undefined;undefined;1536 x 864;1536 x 864
H015;49;Mannelijk;Rechts;2;110;left;no;350;leftarrow;950;true;focus;yes;526126;Chrome;112.0;Windows;10;undefined;undefined;1536 x 864;1536 x 864
H015;49;Mannelijk;Rechts;2;111;right;no;350;rightarrow;952;true;focus;yes;527847;Chrome;112.0;Windows;10;undefined;undefined;1536 x 864;1536 x 864
H015;49;Mannelijk;Rechts;2;112;left;yes;350;undefined;null;true;focus;yes;529878;Chrome;112.0;Windows;10;undefined;undefined;1536 x 864;1536 x 864
H015;49;Mannelijk;Rechts;2;113;right;yes;400;rightarrow;473;false;focus;yes;531126;Chrome;112.0;Windows;10;undefined;undefined;1536 x 864;1536 x 864
H015;49;Mannelijk;Rechts;2;114;right;no;350;rightarrow;1082;true;focus;yes;532976;Chrome;112.0;Windows;10;undefined;undefined;1536 x 864;1536 x 864
H015;49;Mannelijk;Rechts;2;115;left;yes;350;undefined;null;true;focus;yes;534994;Chrome;112.0;Windows;10;undefined;undefined;1536 x 864;1536 x 864
H015;49;Mannelijk;Rechts;2;116;right;no;400;rightarrow;488;true;focus;yes;536244;Chrome;112.0;Windows;10;undefined;undefined;1536 x 864;1536 x 864
H015;49;Mannelijk;Rechts;2;117;left;no;400;leftarrow;1094;true;focus;yes;538110;Chrome;112.0;Windows;10;undefined;undefined;1536 x 864;1536 x 864
H015;49;Mannelijk;Rechts;2;118;right;no;400;rightarrow;996;true;focus;yes;539874;Chrome;112.0;Windows;10;undefined;undefined;1536 x 864;1536 x 864
H015;49;Mannelijk;Rechts;2;119;left;no;400;undefined;null;false;focus;yes;541897;Chrome;112.0;Windows;10;undefined;undefined;1536 x 864;1536 x 864
H015;49;Mannelijk;Rechts;2;120;left;no;400;leftarrow;1244;true;focus;yes;543899;Chrome;112.0;Windows;10;undefined;undefined;1536 x 864;1536 x 864
H015;49;Mannelijk;Rechts;2;121;right;yes;400;undefined;null;true;focus;yes;545917;Chrome;112.0;Windows;10;undefined;undefined;1536 x 864;1536 x 864
H015;49;Mannelijk;Rechts;2;122;left;no;450;leftarrow;590;true;focus;yes;547266;Chrome;112.0;Windows;10;undefined;undefined;1536 x 864;1536 x 864
H015;49;Mannelijk;Rechts;2;123;right;no;450;rightarrow;1087;true;focus;yes;549134;Chrome;112.0;Windows;10;undefined;undefined;1536 x 864;1536 x 864
H015;49;Mannelijk;Rechts;2;124;right;no;450;undefined;null;false;focus;yes;551152;Chrome;112.0;Windows;10;undefined;undefined;1536 x 864;1536 x 864
H015;49;Mannelijk;Rechts;2;125;left;no;450;leftarrow;932;true;focus;yes;552859;Chrome;112.0;Windows;10;undefined;undefined;1536 x 864;1536 x 864
H015;49;Mannelijk;Rechts;2;126;left;no;450;leftarrow;1132;true;focus;yes;554752;Chrome;112.0;Windows;10;undefined;undefined;1536 x 864;1536 x 864
H015;49;Mannelijk;Rechts;2;127;left;yes;450;undefined;null;true;focus;yes;556782;Chrome;112.0;Windows;10;undefined;undefined;1536 x 864;1536 x 864
H015;49;Mannelijk;Rechts;2;128;right;no;500;rightarrow;616;true;focus;yes;558155;Chrome;112.0;Windows;10;undefined;undefined;1536 x 864;1536 x 864
H015;49;Mannelijk;Rechts;3;1;left;no;500;leftarrow;507;true;focus;yes;578496;Chrome;112.0;Windows;10;undefined;undefined;1536 x 864;1536 x 864
H015;49;Mannelijk;Rechts;3;2;right;no;500;rightarrow;746;true;focus;yes;580004;Chrome;112.0;Windows;10;undefined;undefined;1536 x 864;1536 x 864
H015;49;Mannelijk;Rechts;3;3;left;yes;500;leftarrow;622;false;focus;yes;581393;Chrome;112.0;Windows;10;undefined;undefined;1536 x 864;1536 x 864
H015;49;Mannelijk;Rechts;3;4;left;no;450;leftarrow;821;true;focus;yes;582976;Chrome;112.0;Windows;10;undefined;undefined;1536 x 864;1536 x 864
H015;49;Mannelijk;Rechts;3;5;right;yes;450;undefined;null;true;focus;yes;584991;Chrome;112.0;Windows;10;undefined;undefined;1536 x 864;1536 x 864
H015;49;Mannelijk;Rechts;3;6;right;no;500;rightarrow;780;true;focus;yes;586547;Chrome;112.0;Windows;10;undefined;undefined;1536 x 864;1536 x 864
H015;49;Mannelijk;Rechts;3;7;left;no;500;leftarrow;868;true;focus;yes;588198;Chrome;112.0;Windows;10;undefined;undefined;1536 x 864;1536 x 864
H015;49;Mannelijk;Rechts;3;8;right;no;500;rightarrow;799;true;focus;yes;589757;Chrome;112.0;Windows;10;undefined;undefined;1536 x 864;1536 x 864
H015;49;Mannelijk;Rechts;3;9;right;yes;500;undefined;null;true;focus;yes;591786;Chrome;112.0;Windows;10;undefined;undefined;1536 x 864;1536 x 864
H015;49;Mannelijk;Rechts;3;10;left;yes;550;undefined;null;true;focus;yes;593801;Chrome;112.0;Windows;10;undefined;undefined;1536 x 864;1536 x 864
H015;49;Mannelijk;Rechts;3;11;right;no;600;rightarrow;868;true;focus;yes;595444;Chrome;112.0;Windows;10;undefined;undefined;1536 x 864;1536 x 864
H015;49;Mannelijk;Rechts;3;12;left;no;600;leftarrow;938;true;focus;yes;597144;Chrome;112.0;Windows;10;undefined;undefined;1536 x 864;1536 x 864
H015;49;Mannelijk;Rechts;3;13;left;no;600;leftarrow;969;true;focus;yes;598873;Chrome;112.0;Windows;10;undefined;undefined;1536 x 864;1536 x 864
H015;49;Mannelijk;Rechts;3;14;right;no;600;rightarrow;1117;true;focus;yes;600757;Chrome;112.0;Windows;10;undefined;undefined;1536 x 864;1536 x 864
H015;49;Mannelijk;Rechts;3;15;left;no;600;leftarrow;1194;true;focus;yes;602717;Chrome;112.0;Windows;10;undefined;undefined;1536 x 864;1536 x 864
H015;49;Mannelijk;Rechts;3;16;right;no;600;rightarrow;1151;true;focus;yes;604644;Chrome;112.0;Windows;10;undefined;undefined;1536 x 864;1536 x 864
H015;49;Mannelijk;Rechts;3;17;right;no;600;rightarrow;1012;true;focus;yes;606455;Chrome;112.0;Windows;10;undefined;undefined;1536 x 864;1536 x 864
H015;49;Mannelijk;Rechts;3;18;left;no;600;leftarrow;1012;true;focus;yes;608235;Chrome;112.0;Windows;10;undefined;undefined;1536 x 864;1536 x 864
H015;49;Mannelijk;Rechts;3;19;right;no;600;rightarrow;1083;true;focus;yes;610094;Chrome;112.0;Windows;10;undefined;undefined;1536 x 864;1536 x 864
H015;49;Mannelijk;Rechts;3;20;right;no;600;rightarrow;1145;true;focus;yes;612000;Chrome;112.0;Windows;10;undefined;undefined;1536 x 864;1536 x 864
H015;49;Mannelijk;Rechts;3;21;right;yes;600;undefined;null;true;focus;yes;614039;Chrome;112.0;Windows;10;undefined;undefined;1536 x 864;1536 x 864
H015;49;Mannelijk;Rechts;3;22;left;yes;650;undefined;null;true;focus;yes;616064;Chrome;112.0;Windows;10;undefined;undefined;1536 x 864;1536 x 864
H015;49;Mannelijk;Rechts;3;23;left;no;700;leftarrow;1047;true;focus;yes;617871;Chrome;112.0;Windows;10;undefined;undefined;1536 x 864;1536 x 864
H015;49;Mannelijk;Rechts;3;24;left;no;700;leftarrow;1020;true;focus;yes;619660;Chrome;112.0;Windows;10;undefined;undefined;1536 x 864;1536 x 864
H015;49;Mannelijk;Rechts;3;25;left;no;700;leftarrow;1178;true;focus;yes;621601;Chrome;112.0;Windows;10;undefined;undefined;1536 x 864;1536 x 864
H015;49;Mannelijk;Rechts;3;26;right;yes;700;undefined;null;true;focus;yes;623639;Chrome;112.0;Windows;10;undefined;undefined;1536 x 864;1536 x 864
H015;49;Mannelijk;Rechts;3;27;right;no;750;rightarrow;943;true;focus;yes;625353;Chrome;112.0;Windows;10;undefined;undefined;1536 x 864;1536 x 864
H015;49;Mannelijk;Rechts;3;28;right;no;750;undefined;null;false;focus;yes;627393;Chrome;112.0;Windows;10;undefined;undefined;1536 x 864;1536 x 864
H015;49;Mannelijk;Rechts;3;29;left;no;750;leftarrow;574;true;focus;yes;628726;Chrome;112.0;Windows;10;undefined;undefined;1536 x 864;1536 x 864
H015;49;Mannelijk;Rechts;3;30;right;no;750;rightarrow;380;true;focus;yes;629864;Chrome;112.0;Windows;10;undefined;undefined;1536 x 864;1536 x 864
H015;49;Mannelijk;Rechts;3;31;left;yes;750;leftarrow;347;false;focus;yes;630980;Chrome;112.0;Windows;10;undefined;undefined;1536 x 864;1536 x 864
H015;49;Mannelijk;Rechts;3;32;left;no;700;leftarrow;385;true;focus;yes;632142;Chrome;112.0;Windows;10;undefined;undefined;1536 x 864;1536 x 864
H015;49;Mannelijk;Rechts;3;33;left;no;700;leftarrow;381;true;focus;yes;633282;Chrome;112.0;Windows;10;undefined;undefined;1536 x 864;1536 x 864
H015;49;Mannelijk;Rechts;3;34;right;no;700;leftarrow;337;false;focus;yes;634395;Chrome;112.0;Windows;10;undefined;undefined;1536 x 864;1536 x 864
H015;49;Mannelijk;Rechts;3;35;right;no;700;rightarrow;364;true;focus;yes;635538;Chrome;112.0;Windows;10;undefined;undefined;1536 x 864;1536 x 864
H015;49;Mannelijk;Rechts;3;36;left;yes;700;leftarrow;319;false;focus;yes;636627;Chrome;112.0;Windows;10;undefined;undefined;1536 x 864;1536 x 864
H015;49;Mannelijk;Rechts;3;37;right;yes;650;rightarrow;321;false;focus;yes;637705;Chrome;112.0;Windows;10;undefined;undefined;1536 x 864;1536 x 864
H015;49;Mannelijk;Rechts;3;38;right;no;600;leftarrow;284;false;focus;yes;638752;Chrome;112.0;Windows;10;undefined;undefined;1536 x 864;1536 x 864
H015;49;Mannelijk;Rechts;3;39;left;no;600;leftarrow;347;true;focus;yes;639855;Chrome;112.0;Windows;10;undefined;undefined;1536 x 864;1536 x 864
H015;49;Mannelijk;Rechts;3;40;left;no;600;leftarrow;406;true;focus;yes;641023;Chrome;112.0;Windows;10;undefined;undefined;1536 x 864;1536 x 864
H015;49;Mannelijk;Rechts;3;41;left;no;600;leftarrow;448;true;focus;yes;642235;Chrome;112.0;Windows;10;undefined;undefined;1536 x 864;1536 x 864
H015;49;Mannelijk;Rechts;3;42;left;no;600;leftarrow;492;true;focus;yes;643500;Chrome;112.0;Windows;10;undefined;undefined;1536 x 864;1536 x 864
H015;49;Mannelijk;Rechts;3;43;right;no;600;rightarrow;385;true;focus;yes;644641;Chrome;112.0;Windows;10;undefined;undefined;1536 x 864;1536 x 864
H015;49;Mannelijk;Rechts;3;44;left;yes;600;leftarrow;602;false;focus;yes;646008;Chrome;112.0;Windows;10;undefined;undefined;1536 x 864;1536 x 864
H015;49;Mannelijk;Rechts;3;45;left;no;550;leftarrow;400;true;focus;yes;647171;Chrome;112.0;Windows;10;undefined;undefined;1536 x 864;1536 x 864
H015;49;Mannelijk;Rechts;3;46;right;no;550;leftarrow;423;false;focus;yes;648356;Chrome;112.0;Windows;10;undefined;undefined;1536 x 864;1536 x 864
H015;49;Mannelijk;Rechts;3;47;right;no;550;rightarrow;403;true;focus;yes;649525;Chrome;112.0;Windows;10;undefined;undefined;1536 x 864;1536 x 864
H015;49;Mannelijk;Rechts;3;48;right;yes;550;rightarrow;453;false;focus;yes;650741;Chrome;112.0;Windows;10;undefined;undefined;1536 x 864;1536 x 864
H015;49;Mannelijk;Rechts;3;49;right;yes;500;rightarrow;422;false;focus;yes;651925;Chrome;112.0;Windows;10;undefined;undefined;1536 x 864;1536 x 864
H015;49;Mannelijk;Rechts;3;50;right;no;450;rightarrow;422;true;focus;yes;653108;Chrome;112.0;Windows;10;undefined;undefined;1536 x 864;1536 x 864
H015;49;Mannelijk;Rechts;3;51;right;no;450;rightarrow;414;true;focus;yes;654285;Chrome;112.0;Windows;10;undefined;undefined;1536 x 864;1536 x 864
H015;49;Mannelijk;Rechts;3;52;left;no;450;leftarrow;398;true;focus;yes;655457;Chrome;112.0;Windows;10;undefined;undefined;1536 x 864;1536 x 864
H015;49;Mannelijk;Rechts;3;53;left;no;450;leftarrow;392;true;focus;yes;656616;Chrome;112.0;Windows;10;undefined;undefined;1536 x 864;1536 x 864
H015;49;Mannelijk;Rechts;3;54;right;no;450;rightarrow;407;true;focus;yes;657781;Chrome;112.0;Windows;10;undefined;undefined;1536 x 864;1536 x 864
H015;49;Mannelijk;Rechts;3;55;left;yes;450;leftarrow;395;false;focus;yes;658950;Chrome;112.0;Windows;10;undefined;undefined;1536 x 864;1536 x 864
H015;49;Mannelijk;Rechts;3;56;left;no;400;leftarrow;376;true;focus;yes;660101;Chrome;112.0;Windows;10;undefined;undefined;1536 x 864;1536 x 864
H015;49;Mannelijk;Rechts;3;57;right;no;400;rightarrow;344;true;focus;yes;661213;Chrome;112.0;Windows;10;undefined;undefined;1536 x 864;1536 x 864
H015;49;Mannelijk;Rechts;3;58;left;yes;400;leftarrow;370;false;focus;yes;662359;Chrome;112.0;Windows;10;undefined;undefined;1536 x 864;1536 x 864
H015;49;Mannelijk;Rechts;3;59;right;no;350;rightarrow;367;true;focus;yes;663487;Chrome;112.0;Windows;10;undefined;undefined;1536 x 864;1536 x 864
H015;49;Mannelijk;Rechts;3;60;left;no;350;leftarrow;457;true;focus;yes;664712;Chrome;112.0;Windows;10;undefined;undefined;1536 x 864;1536 x 864
H015;49;Mannelijk;Rechts;3;61;right;yes;350;rightarrow;379;false;focus;yes;665861;Chrome;112.0;Windows;10;undefined;undefined;1536 x 864;1536 x 864
H015;49;Mannelijk;Rechts;3;62;left;no;300;leftarrow;592;true;focus;yes;667211;Chrome;112.0;Windows;10;undefined;undefined;1536 x 864;1536 x 864
H015;49;Mannelijk;Rechts;3;63;left;no;300;leftarrow;782;true;focus;yes;668760;Chrome;112.0;Windows;10;undefined;undefined;1536 x 864;1536 x 864
H015;49;Mannelijk;Rechts;3;64;right;no;300;rightarrow;639;true;focus;yes;670156;Chrome;112.0;Windows;10;undefined;undefined;1536 x 864;1536 x 864
H015;49;Mannelijk;Rechts;3;65;left;no;300;leftarrow;790;true;focus;yes;671707;Chrome;112.0;Windows;10;undefined;undefined;1536 x 864;1536 x 864
H015;49;Mannelijk;Rechts;3;66;left;no;300;leftarrow;808;true;focus;yes;673274;Chrome;112.0;Windows;10;undefined;undefined;1536 x 864;1536 x 864
H015;49;Mannelijk;Rechts;3;67;right;yes;300;undefined;null;true;focus;yes;675301;Chrome;112.0;Windows;10;undefined;undefined;1536 x 864;1536 x 864
H015;49;Mannelijk;Rechts;3;68;left;yes;350;leftarrow;534;false;focus;yes;676608;Chrome;112.0;Windows;10;undefined;undefined;1536 x 864;1536 x 864
H015;49;Mannelijk;Rechts;3;69;right;no;300;rightarrow;919;true;focus;yes;678292;Chrome;112.0;Windows;10;undefined;undefined;1536 x 864;1536 x 864
H015;49;Mannelijk;Rechts;3;70;left;no;300;leftarrow;877;true;focus;yes;679951;Chrome;112.0;Windows;10;undefined;undefined;1536 x 864;1536 x 864
H015;49;Mannelijk;Rechts;3;71;right;no;300;rightarrow;753;true;focus;yes;681479;Chrome;112.0;Windows;10;undefined;undefined;1536 x 864;1536 x 864
H015;49;Mannelijk;Rechts;3;72;right;no;300;rightarrow;1046;true;focus;yes;683299;Chrome;112.0;Windows;10;undefined;undefined;1536 x 864;1536 x 864
H015;49;Mannelijk;Rechts;3;73;left;no;300;leftarrow;863;true;focus;yes;684935;Chrome;112.0;Windows;10;undefined;undefined;1536 x 864;1536 x 864
H015;49;Mannelijk;Rechts;3;74;right;no;300;rightarrow;891;true;focus;yes;686594;Chrome;112.0;Windows;10;undefined;undefined;1536 x 864;1536 x 864
H015;49;Mannelijk;Rechts;3;75;left;no;300;leftarrow;895;true;focus;yes;688265;Chrome;112.0;Windows;10;undefined;undefined;1536 x 864;1536 x 864
H015;49;Mannelijk;Rechts;3;76;left;yes;300;undefined;null;true;focus;yes;690297;Chrome;112.0;Windows;10;undefined;undefined;1536 x 864;1536 x 864
H015;49;Mannelijk;Rechts;3;77;right;yes;350;undefined;null;true;focus;yes;692317;Chrome;112.0;Windows;10;undefined;undefined;1536 x 864;1536 x 864
H015;49;Mannelijk;Rechts;3;78;right;no;400;rightarrow;733;true;focus;yes;693829;Chrome;112.0;Windows;10;undefined;undefined;1536 x 864;1536 x 864
H015;49;Mannelijk;Rechts;3;79;left;no;400;leftarrow;768;true;focus;yes;695371;Chrome;112.0;Windows;10;undefined;undefined;1536 x 864;1536 x 864
H015;49;Mannelijk;Rechts;3;80;right;no;400;rightarrow;929;true;focus;yes;697067;Chrome;112.0;Windows;10;undefined;undefined;1536 x 864;1536 x 864
H015;49;Mannelijk;Rechts;3;81;right;yes;400;undefined;null;true;focus;yes;699089;Chrome;112.0;Windows;10;undefined;undefined;1536 x 864;1536 x 864
H015;49;Mannelijk;Rechts;3;82;right;no;450;rightarrow;644;true;focus;yes;700522;Chrome;112.0;Windows;10;undefined;undefined;1536 x 864;1536 x 864
H015;49;Mannelijk;Rechts;3;83;left;yes;450;undefined;null;true;focus;yes;702556;Chrome;112.0;Windows;10;undefined;undefined;1536 x 864;1536 x 864
H015;49;Mannelijk;Rechts;3;84;right;no;500;rightarrow;772;true;focus;yes;704097;Chrome;112.0;Windows;10;undefined;undefined;1536 x 864;1536 x 864
H015;49;Mannelijk;Rechts;3;85;left;no;500;leftarrow;1104;true;focus;yes;705975;Chrome;112.0;Windows;10;undefined;undefined;1536 x 864;1536 x 864
H015;49;Mannelijk;Rechts;3;86;left;no;500;leftarrow;1253;true;focus;yes;708002;Chrome;112.0;Windows;10;undefined;undefined;1536 x 864;1536 x 864
H015;49;Mannelijk;Rechts;3;87;left;no;500;leftarrow;1226;true;focus;yes;709998;Chrome;112.0;Windows;10;undefined;undefined;1536 x 864;1536 x 864
H015;49;Mannelijk;Rechts;3;88;right;no;500;rightarrow;1000;true;focus;yes;711768;Chrome;112.0;Windows;10;undefined;undefined;1536 x 864;1536 x 864
H015;49;Mannelijk;Rechts;3;89;right;no;500;rightarrow;1053;true;focus;yes;713590;Chrome;112.0;Windows;10;undefined;undefined;1536 x 864;1536 x 864
H015;49;Mannelijk;Rechts;3;90;right;no;500;rightarrow;932;true;focus;yes;715298;Chrome;112.0;Windows;10;undefined;undefined;1536 x 864;1536 x 864
H015;49;Mannelijk;Rechts;3;91;right;yes;500;undefined;null;true;focus;yes;717336;Chrome;112.0;Windows;10;undefined;undefined;1536 x 864;1536 x 864
H015;49;Mannelijk;Rechts;3;92;left;no;550;leftarrow;834;true;focus;yes;718954;Chrome;112.0;Windows;10;undefined;undefined;1536 x 864;1536 x 864
H015;49;Mannelijk;Rechts;3;98;left;yes;600;leftarrow;598;false;focus;yes;729268;Chrome;112.0;Windows;10;undefined;undefined;1536 x 864;1536 x 864
H015;49;Mannelijk;Rechts;3;94;left;no;600;leftarrow;926;true;focus;yes;722697;Chrome;112.0;Windows;10;undefined;undefined;1536 x 864;1536 x 864
H015;49;Mannelijk;Rechts;3;97;right;no;600;rightarrow;752;true;focus;yes;727895;Chrome;112.0;Windows;10;undefined;undefined;1536 x 864;1536 x 864
H015;49;Mannelijk;Rechts;3;95;left;no;600;leftarrow;877;true;focus;yes;724347;Chrome;112.0;Windows;10;undefined;undefined;1536 x 864;1536 x 864
H015;49;Mannelijk;Rechts;3;93;left;yes;550;undefined;null;true;focus;yes;721000;Chrome;112.0;Windows;10;undefined;undefined;1536 x 864;1536 x 864
H015;49;Mannelijk;Rechts;3;96;right;no;600;undefined;null;false;focus;yes;726377;Chrome;112.0;Windows;10;undefined;undefined;1536 x 864;1536 x 864
H015;49;Mannelijk;Rechts;3;99;right;no;550;rightarrow;458;true;focus;yes;730496;Chrome;112.0;Windows;10;undefined;undefined;1536 x 864;1536 x 864
H015;49;Mannelijk;Rechts;3;100;left;no;550;leftarrow;353;true;focus;yes;731637;Chrome;112.0;Windows;10;undefined;undefined;1536 x 864;1536 x 864
H015;49;Mannelijk;Rechts;3;101;left;no;550;leftarrow;404;true;focus;yes;732804;Chrome;112.0;Windows;10;undefined;undefined;1536 x 864;1536 x 864
H015;49;Mannelijk;Rechts;3;103;right;no;500;rightarrow;380;true;focus;yes;735066;Chrome;112.0;Windows;10;undefined;undefined;1536 x 864;1536 x 864
H015;49;Mannelijk;Rechts;3;104;left;no;500;rightarrow;424;false;focus;yes;736264;Chrome;112.0;Windows;10;undefined;undefined;1536 x 864;1536 x 864
H015;49;Mannelijk;Rechts;3;102;right;yes;550;rightarrow;336;false;focus;yes;733921;Chrome;112.0;Windows;10;undefined;undefined;1536 x 864;1536 x 864
H015;49;Mannelijk;Rechts;3;105;right;yes;500;rightarrow;388;false;focus;yes;737429;Chrome;112.0;Windows;10;undefined;undefined;1536 x 864;1536 x 864
H015;49;Mannelijk;Rechts;3;106;right;no;450;rightarrow;348;true;focus;yes;738544;Chrome;112.0;Windows;10;undefined;undefined;1536 x 864;1536 x 864
H015;49;Mannelijk;Rechts;3;107;left;no;450;leftarrow;321;true;focus;yes;739631;Chrome;112.0;Windows;10;undefined;undefined;1536 x 864;1536 x 864
H015;49;Mannelijk;Rechts;3;111;right;no;450;rightarrow;398;true;focus;yes;744224;Chrome;112.0;Windows;10;undefined;undefined;1536 x 864;1536 x 864
H015;49;Mannelijk;Rechts;3;108;left;no;450;leftarrow;410;true;focus;yes;740818;Chrome;112.0;Windows;10;undefined;undefined;1536 x 864;1536 x 864
H015;49;Mannelijk;Rechts;3;109;left;no;450;leftarrow;358;true;focus;yes;741951;Chrome;112.0;Windows;10;undefined;undefined;1536 x 864;1536 x 864
H015;49;Mannelijk;Rechts;3;110;right;no;450;rightarrow;336;true;focus;yes;743061;Chrome;112.0;Windows;10;undefined;undefined;1536 x 864;1536 x 864
H015;49;Mannelijk;Rechts;3;112;left;yes;450;leftarrow;338;false;focus;yes;745347;Chrome;112.0;Windows;10;undefined;undefined;1536 x 864;1536 x 864
H015;49;Mannelijk;Rechts;3;113;right;yes;400;rightarrow;395;false;focus;yes;746519;Chrome;112.0;Windows;10;undefined;undefined;1536 x 864;1536 x 864
H015;49;Mannelijk;Rechts;3;115;right;no;350;rightarrow;499;true;focus;yes;748908;Chrome;112.0;Windows;10;undefined;undefined;1536 x 864;1536 x 864
H015;49;Mannelijk;Rechts;3;114;right;no;350;rightarrow;350;true;focus;yes;747634;Chrome;112.0;Windows;10;undefined;undefined;1536 x 864;1536 x 864
H015;49;Mannelijk;Rechts;3;116;left;yes;350;leftarrow;337;false;focus;yes;750021;Chrome;112.0;Windows;10;undefined;undefined;1536 x 864;1536 x 864
H015;49;Mannelijk;Rechts;3;117;right;no;300;rightarrow;408;true;focus;yes;751202;Chrome;112.0;Windows;10;undefined;undefined;1536 x 864;1536 x 864
H015;49;Mannelijk;Rechts;3;118;left;no;300;leftarrow;340;true;focus;yes;752317;Chrome;112.0;Windows;10;undefined;undefined;1536 x 864;1536 x 864
H015;49;Mannelijk;Rechts;3;119;left;no;300;leftarrow;501;true;focus;yes;753597;Chrome;112.0;Windows;10;undefined;undefined;1536 x 864;1536 x 864
H015;49;Mannelijk;Rechts;3;120;left;no;300;rightarrow;379;false;focus;yes;754735;Chrome;112.0;Windows;10;undefined;undefined;1536 x 864;1536 x 864
H015;49;Mannelijk;Rechts;3;121;right;no;300;rightarrow;353;true;focus;yes;755855;Chrome;112.0;Windows;10;undefined;undefined;1536 x 864;1536 x 864
H015;49;Mannelijk;Rechts;3;122;right;no;300;rightarrow;414;true;focus;yes;757038;Chrome;112.0;Windows;10;undefined;undefined;1536 x 864;1536 x 864
H015;49;Mannelijk;Rechts;3;123;right;no;300;rightarrow;425;true;focus;yes;758232;Chrome;112.0;Windows;10;undefined;undefined;1536 x 864;1536 x 864
H015;49;Mannelijk;Rechts;3;124;left;yes;300;leftarrow;369;false;focus;yes;759378;Chrome;112.0;Windows;10;undefined;undefined;1536 x 864;1536 x 864
H015;49;Mannelijk;Rechts;3;125;left;no;250;leftarrow;522;true;focus;yes;760680;Chrome;112.0;Windows;10;undefined;undefined;1536 x 864;1536 x 864
H015;49;Mannelijk;Rechts;3;126;left;no;250;leftarrow;420;true;focus;yes;761881;Chrome;112.0;Windows;10;undefined;undefined;1536 x 864;1536 x 864
H015;49;Mannelijk;Rechts;3;127;left;no;250;leftarrow;432;true;focus;yes;763089;Chrome;112.0;Windows;10;undefined;undefined;1536 x 864;1536 x 864
H015;49;Mannelijk;Rechts;3;128;right;yes;250;undefined;null;true;focus;yes;765125;Chrome;112.0;Windows;10;undefined;undefined;1536 x 864;1536 x 864
H015;49;Mannelijk;Rechts;4;1;left;no;300;leftarrow;724;true;focus;yes;836453;Chrome;112.0;Windows;10;undefined;undefined;1536 x 864;1536 x 864
H015;49;Mannelijk;Rechts;4;2;right;no;300;rightarrow;574;true;focus;yes;837802;Chrome;112.0;Windows;10;undefined;undefined;1536 x 864;1536 x 864
H015;49;Mannelijk;Rechts;4;3;right;yes;300;undefined;null;true;focus;yes;839832;Chrome;112.0;Windows;10;undefined;undefined;1536 x 864;1536 x 864
H015;49;Mannelijk;Rechts;4;4;left;no;350;leftarrow;526;true;focus;yes;841133;Chrome;112.0;Windows;10;undefined;undefined;1536 x 864;1536 x 864
H015;49;Mannelijk;Rechts;4;5;right;no;350;rightarrow;621;true;focus;yes;842529;Chrome;112.0;Windows;10;undefined;undefined;1536 x 864;1536 x 864
H015;49;Mannelijk;Rechts;4;6;right;no;350;rightarrow;767;true;focus;yes;844067;Chrome;112.0;Windows;10;undefined;undefined;1536 x 864;1536 x 864
H015;49;Mannelijk;Rechts;4;7;left;no;350;leftarrow;703;true;focus;yes;845544;Chrome;112.0;Windows;10;undefined;undefined;1536 x 864;1536 x 864
H015;49;Mannelijk;Rechts;4;8;left;yes;350;leftarrow;514;false;focus;yes;846837;Chrome;112.0;Windows;10;undefined;undefined;1536 x 864;1536 x 864
H015;49;Mannelijk;Rechts;4;9;left;no;300;leftarrow;813;true;focus;yes;848427;Chrome;112.0;Windows;10;undefined;undefined;1536 x 864;1536 x 864
H015;49;Mannelijk;Rechts;4;10;left;no;300;leftarrow;665;true;focus;yes;849868;Chrome;112.0;Windows;10;undefined;undefined;1536 x 864;1536 x 864
H015;49;Mannelijk;Rechts;4;11;right;no;300;rightarrow;638;true;focus;yes;851276;Chrome;112.0;Windows;10;undefined;undefined;1536 x 864;1536 x 864
H015;49;Mannelijk;Rechts;4;12;left;yes;300;undefined;null;true;focus;yes;853306;Chrome;112.0;Windows;10;undefined;undefined;1536 x 864;1536 x 864
H015;49;Mannelijk;Rechts;4;13;right;yes;350;undefined;null;true;focus;yes;855329;Chrome;112.0;Windows;10;undefined;undefined;1536 x 864;1536 x 864
H015;49;Mannelijk;Rechts;4;14;right;no;400;rightarrow;704;true;focus;yes;856813;Chrome;112.0;Windows;10;undefined;undefined;1536 x 864;1536 x 864
H015;49;Mannelijk;Rechts;4;15;left;no;400;leftarrow;801;true;focus;yes;858377;Chrome;112.0;Windows;10;undefined;undefined;1536 x 864;1536 x 864
H015;49;Mannelijk;Rechts;4;16;right;no;400;rightarrow;825;true;focus;yes;859964;Chrome;112.0;Windows;10;undefined;undefined;1536 x 864;1536 x 864
H015;49;Mannelijk;Rechts;4;17;right;no;400;rightarrow;744;true;focus;yes;861468;Chrome;112.0;Windows;10;undefined;undefined;1536 x 864;1536 x 864
H015;49;Mannelijk;Rechts;4;18;right;yes;400;undefined;null;true;focus;yes;863504;Chrome;112.0;Windows;10;undefined;undefined;1536 x 864;1536 x 864
H015;49;Mannelijk;Rechts;4;19;right;no;450;rightarrow;872;true;focus;yes;865143;Chrome;112.0;Windows;10;undefined;undefined;1536 x 864;1536 x 864
H015;49;Mannelijk;Rechts;4;20;left;no;450;leftarrow;902;true;focus;yes;866827;Chrome;112.0;Windows;10;undefined;undefined;1536 x 864;1536 x 864
H015;49;Mannelijk;Rechts;4;21;left;no;450;leftarrow;853;true;focus;yes;868454;Chrome;112.0;Windows;10;undefined;undefined;1536 x 864;1536 x 864
H015;49;Mannelijk;Rechts;4;22;right;no;450;rightarrow;788;true;focus;yes;870028;Chrome;112.0;Windows;10;undefined;undefined;1536 x 864;1536 x 864
H015;49;Mannelijk;Rechts;4;23;left;no;450;leftarrow;930;true;focus;yes;871737;Chrome;112.0;Windows;10;undefined;undefined;1536 x 864;1536 x 864
H015;49;Mannelijk;Rechts;4;24;left;yes;450;undefined;null;true;focus;yes;873756;Chrome;112.0;Windows;10;undefined;undefined;1536 x 864;1536 x 864
H015;49;Mannelijk;Rechts;4;25;right;yes;500;rightarrow;714;false;focus;yes;875237;Chrome;112.0;Windows;10;undefined;undefined;1536 x 864;1536 x 864
H015;49;Mannelijk;Rechts;4;26;left;no;450;leftarrow;1047;true;focus;yes;877049;Chrome;112.0;Windows;10;undefined;undefined;1536 x 864;1536 x 864
H015;49;Mannelijk;Rechts;4;27;right;no;450;undefined;null;false;focus;yes;879073;Chrome;112.0;Windows;10;undefined;undefined;1536 x 864;1536 x 864
H015;49;Mannelijk;Rechts;4;28;right;no;450;rightarrow;1109;true;focus;yes;880949;Chrome;112.0;Windows;10;undefined;undefined;1536 x 864;1536 x 864
H015;49;Mannelijk;Rechts;4;29;left;no;450;leftarrow;1020;true;focus;yes;882742;Chrome;112.0;Windows;10;undefined;undefined;1536 x 864;1536 x 864
H015;49;Mannelijk;Rechts;4;30;left;yes;450;undefined;null;true;focus;yes;884761;Chrome;112.0;Windows;10;undefined;undefined;1536 x 864;1536 x 864
H015;49;Mannelijk;Rechts;4;31;left;no;500;leftarrow;1152;true;focus;yes;886682;Chrome;112.0;Windows;10;undefined;undefined;1536 x 864;1536 x 864
H015;49;Mannelijk;Rechts;4;32;right;no;500;rightarrow;1237;true;focus;yes;888688;Chrome;112.0;Windows;10;undefined;undefined;1536 x 864;1536 x 864
H015;49;Mannelijk;Rechts;4;33;right;no;500;rightarrow;1036;true;focus;yes;890491;Chrome;112.0;Windows;10;undefined;undefined;1536 x 864;1536 x 864
H015;49;Mannelijk;Rechts;4;34;right;yes;500;undefined;null;true;focus;yes;892532;Chrome;112.0;Windows;10;undefined;undefined;1536 x 864;1536 x 864
H015;49;Mannelijk;Rechts;4;35;left;yes;550;undefined;null;true;focus;yes;894571;Chrome;112.0;Windows;10;undefined;undefined;1536 x 864;1536 x 864
H015;49;Mannelijk;Rechts;4;36;left;no;600;leftarrow;976;true;focus;yes;896317;Chrome;112.0;Windows;10;undefined;undefined;1536 x 864;1536 x 864
H015;49;Mannelijk;Rechts;4;37;right;no;600;rightarrow;1030;true;focus;yes;898127;Chrome;112.0;Windows;10;undefined;undefined;1536 x 864;1536 x 864
H015;49;Mannelijk;Rechts;4;38;right;no;600;rightarrow;1234;true;focus;yes;900129;Chrome;112.0;Windows;10;undefined;undefined;1536 x 864;1536 x 864
H015;49;Mannelijk;Rechts;4;39;left;no;600;leftarrow;880;true;focus;yes;901775;Chrome;112.0;Windows;10;undefined;undefined;1536 x 864;1536 x 864
H015;49;Mannelijk;Rechts;4;40;left;no;600;leftarrow;1127;true;focus;yes;903673;Chrome;112.0;Windows;10;undefined;undefined;1536 x 864;1536 x 864
H015;49;Mannelijk;Rechts;4;41;right;no;600;rightarrow;841;true;focus;yes;905286;Chrome;112.0;Windows;10;undefined;undefined;1536 x 864;1536 x 864
H015;49;Mannelijk;Rechts;4;42;left;no;600;leftarrow;1055;true;focus;yes;907116;Chrome;112.0;Windows;10;undefined;undefined;1536 x 864;1536 x 864
H015;49;Mannelijk;Rechts;4;43;right;no;600;undefined;null;false;focus;yes;909146;Chrome;112.0;Windows;10;undefined;undefined;1536 x 864;1536 x 864
H015;49;Mannelijk;Rechts;4;44;left;yes;600;undefined;null;true;focus;yes;911175;Chrome;112.0;Windows;10;undefined;undefined;1536 x 864;1536 x 864
H015;49;Mannelijk;Rechts;4;45;left;no;650;leftarrow;809;true;focus;yes;912754;Chrome;112.0;Windows;10;undefined;undefined;1536 x 864;1536 x 864
H015;49;Mannelijk;Rechts;4;46;right;yes;650;undefined;null;true;focus;yes;914796;Chrome;112.0;Windows;10;undefined;undefined;1536 x 864;1536 x 864
H015;49;Mannelijk;Rechts;4;47;right;no;700;rightarrow;810;true;focus;yes;916375;Chrome;112.0;Windows;10;undefined;undefined;1536 x 864;1536 x 864
H015;49;Mannelijk;Rechts;4;48;left;no;700;leftarrow;1226;true;focus;yes;918374;Chrome;112.0;Windows;10;undefined;undefined;1536 x 864;1536 x 864
H015;49;Mannelijk;Rechts;4;49;right;no;700;rightarrow;1187;true;focus;yes;920332;Chrome;112.0;Windows;10;undefined;undefined;1536 x 864;1536 x 864
H015;49;Mannelijk;Rechts;4;50;left;no;700;leftarrow;1126;true;focus;yes;922218;Chrome;112.0;Windows;10;undefined;undefined;1536 x 864;1536 x 864
H015;49;Mannelijk;Rechts;4;51;left;no;700;leftarrow;971;true;focus;yes;923961;Chrome;112.0;Windows;10;undefined;undefined;1536 x 864;1536 x 864
H015;49;Mannelijk;Rechts;4;52;left;yes;700;leftarrow;921;false;focus;yes;925648;Chrome;112.0;Windows;10;undefined;undefined;1536 x 864;1536 x 864
H015;49;Mannelijk;Rechts;4;53;left;no;650;undefined;null;false;focus;yes;927686;Chrome;112.0;Windows;10;undefined;undefined;1536 x 864;1536 x 864
H015;49;Mannelijk;Rechts;4;54;right;yes;650;rightarrow;490;false;focus;yes;928952;Chrome;112.0;Windows;10;undefined;undefined;1536 x 864;1536 x 864
H015;49;Mannelijk;Rechts;4;55;right;no;600;rightarrow;703;true;focus;yes;930432;Chrome;112.0;Windows;10;undefined;undefined;1536 x 864;1536 x 864
H015;49;Mannelijk;Rechts;4;56;right;no;600;rightarrow;982;true;focus;yes;932179;Chrome;112.0;Windows;10;undefined;undefined;1536 x 864;1536 x 864
H015;49;Mannelijk;Rechts;4;57;left;no;600;leftarrow;865;true;focus;yes;933829;Chrome;112.0;Windows;10;undefined;undefined;1536 x 864;1536 x 864
H015;49;Mannelijk;Rechts;4;58;right;yes;600;rightarrow;774;false;focus;yes;935386;Chrome;112.0;Windows;10;undefined;undefined;1536 x 864;1536 x 864
H015;49;Mannelijk;Rechts;4;59;left;no;550;leftarrow;813;true;focus;yes;936967;Chrome;112.0;Windows;10;undefined;undefined;1536 x 864;1536 x 864
H015;49;Mannelijk;Rechts;4;60;right;no;550;undefined;null;false;focus;yes;938991;Chrome;112.0;Windows;10;undefined;undefined;1536 x 864;1536 x 864
H015;49;Mannelijk;Rechts;4;61;right;no;550;rightarrow;916;true;focus;yes;940675;Chrome;112.0;Windows;10;undefined;undefined;1536 x 864;1536 x 864
H015;49;Mannelijk;Rechts;4;62;left;yes;550;undefined;null;true;focus;yes;942711;Chrome;112.0;Windows;10;undefined;undefined;1536 x 864;1536 x 864
H015;49;Mannelijk;Rechts;4;63;right;no;600;rightarrow;660;true;focus;yes;944153;Chrome;112.0;Windows;10;undefined;undefined;1536 x 864;1536 x 864
H015;49;Mannelijk;Rechts;4;64;left;no;600;leftarrow;797;true;focus;yes;945728;Chrome;112.0;Windows;10;undefined;undefined;1536 x 864;1536 x 864
H015;49;Mannelijk;Rechts;4;65;right;no;600;rightarrow;766;true;focus;yes;947253;Chrome;112.0;Windows;10;undefined;undefined;1536 x 864;1536 x 864
H015;49;Mannelijk;Rechts;4;66;left;no;600;leftarrow;801;true;focus;yes;948822;Chrome;112.0;Windows;10;undefined;undefined;1536 x 864;1536 x 864
H015;49;Mannelijk;Rechts;4;67;left;yes;600;leftarrow;739;false;focus;yes;950333;Chrome;112.0;Windows;10;undefined;undefined;1536 x 864;1536 x 864
H015;49;Mannelijk;Rechts;4;68;right;no;550;rightarrow;844;true;focus;yes;951940;Chrome;112.0;Windows;10;undefined;undefined;1536 x 864;1536 x 864
H015;49;Mannelijk;Rechts;4;69;right;yes;550;undefined;null;true;focus;yes;953975;Chrome;112.0;Windows;10;undefined;undefined;1536 x 864;1536 x 864
H015;49;Mannelijk;Rechts;4;70;left;no;600;leftarrow;632;true;focus;yes;955394;Chrome;112.0;Windows;10;undefined;undefined;1536 x 864;1536 x 864
H015;49;Mannelijk;Rechts;4;71;right;no;600;rightarrow;856;true;focus;yes;957035;Chrome;112.0;Windows;10;undefined;undefined;1536 x 864;1536 x 864
H015;49;Mannelijk;Rechts;4;72;left;no;600;leftarrow;825;true;focus;yes;958632;Chrome;112.0;Windows;10;undefined;undefined;1536 x 864;1536 x 864
H015;49;Mannelijk;Rechts;4;73;left;no;600;leftarrow;922;true;focus;yes;960317;Chrome;112.0;Windows;10;undefined;undefined;1536 x 864;1536 x 864
H015;49;Mannelijk;Rechts;4;74;left;yes;600;undefined;null;true;focus;yes;962349;Chrome;112.0;Windows;10;undefined;undefined;1536 x 864;1536 x 864
H015;49;Mannelijk;Rechts;4;75;right;no;650;rightarrow;768;true;focus;yes;963891;Chrome;112.0;Windows;10;undefined;undefined;1536 x 864;1536 x 864
H015;49;Mannelijk;Rechts;4;76;right;no;650;rightarrow;1186;true;focus;yes;965836;Chrome;112.0;Windows;10;undefined;undefined;1536 x 864;1536 x 864
H015;49;Mannelijk;Rechts;4;77;right;yes;650;rightarrow;825;false;focus;yes;967432;Chrome;112.0;Windows;10;undefined;undefined;1536 x 864;1536 x 864
H015;49;Mannelijk;Rechts;4;78;left;no;600;leftarrow;869;true;focus;yes;969074;Chrome;112.0;Windows;10;undefined;undefined;1536 x 864;1536 x 864
H015;49;Mannelijk;Rechts;4;79;left;no;600;leftarrow;1080;true;focus;yes;970937;Chrome;112.0;Windows;10;undefined;undefined;1536 x 864;1536 x 864
H015;49;Mannelijk;Rechts;4;80;right;no;600;rightarrow;939;true;focus;yes;972643;Chrome;112.0;Windows;10;undefined;undefined;1536 x 864;1536 x 864
H015;49;Mannelijk;Rechts;4;81;left;yes;600;undefined;null;true;focus;yes;974675;Chrome;112.0;Windows;10;undefined;undefined;1536 x 864;1536 x 864
H015;49;Mannelijk;Rechts;4;82;right;no;650;rightarrow;838;true;focus;yes;976287;Chrome;112.0;Windows;10;undefined;undefined;1536 x 864;1536 x 864
H015;49;Mannelijk;Rechts;4;83;left;no;650;leftarrow;999;true;focus;yes;978057;Chrome;112.0;Windows;10;undefined;undefined;1536 x 864;1536 x 864
H015;49;Mannelijk;Rechts;4;84;right;no;650;rightarrow;809;true;focus;yes;979635;Chrome;112.0;Windows;10;undefined;undefined;1536 x 864;1536 x 864
H015;49;Mannelijk;Rechts;4;85;right;yes;650;rightarrow;754;false;focus;yes;981164;Chrome;112.0;Windows;10;undefined;undefined;1536 x 864;1536 x 864
H015;49;Mannelijk;Rechts;4;86;left;no;600;leftarrow;1038;true;focus;yes;982972;Chrome;112.0;Windows;10;undefined;undefined;1536 x 864;1536 x 864
H015;49;Mannelijk;Rechts;4;87;right;no;600;rightarrow;892;true;focus;yes;984631;Chrome;112.0;Windows;10;undefined;undefined;1536 x 864;1536 x 864
H015;49;Mannelijk;Rechts;4;88;left;no;600;leftarrow;1106;true;focus;yes;986498;Chrome;112.0;Windows;10;undefined;undefined;1536 x 864;1536 x 864
H015;49;Mannelijk;Rechts;4;89;right;no;600;rightarrow;873;true;focus;yes;988139;Chrome;112.0;Windows;10;undefined;undefined;1536 x 864;1536 x 864
H015;49;Mannelijk;Rechts;4;90;left;no;600;leftarrow;1029;true;focus;yes;989954;Chrome;112.0;Windows;10;undefined;undefined;1536 x 864;1536 x 864
H015;49;Mannelijk;Rechts;4;91;left;no;600;leftarrow;907;true;focus;yes;991632;Chrome;112.0;Windows;10;undefined;undefined;1536 x 864;1536 x 864
H015;49;Mannelijk;Rechts;4;92;left;yes;600;undefined;null;true;focus;yes;993655;Chrome;112.0;Windows;10;undefined;undefined;1536 x 864;1536 x 864
H015;49;Mannelijk;Rechts;4;93;right;no;650;rightarrow;449;true;focus;yes;994875;Chrome;112.0;Windows;10;undefined;undefined;1536 x 864;1536 x 864
H015;49;Mannelijk;Rechts;4;94;right;no;650;rightarrow;976;true;focus;yes;996634;Chrome;112.0;Windows;10;undefined;undefined;1536 x 864;1536 x 864
H015;49;Mannelijk;Rechts;4;95;right;yes;650;rightarrow;878;false;focus;yes;998288;Chrome;112.0;Windows;10;undefined;undefined;1536 x 864;1536 x 864
H015;49;Mannelijk;Rechts;4;96;left;no;600;leftarrow;638;true;focus;yes;999688;Chrome;112.0;Windows;10;undefined;undefined;1536 x 864;1536 x 864
H015;49;Mannelijk;Rechts;4;97;left;no;600;leftarrow;947;true;focus;yes;1001407;Chrome;112.0;Windows;10;undefined;undefined;1536 x 864;1536 x 864
H015;49;Mannelijk;Rechts;4;98;left;no;600;leftarrow;658;true;focus;yes;1002833;Chrome;112.0;Windows;10;undefined;undefined;1536 x 864;1536 x 864
H015;49;Mannelijk;Rechts;4;99;right;no;600;rightarrow;915;true;focus;yes;1004525;Chrome;112.0;Windows;10;undefined;undefined;1536 x 864;1536 x 864
H015;49;Mannelijk;Rechts;4;100;left;yes;600;leftarrow;772;false;focus;yes;1006066;Chrome;112.0;Windows;10;undefined;undefined;1536 x 864;1536 x 864
H015;49;Mannelijk;Rechts;4;101;right;no;550;rightarrow;736;true;focus;yes;1007575;Chrome;112.0;Windows;10;undefined;undefined;1536 x 864;1536 x 864
H015;49;Mannelijk;Rechts;4;102;right;yes;550;undefined;null;true;focus;yes;1009587;Chrome;112.0;Windows;10;undefined;undefined;1536 x 864;1536 x 864
H015;49;Mannelijk;Rechts;4;103;right;no;600;rightarrow;579;true;focus;yes;1010942;Chrome;112.0;Windows;10;undefined;undefined;1536 x 864;1536 x 864
H015;49;Mannelijk;Rechts;4;104;left;no;600;leftarrow;850;true;focus;yes;1012575;Chrome;112.0;Windows;10;undefined;undefined;1536 x 864;1536 x 864
H015;49;Mannelijk;Rechts;4;105;left;no;600;leftarrow;946;true;focus;yes;1014284;Chrome;112.0;Windows;10;undefined;undefined;1536 x 864;1536 x 864
H015;49;Mannelijk;Rechts;4;106;right;yes;600;rightarrow;746;false;focus;yes;1015801;Chrome;112.0;Windows;10;undefined;undefined;1536 x 864;1536 x 864
H015;49;Mannelijk;Rechts;4;109;right;no;550;rightarrow;653;true;focus;yes;1020557;Chrome;112.0;Windows;10;undefined;undefined;1536 x 864;1536 x 864
H015;49;Mannelijk;Rechts;4;111;right;no;550;rightarrow;1048;true;focus;yes;1023847;Chrome;112.0;Windows;10;undefined;undefined;1536 x 864;1536 x 864
H015;49;Mannelijk;Rechts;4;108;left;no;550;leftarrow;977;true;focus;yes;1019148;Chrome;112.0;Windows;10;undefined;undefined;1536 x 864;1536 x 864
H015;49;Mannelijk;Rechts;4;107;left;no;550;leftarrow;825;true;focus;yes;1017400;Chrome;112.0;Windows;10;undefined;undefined;1536 x 864;1536 x 864
H015;49;Mannelijk;Rechts;4;110;right;no;550;rightarrow;701;true;focus;yes;1022026;Chrome;112.0;Windows;10;undefined;undefined;1536 x 864;1536 x 864
H015;49;Mannelijk;Rechts;4;112;left;yes;550;undefined;null;true;focus;yes;1025886;Chrome;112.0;Windows;10;undefined;undefined;1536 x 864;1536 x 864
H015;49;Mannelijk;Rechts;4;113;left;yes;600;leftarrow;514;false;focus;yes;1027169;Chrome;112.0;Windows;10;undefined;undefined;1536 x 864;1536 x 864
H015;49;Mannelijk;Rechts;4;114;right;no;550;rightarrow;686;true;focus;yes;1028625;Chrome;112.0;Windows;10;undefined;undefined;1536 x 864;1536 x 864
H015;49;Mannelijk;Rechts;4;115;right;no;550;rightarrow;777;true;focus;yes;1030165;Chrome;112.0;Windows;10;undefined;undefined;1536 x 864;1536 x 864
H015;49;Mannelijk;Rechts;4;116;left;no;550;leftarrow;910;true;focus;yes;1031850;Chrome;112.0;Windows;10;undefined;undefined;1536 x 864;1536 x 864
H015;49;Mannelijk;Rechts;4;117;right;no;550;rightarrow;570;true;focus;yes;1033185;Chrome;112.0;Windows;10;undefined;undefined;1536 x 864;1536 x 864
H015;49;Mannelijk;Rechts;4;118;right;yes;550;rightarrow;805;false;focus;yes;1034776;Chrome;112.0;Windows;10;undefined;undefined;1536 x 864;1536 x 864
H015;49;Mannelijk;Rechts;4;119;left;no;500;leftarrow;576;true;focus;yes;1036127;Chrome;112.0;Windows;10;undefined;undefined;1536 x 864;1536 x 864
H015;49;Mannelijk;Rechts;4;120;left;no;500;leftarrow;924;true;focus;yes;1037812;Chrome;112.0;Windows;10;undefined;undefined;1536 x 864;1536 x 864
H015;49;Mannelijk;Rechts;4;121;right;no;500;rightarrow;600;true;focus;yes;1039189;Chrome;112.0;Windows;10;undefined;undefined;1536 x 864;1536 x 864
H015;49;Mannelijk;Rechts;4;122;right;no;500;rightarrow;801;true;focus;yes;1040757;Chrome;112.0;Windows;10;undefined;undefined;1536 x 864;1536 x 864
H015;49;Mannelijk;Rechts;4;123;right;yes;500;rightarrow;673;false;focus;yes;1042211;Chrome;112.0;Windows;10;undefined;undefined;1536 x 864;1536 x 864
H015;49;Mannelijk;Rechts;4;124;left;no;450;leftarrow;742;true;focus;yes;1043731;Chrome;112.0;Windows;10;undefined;undefined;1536 x 864;1536 x 864
H015;49;Mannelijk;Rechts;4;125;left;no;450;leftarrow;979;true;focus;yes;1045478;Chrome;112.0;Windows;10;undefined;undefined;1536 x 864;1536 x 864
H015;49;Mannelijk;Rechts;4;126;left;yes;450;undefined;null;true;focus;yes;1047521;Chrome;112.0;Windows;10;undefined;undefined;1536 x 864;1536 x 864
H015;49;Mannelijk;Rechts;4;127;left;no;500;leftarrow;668;true;focus;yes;1048970;Chrome;112.0;Windows;10;undefined;undefined;1536 x 864;1536 x 864
H015;49;Mannelijk;Rechts;4;128;right;no;500;rightarrow;773;true;focus;yes;1050511;Chrome;112.0;Windows;10;undefined;undefined;1536 x 864;1536 x 864
H015;49;Mannelijk;Rechts;5;1;right;no;500;rightarrow;1011;true;focus;yes;1073033;Chrome;112.0;Windows;10;undefined;undefined;1536 x 864;1536 x 864
H015;49;Mannelijk;Rechts;5;2;left;no;500;leftarrow;883;true;focus;yes;1074686;Chrome;112.0;Windows;10;undefined;undefined;1536 x 864;1536 x 864
H015;49;Mannelijk;Rechts;5;3;right;no;500;rightarrow;999;true;focus;yes;1076452;Chrome;112.0;Windows;10;undefined;undefined;1536 x 864;1536 x 864
H015;49;Mannelijk;Rechts;5;4;left;no;500;leftarrow;598;true;focus;yes;1077817;Chrome;112.0;Windows;10;undefined;undefined;1536 x 864;1536 x 864
H015;49;Mannelijk;Rechts;5;5;left;no;500;leftarrow;770;true;focus;yes;1079359;Chrome;112.0;Windows;10;undefined;undefined;1536 x 864;1536 x 864
H015;49;Mannelijk;Rechts;5;6;left;yes;500;undefined;null;true;focus;yes;1081379;Chrome;112.0;Windows;10;undefined;undefined;1536 x 864;1536 x 864
H015;49;Mannelijk;Rechts;5;7;right;no;550;rightarrow;802;true;focus;yes;1082955;Chrome;112.0;Windows;10;undefined;undefined;1536 x 864;1536 x 864
H015;49;Mannelijk;Rechts;5;8;right;yes;550;undefined;null;true;focus;yes;1084998;Chrome;112.0;Windows;10;undefined;undefined;1536 x 864;1536 x 864
H015;49;Mannelijk;Rechts;5;9;right;no;600;rightarrow;411;true;focus;yes;1086172;Chrome;112.0;Windows;10;undefined;undefined;1536 x 864;1536 x 864
H015;49;Mannelijk;Rechts;5;10;right;yes;600;undefined;null;true;focus;yes;1088201;Chrome;112.0;Windows;10;undefined;undefined;1536 x 864;1536 x 864
H015;49;Mannelijk;Rechts;5;11;left;no;650;leftarrow;676;true;focus;yes;1089643;Chrome;112.0;Windows;10;undefined;undefined;1536 x 864;1536 x 864
H015;49;Mannelijk;Rechts;5;12;right;no;650;rightarrow;926;true;focus;yes;1091344;Chrome;112.0;Windows;10;undefined;undefined;1536 x 864;1536 x 864
H015;49;Mannelijk;Rechts;5;13;left;no;650;leftarrow;618;true;focus;yes;1092737;Chrome;112.0;Windows;10;undefined;undefined;1536 x 864;1536 x 864
H015;49;Mannelijk;Rechts;5;14;right;no;650;rightarrow;557;true;focus;yes;1094077;Chrome;112.0;Windows;10;undefined;undefined;1536 x 864;1536 x 864
H015;49;Mannelijk;Rechts;5;15;left;yes;650;leftarrow;661;false;focus;yes;1095514;Chrome;112.0;Windows;10;undefined;undefined;1536 x 864;1536 x 864
H015;49;Mannelijk;Rechts;5;16;left;no;600;leftarrow;1013;true;focus;yes;1097300;Chrome;112.0;Windows;10;undefined;undefined;1536 x 864;1536 x 864
H015;49;Mannelijk;Rechts;5;17;left;no;600;leftarrow;772;true;focus;yes;1098854;Chrome;112.0;Windows;10;undefined;undefined;1536 x 864;1536 x 864
H015;49;Mannelijk;Rechts;5;18;right;yes;600;undefined;null;true;focus;yes;1100873;Chrome;112.0;Windows;10;undefined;undefined;1536 x 864;1536 x 864
H015;49;Mannelijk;Rechts;5;19;right;no;650;rightarrow;704;true;focus;yes;1102338;Chrome;112.0;Windows;10;undefined;undefined;1536 x 864;1536 x 864
H015;49;Mannelijk;Rechts;5;20;right;no;650;rightarrow;1223;true;focus;yes;1104324;Chrome;112.0;Windows;10;undefined;undefined;1536 x 864;1536 x 864
H015;49;Mannelijk;Rechts;5;21;left;yes;650;undefined;null;true;focus;yes;1106361;Chrome;112.0;Windows;10;undefined;undefined;1536 x 864;1536 x 864
H015;49;Mannelijk;Rechts;5;22;left;no;700;leftarrow;724;true;focus;yes;1107861;Chrome;112.0;Windows;10;undefined;undefined;1536 x 864;1536 x 864
H015;49;Mannelijk;Rechts;5;23;right;no;700;rightarrow;750;true;focus;yes;1109385;Chrome;112.0;Windows;10;undefined;undefined;1536 x 864;1536 x 864
H015;49;Mannelijk;Rechts;5;24;left;no;700;leftarrow;734;true;focus;yes;1110884;Chrome;112.0;Windows;10;undefined;undefined;1536 x 864;1536 x 864
H015;49;Mannelijk;Rechts;5;25;left;no;700;leftarrow;823;true;focus;yes;1112492;Chrome;112.0;Windows;10;undefined;undefined;1536 x 864;1536 x 864
H015;49;Mannelijk;Rechts;5;26;left;no;700;leftarrow;881;true;focus;yes;1114147;Chrome;112.0;Windows;10;undefined;undefined;1536 x 864;1536 x 864
H015;49;Mannelijk;Rechts;5;27;right;no;700;rightarrow;907;true;focus;yes;1115823;Chrome;112.0;Windows;10;undefined;undefined;1536 x 864;1536 x 864
H015;49;Mannelijk;Rechts;5;28;left;no;700;leftarrow;809;true;focus;yes;1117392;Chrome;112.0;Windows;10;undefined;undefined;1536 x 864;1536 x 864
H015;49;Mannelijk;Rechts;5;29;left;yes;700;leftarrow;817;false;focus;yes;1118984;Chrome;112.0;Windows;10;undefined;undefined;1536 x 864;1536 x 864
H015;49;Mannelijk;Rechts;5;30;right;yes;650;undefined;null;true;focus;yes;1121010;Chrome;112.0;Windows;10;undefined;undefined;1536 x 864;1536 x 864
H015;49;Mannelijk;Rechts;5;31;right;no;700;rightarrow;453;true;focus;yes;1122242;Chrome;112.0;Windows;10;undefined;undefined;1536 x 864;1536 x 864
H015;49;Mannelijk;Rechts;5;32;right;no;700;rightarrow;1097;true;focus;yes;1124116;Chrome;112.0;Windows;10;undefined;undefined;1536 x 864;1536 x 864
H015;49;Mannelijk;Rechts;5;33;left;no;700;leftarrow;883;true;focus;yes;1125759;Chrome;112.0;Windows;10;undefined;undefined;1536 x 864;1536 x 864
H015;49;Mannelijk;Rechts;5;34;right;yes;700;undefined;null;true;focus;yes;1127787;Chrome;112.0;Windows;10;undefined;undefined;1536 x 864;1536 x 864
H015;49;Mannelijk;Rechts;5;35;right;no;750;rightarrow;807;true;focus;yes;1129358;Chrome;112.0;Windows;10;undefined;undefined;1536 x 864;1536 x 864
H015;49;Mannelijk;Rechts;5;36;right;no;750;rightarrow;1098;true;focus;yes;1131214;Chrome;112.0;Windows;10;undefined;undefined;1536 x 864;1536 x 864
H015;49;Mannelijk;Rechts;5;37;left;no;750;leftarrow;888;true;focus;yes;1132862;Chrome;112.0;Windows;10;undefined;undefined;1536 x 864;1536 x 864
H015;49;Mannelijk;Rechts;5;38;left;yes;750;undefined;null;true;focus;yes;1134890;Chrome;112.0;Windows;10;undefined;undefined;1536 x 864;1536 x 864
H015;49;Mannelijk;Rechts;5;39;left;no;800;leftarrow;883;true;focus;yes;1136550;Chrome;112.0;Windows;10;undefined;undefined;1536 x 864;1536 x 864
H015;49;Mannelijk;Rechts;5;40;right;no;800;rightarrow;1007;true;focus;yes;1138323;Chrome;112.0;Windows;10;undefined;undefined;1536 x 864;1536 x 864
H015;49;Mannelijk;Rechts;5;41;right;yes;800;undefined;null;true;focus;yes;1140360;Chrome;112.0;Windows;10;undefined;undefined;1536 x 864;1536 x 864
H015;49;Mannelijk;Rechts;5;42;left;no;850;leftarrow;884;true;focus;yes;1142019;Chrome;112.0;Windows;10;undefined;undefined;1536 x 864;1536 x 864
H015;49;Mannelijk;Rechts;5;43;left;no;850;leftarrow;980;true;focus;yes;1143778;Chrome;112.0;Windows;10;undefined;undefined;1536 x 864;1536 x 864
H015;49;Mannelijk;Rechts;5;44;right;no;850;rightarrow;817;true;focus;yes;1145368;Chrome;112.0;Windows;10;undefined;undefined;1536 x 864;1536 x 864
H015;49;Mannelijk;Rechts;5;45;right;no;850;rightarrow;1125;true;focus;yes;1147271;Chrome;112.0;Windows;10;undefined;undefined;1536 x 864;1536 x 864
H015;49;Mannelijk;Rechts;5;46;left;no;850;undefined;null;false;focus;yes;1149298;Chrome;112.0;Windows;10;undefined;undefined;1536 x 864;1536 x 864
H015;49;Mannelijk;Rechts;5;47;right;no;850;rightarrow;864;true;focus;yes;1150933;Chrome;112.0;Windows;10;undefined;undefined;1536 x 864;1536 x 864
H015;49;Mannelijk;Rechts;5;48;left;yes;850;leftarrow;946;false;focus;yes;1152658;Chrome;112.0;Windows;10;undefined;undefined;1536 x 864;1536 x 864
H015;49;Mannelijk;Rechts;5;49;left;no;800;leftarrow;1081;true;focus;yes;1154510;Chrome;112.0;Windows;10;undefined;undefined;1536 x 864;1536 x 864
H015;49;Mannelijk;Rechts;5;50;left;yes;800;undefined;null;true;focus;yes;1156525;Chrome;112.0;Windows;10;undefined;undefined;1536 x 864;1536 x 864
H015;49;Mannelijk;Rechts;5;51;right;no;850;rightarrow;491;true;focus;yes;1157790;Chrome;112.0;Windows;10;undefined;undefined;1536 x 864;1536 x 864
H015;49;Mannelijk;Rechts;5;52;right;no;850;rightarrow;1194;true;focus;yes;1159757;Chrome;112.0;Windows;10;undefined;undefined;1536 x 864;1536 x 864
H015;49;Mannelijk;Rechts;5;53;right;yes;850;rightarrow;934;false;focus;yes;1161474;Chrome;112.0;Windows;10;undefined;undefined;1536 x 864;1536 x 864
H015;49;Mannelijk;Rechts;5;54;right;no;800;rightarrow;1067;true;focus;yes;1163315;Chrome;112.0;Windows;10;undefined;undefined;1536 x 864;1536 x 864
H015;49;Mannelijk;Rechts;5;55;left;no;800;leftarrow;1034;true;focus;yes;1165125;Chrome;112.0;Windows;10;undefined;undefined;1536 x 864;1536 x 864
H015;49;Mannelijk;Rechts;5;56;left;no;800;leftarrow;927;true;focus;yes;1166819;Chrome;112.0;Windows;10;undefined;undefined;1536 x 864;1536 x 864
H015;49;Mannelijk;Rechts;5;57;left;no;800;leftarrow;1052;true;focus;yes;1168635;Chrome;112.0;Windows;10;undefined;undefined;1536 x 864;1536 x 864
H015;49;Mannelijk;Rechts;5;58;left;no;800;undefined;null;false;focus;yes;1170660;Chrome;112.0;Windows;10;undefined;undefined;1536 x 864;1536 x 864
H015;49;Mannelijk;Rechts;5;59;right;no;800;rightarrow;840;true;focus;yes;1172273;Chrome;112.0;Windows;10;undefined;undefined;1536 x 864;1536 x 864
H015;49;Mannelijk;Rechts;5;60;right;yes;800;rightarrow;989;false;focus;yes;1174038;Chrome;112.0;Windows;10;undefined;undefined;1536 x 864;1536 x 864
H015;49;Mannelijk;Rechts;5;61;left;no;750;leftarrow;743;true;focus;yes;1175569;Chrome;112.0;Windows;10;undefined;undefined;1536 x 864;1536 x 864
H015;49;Mannelijk;Rechts;5;62;right;no;750;rightarrow;821;true;focus;yes;1177168;Chrome;112.0;Windows;10;undefined;undefined;1536 x 864;1536 x 864
H015;49;Mannelijk;Rechts;5;63;left;yes;750;leftarrow;627;false;focus;yes;1178568;Chrome;112.0;Windows;10;undefined;undefined;1536 x 864;1536 x 864
H015;49;Mannelijk;Rechts;5;64;right;no;700;rightarrow;823;true;focus;yes;1180172;Chrome;112.0;Windows;10;undefined;undefined;1536 x 864;1536 x 864
H015;49;Mannelijk;Rechts;5;65;right;no;700;rightarrow;1132;true;focus;yes;1182085;Chrome;112.0;Windows;10;undefined;undefined;1536 x 864;1536 x 864
H015;49;Mannelijk;Rechts;5;66;right;no;700;rightarrow;872;true;focus;yes;1183738;Chrome;112.0;Windows;10;undefined;undefined;1536 x 864;1536 x 864
H015;49;Mannelijk;Rechts;5;67;left;no;700;leftarrow;1245;true;focus;yes;1185759;Chrome;112.0;Windows;10;undefined;undefined;1536 x 864;1536 x 864
H015;49;Mannelijk;Rechts;5;68;left;yes;700;undefined;null;true;focus;yes;1187784;Chrome;112.0;Windows;10;undefined;undefined;1536 x 864;1536 x 864
H015;49;Mannelijk;Rechts;5;69;right;no;750;rightarrow;583;true;focus;yes;1189147;Chrome;112.0;Windows;10;undefined;undefined;1536 x 864;1536 x 864
H015;49;Mannelijk;Rechts;5;70;left;no;750;leftarrow;1018;true;focus;yes;1190930;Chrome;112.0;Windows;10;undefined;undefined;1536 x 864;1536 x 864
H015;49;Mannelijk;Rechts;5;71;right;yes;750;rightarrow;664;false;focus;yes;1192357;Chrome;112.0;Windows;10;undefined;undefined;1536 x 864;1536 x 864
H015;49;Mannelijk;Rechts;5;72;left;no;700;leftarrow;907;true;focus;yes;1194038;Chrome;112.0;Windows;10;undefined;undefined;1536 x 864;1536 x 864
H015;49;Mannelijk;Rechts;5;73;right;yes;700;rightarrow;933;false;focus;yes;1195746;Chrome;112.0;Windows;10;undefined;undefined;1536 x 864;1536 x 864
H015;49;Mannelijk;Rechts;5;74;right;no;650;rightarrow;1076;true;focus;yes;1197588;Chrome;112.0;Windows;10;undefined;undefined;1536 x 864;1536 x 864
H015;49;Mannelijk;Rechts;5;75;left;no;650;leftarrow;994;true;focus;yes;1199361;Chrome;112.0;Windows;10;undefined;undefined;1536 x 864;1536 x 864
H015;49;Mannelijk;Rechts;5;76;right;no;650;rightarrow;864;true;focus;yes;1200992;Chrome;112.0;Windows;10;undefined;undefined;1536 x 864;1536 x 864
H015;49;Mannelijk;Rechts;5;77;right;no;650;rightarrow;1019;true;focus;yes;1202778;Chrome;112.0;Windows;10;undefined;undefined;1536 x 864;1536 x 864
H015;49;Mannelijk;Rechts;5;78;left;no;650;leftarrow;877;true;focus;yes;1204419;Chrome;112.0;Windows;10;undefined;undefined;1536 x 864;1536 x 864
H015;49;Mannelijk;Rechts;5;79;left;yes;650;undefined;null;true;focus;yes;1206456;Chrome;112.0;Windows;10;undefined;undefined;1536 x 864;1536 x 864
H015;49;Mannelijk;Rechts;5;80;left;no;700;leftarrow;624;true;focus;yes;1207850;Chrome;112.0;Windows;10;undefined;undefined;1536 x 864;1536 x 864
H015;49;Mannelijk;Rechts;5;81;left;no;700;leftarrow;726;true;focus;yes;1209350;Chrome;112.0;Windows;10;undefined;undefined;1536 x 864;1536 x 864
H015;49;Mannelijk;Rechts;5;82;left;no;700;leftarrow;977;true;focus;yes;1211101;Chrome;112.0;Windows;10;undefined;undefined;1536 x 864;1536 x 864
H015;49;Mannelijk;Rechts;5;83;right;no;700;rightarrow;588;true;focus;yes;1212464;Chrome;112.0;Windows;10;undefined;undefined;1536 x 864;1536 x 864
H015;49;Mannelijk;Rechts;5;84;right;no;700;rightarrow;990;true;focus;yes;1214214;Chrome;112.0;Windows;10;undefined;undefined;1536 x 864;1536 x 864
H015;49;Mannelijk;Rechts;5;85;left;yes;700;leftarrow;896;false;focus;yes;1215882;Chrome;112.0;Windows;10;undefined;undefined;1536 x 864;1536 x 864
H015;49;Mannelijk;Rechts;5;86;right;no;650;rightarrow;771;true;focus;yes;1217415;Chrome;112.0;Windows;10;undefined;undefined;1536 x 864;1536 x 864
H015;49;Mannelijk;Rechts;5;87;left;no;650;leftarrow;989;true;focus;yes;1219182;Chrome;112.0;Windows;10;undefined;undefined;1536 x 864;1536 x 864
H015;49;Mannelijk;Rechts;5;88;right;yes;650;rightarrow;822;false;focus;yes;1220782;Chrome;112.0;Windows;10;undefined;undefined;1536 x 864;1536 x 864
H015;49;Mannelijk;Rechts;5;89;right;yes;600;undefined;null;true;focus;yes;1222817;Chrome;112.0;Windows;10;undefined;undefined;1536 x 864;1536 x 864
H015;49;Mannelijk;Rechts;5;90;right;no;650;rightarrow;531;true;focus;yes;1224132;Chrome;112.0;Windows;10;undefined;undefined;1536 x 864;1536 x 864
H015;49;Mannelijk;Rechts;5;91;left;yes;650;undefined;null;true;focus;yes;1226161;Chrome;112.0;Windows;10;undefined;undefined;1536 x 864;1536 x 864
H015;49;Mannelijk;Rechts;5;92;right;no;700;rightarrow;631;true;focus;yes;1227556;Chrome;112.0;Windows;10;undefined;undefined;1536 x 864;1536 x 864
H015;49;Mannelijk;Rechts;5;93;right;no;700;rightarrow;935;true;focus;yes;1229262;Chrome;112.0;Windows;10;undefined;undefined;1536 x 864;1536 x 864
H015;49;Mannelijk;Rechts;5;94;left;no;700;leftarrow;1221;true;focus;yes;1231250;Chrome;112.0;Windows;10;undefined;undefined;1536 x 864;1536 x 864
H015;49;Mannelijk;Rechts;5;95;left;no;700;leftarrow;883;true;focus;yes;1232904;Chrome;112.0;Windows;10;undefined;undefined;1536 x 864;1536 x 864
H015;49;Mannelijk;Rechts;5;96;left;no;700;leftarrow;1143;true;focus;yes;1234815;Chrome;112.0;Windows;10;undefined;undefined;1536 x 864;1536 x 864
H015;49;Mannelijk;Rechts;5;97;left;no;700;leftarrow;797;true;focus;yes;1236381;Chrome;112.0;Windows;10;undefined;undefined;1536 x 864;1536 x 864
H015;49;Mannelijk;Rechts;5;98;left;yes;700;undefined;null;true;focus;yes;1238411;Chrome;112.0;Windows;10;undefined;undefined;1536 x 864;1536 x 864
H015;49;Mannelijk;Rechts;5;99;right;no;750;rightarrow;500;true;focus;yes;1239684;Chrome;112.0;Windows;10;undefined;undefined;1536 x 864;1536 x 864
H015;49;Mannelijk;Rechts;5;100;left;no;750;leftarrow;1018;true;focus;yes;1241479;Chrome;112.0;Windows;10;undefined;undefined;1536 x 864;1536 x 864
H015;49;Mannelijk;Rechts;5;101;right;no;750;rightarrow;1126;true;focus;yes;1243380;Chrome;112.0;Windows;10;undefined;undefined;1536 x 864;1536 x 864
H015;49;Mannelijk;Rechts;5;102;right;no;750;rightarrow;982;true;focus;yes;1245142;Chrome;112.0;Windows;10;undefined;undefined;1536 x 864;1536 x 864
H015;49;Mannelijk;Rechts;5;103;left;no;750;leftarrow;755;true;focus;yes;1246662;Chrome;112.0;Windows;10;undefined;undefined;1536 x 864;1536 x 864
H015;49;Mannelijk;Rechts;5;104;right;yes;750;rightarrow;979;false;focus;yes;1248403;Chrome;112.0;Windows;10;undefined;undefined;1536 x 864;1536 x 864
H015;49;Mannelijk;Rechts;5;105;right;yes;700;rightarrow;572;false;focus;yes;1249744;Chrome;112.0;Windows;10;undefined;undefined;1536 x 864;1536 x 864
H015;49;Mannelijk;Rechts;5;106;left;no;650;leftarrow;903;true;focus;yes;1251412;Chrome;112.0;Windows;10;undefined;undefined;1536 x 864;1536 x 864
H015;49;Mannelijk;Rechts;5;107;right;no;650;rightarrow;911;true;focus;yes;1253101;Chrome;112.0;Windows;10;undefined;undefined;1536 x 864;1536 x 864
H015;49;Mannelijk;Rechts;5;108;left;no;650;leftarrow;935;true;focus;yes;1254811;Chrome;112.0;Windows;10;undefined;undefined;1536 x 864;1536 x 864
H015;49;Mannelijk;Rechts;5;109;left;yes;650;undefined;null;true;focus;yes;1256851;Chrome;112.0;Windows;10;undefined;undefined;1536 x 864;1536 x 864
H015;49;Mannelijk;Rechts;5;110;right;no;700;rightarrow;888;true;focus;yes;1258512;Chrome;112.0;Windows;10;undefined;undefined;1536 x 864;1536 x 864
H015;49;Mannelijk;Rechts;5;111;left;no;700;leftarrow;1041;true;focus;yes;1260316;Chrome;112.0;Windows;10;undefined;undefined;1536 x 864;1536 x 864
H015;49;Mannelijk;Rechts;5;112;right;no;700;rightarrow;949;true;focus;yes;1262044;Chrome;112.0;Windows;10;undefined;undefined;1536 x 864;1536 x 864
H015;49;Mannelijk;Rechts;5;113;left;no;700;leftarrow;1029;true;focus;yes;1263841;Chrome;112.0;Windows;10;undefined;undefined;1536 x 864;1536 x 864
H015;49;Mannelijk;Rechts;5;114;left;no;700;leftarrow;974;true;focus;yes;1265582;Chrome;112.0;Windows;10;undefined;undefined;1536 x 864;1536 x 864
H015;49;Mannelijk;Rechts;5;115;right;no;700;rightarrow;993;true;focus;yes;1267354;Chrome;112.0;Windows;10;undefined;undefined;1536 x 864;1536 x 864
H015;49;Mannelijk;Rechts;5;116;left;yes;700;undefined;null;true;focus;yes;1269396;Chrome;112.0;Windows;10;undefined;undefined;1536 x 864;1536 x 864
H015;49;Mannelijk;Rechts;5;117;right;no;750;rightarrow;545;true;focus;yes;1270705;Chrome;112.0;Windows;10;undefined;undefined;1536 x 864;1536 x 864
H015;49;Mannelijk;Rechts;5;118;right;no;750;rightarrow;738;true;focus;yes;1272216;Chrome;112.0;Windows;10;undefined;undefined;1536 x 864;1536 x 864
H015;49;Mannelijk;Rechts;5;119;left;no;750;leftarrow;944;true;focus;yes;1273933;Chrome;112.0;Windows;10;undefined;undefined;1536 x 864;1536 x 864
H015;49;Mannelijk;Rechts;5;120;right;yes;750;rightarrow;823;false;focus;yes;1275534;Chrome;112.0;Windows;10;undefined;undefined;1536 x 864;1536 x 864
H015;49;Mannelijk;Rechts;5;121;left;no;700;leftarrow;932;true;focus;yes;1277243;Chrome;112.0;Windows;10;undefined;undefined;1536 x 864;1536 x 864
H015;49;Mannelijk;Rechts;5;122;right;yes;700;rightarrow;792;false;focus;yes;1278800;Chrome;112.0;Windows;10;undefined;undefined;1536 x 864;1536 x 864
H015;49;Mannelijk;Rechts;5;123;left;no;650;leftarrow;852;true;focus;yes;1280415;Chrome;112.0;Windows;10;undefined;undefined;1536 x 864;1536 x 864
H015;49;Mannelijk;Rechts;5;124;left;yes;650;undefined;null;true;focus;yes;1282457;Chrome;112.0;Windows;10;undefined;undefined;1536 x 864;1536 x 864
H015;49;Mannelijk;Rechts;5;125;right;no;700;rightarrow;474;true;focus;yes;1283701;Chrome;112.0;Windows;10;undefined;undefined;1536 x 864;1536 x 864
H015;49;Mannelijk;Rechts;5;126;right;no;700;rightarrow;748;true;focus;yes;1285226;Chrome;112.0;Windows;10;undefined;undefined;1536 x 864;1536 x 864
H015;49;Mannelijk;Rechts;5;127;right;no;700;rightarrow;1189;true;focus;yes;1287199;Chrome;112.0;Windows;10;undefined;undefined;1536 x 864;1536 x 864
H015;49;Mannelijk;Rechts;5;128;left;no;700;leftarrow;942;true;focus;yes;1288917;Chrome;112.0;Windows;10;undefined;undefined;1536 x 864;1536 x 864
H015;49;Mannelijk;Rechts;6;1;right;no;700;rightarrow;775;true;focus;yes;1308449;Chrome;112.0;Windows;10;undefined;undefined;1536 x 864;1536 x 864
H015;49;Mannelijk;Rechts;6;2;left;no;700;leftarrow;901;true;focus;yes;1310125;Chrome;112.0;Windows;10;undefined;undefined;1536 x 864;1536 x 864
H015;49;Mannelijk;Rechts;6;3;right;no;700;rightarrow;963;true;focus;yes;1311871;Chrome;112.0;Windows;10;undefined;undefined;1536 x 864;1536 x 864
H015;49;Mannelijk;Rechts;6;4;left;no;700;leftarrow;1053;true;focus;yes;1313692;Chrome;112.0;Windows;10;undefined;undefined;1536 x 864;1536 x 864
H015;49;Mannelijk;Rechts;6;5;left;yes;700;undefined;null;true;focus;yes;1315728;Chrome;112.0;Windows;10;undefined;undefined;1536 x 864;1536 x 864
H015;49;Mannelijk;Rechts;6;6;left;no;750;leftarrow;651;true;focus;yes;1317159;Chrome;112.0;Windows;10;undefined;undefined;1536 x 864;1536 x 864
H015;49;Mannelijk;Rechts;6;7;right;yes;750;rightarrow;863;false;focus;yes;1318788;Chrome;112.0;Windows;10;undefined;undefined;1536 x 864;1536 x 864
H015;49;Mannelijk;Rechts;6;8;right;no;700;rightarrow;906;true;focus;yes;1320466;Chrome;112.0;Windows;10;undefined;undefined;1536 x 864;1536 x 864
H015;49;Mannelijk;Rechts;6;9;left;no;700;leftarrow;887;true;focus;yes;1322126;Chrome;112.0;Windows;10;undefined;undefined;1536 x 864;1536 x 864
H015;49;Mannelijk;Rechts;6;10;right;no;700;rightarrow;1080;true;focus;yes;1323982;Chrome;112.0;Windows;10;undefined;undefined;1536 x 864;1536 x 864
H015;49;Mannelijk;Rechts;6;11;right;yes;700;rightarrow;852;false;focus;yes;1325607;Chrome;112.0;Windows;10;undefined;undefined;1536 x 864;1536 x 864
H015;49;Mannelijk;Rechts;6;12;right;no;650;rightarrow;883;true;focus;yes;1327271;Chrome;112.0;Windows;10;undefined;undefined;1536 x 864;1536 x 864
H015;49;Mannelijk;Rechts;6;13;left;no;650;leftarrow;946;true;focus;yes;1328988;Chrome;112.0;Windows;10;undefined;undefined;1536 x 864;1536 x 864
H015;49;Mannelijk;Rechts;6;14;left;no;650;leftarrow;940;true;focus;yes;1330698;Chrome;112.0;Windows;10;undefined;undefined;1536 x 864;1536 x 864
H015;49;Mannelijk;Rechts;6;15;left;yes;650;undefined;null;true;focus;yes;1332727;Chrome;112.0;Windows;10;undefined;undefined;1536 x 864;1536 x 864
H015;49;Mannelijk;Rechts;6;16;right;no;700;rightarrow;612;true;focus;yes;1334111;Chrome;112.0;Windows;10;undefined;undefined;1536 x 864;1536 x 864
H015;49;Mannelijk;Rechts;6;17;left;no;700;leftarrow;1032;true;focus;yes;1335909;Chrome;112.0;Windows;10;undefined;undefined;1536 x 864;1536 x 864
H015;49;Mannelijk;Rechts;6;18;right;no;700;rightarrow;833;true;focus;yes;1337499;Chrome;112.0;Windows;10;undefined;undefined;1536 x 864;1536 x 864
H015;49;Mannelijk;Rechts;6;19;left;yes;700;undefined;null;true;focus;yes;1339527;Chrome;112.0;Windows;10;undefined;undefined;1536 x 864;1536 x 864
H015;49;Mannelijk;Rechts;6;20;right;no;750;rightarrow;693;true;focus;yes;1341000;Chrome;112.0;Windows;10;undefined;undefined;1536 x 864;1536 x 864
H015;49;Mannelijk;Rechts;6;21;left;no;750;leftarrow;817;true;focus;yes;1342591;Chrome;112.0;Windows;10;undefined;undefined;1536 x 864;1536 x 864
H015;49;Mannelijk;Rechts;6;22;left;no;750;leftarrow;929;true;focus;yes;1344303;Chrome;112.0;Windows;10;undefined;undefined;1536 x 864;1536 x 864
H015;49;Mannelijk;Rechts;6;23;right;yes;750;undefined;null;true;focus;yes;1346326;Chrome;112.0;Windows;10;undefined;undefined;1536 x 864;1536 x 864
H015;49;Mannelijk;Rechts;6;24;right;no;800;rightarrow;503;true;focus;yes;1347612;Chrome;112.0;Windows;10;undefined;undefined;1536 x 864;1536 x 864
H015;49;Mannelijk;Rechts;6;25;right;yes;800;rightarrow;874;false;focus;yes;1349262;Chrome;112.0;Windows;10;undefined;undefined;1536 x 864;1536 x 864
H015;49;Mannelijk;Rechts;6;26;left;no;750;leftarrow;974;true;focus;yes;1351022;Chrome;112.0;Windows;10;undefined;undefined;1536 x 864;1536 x 864
H015;49;Mannelijk;Rechts;6;27;right;no;750;rightarrow;873;true;focus;yes;1352680;Chrome;112.0;Windows;10;undefined;undefined;1536 x 864;1536 x 864
H015;49;Mannelijk;Rechts;6;28;right;no;750;rightarrow;675;true;focus;yes;1354128;Chrome;112.0;Windows;10;undefined;undefined;1536 x 864;1536 x 864
H015;49;Mannelijk;Rechts;6;29;left;yes;750;leftarrow;802;false;focus;yes;1355709;Chrome;112.0;Windows;10;undefined;undefined;1536 x 864;1536 x 864
H015;49;Mannelijk;Rechts;6;30;right;no;700;rightarrow;984;true;focus;yes;1357471;Chrome;112.0;Windows;10;undefined;undefined;1536 x 864;1536 x 864
