participantID;age;gender;handedness;block_i;trial_i;stim;signal;SSD;response;rt;correct;focus;Fullscreen;time_elapsed;browser_name;browser_version;os_name;os_version;tablet;mobile;screen_resolution;window_resolution
H023;22;Vrouwelijk;Links;0;1;left;no;200;leftarrow;871;true;focus;yes;121824;Chrome;112.0;Windows;10;undefined;undefined;1536 x 864;1536 x 864
H023;22;Vrouwelijk;Links;0;2;left;no;200;leftarrow;381;true;focus;yes;123733;Chrome;112.0;Windows;10;undefined;undefined;1536 x 864;1536 x 864
H023;22;Vrouwelijk;Links;0;3;left;no;200;leftarrow;321;true;focus;yes;125572;Chrome;112.0;Windows;10;undefined;undefined;1536 x 864;1536 x 864
H023;22;Vrouwelijk;Links;0;4;right;no;200;rightarrow;351;true;focus;yes;127467;Chrome;112.0;Windows;10;undefined;undefined;1536 x 864;1536 x 864
H023;22;Vrouwelijk;Links;0;5;right;no;200;rightarrow;371;true;focus;yes;129370;Chrome;112.0;Windows;10;undefined;undefined;1536 x 864;1536 x 864
H023;22;Vrouwelijk;Links;0;6;right;yes;200;rightarrow;372;false;focus;yes;131270;Chrome;112.0;Windows;10;undefined;undefined;1536 x 864;1536 x 864
H023;22;Vrouwelijk;Links;0;7;left;yes;150;leftarrow;580;false;focus;yes;133377;Chrome;112.0;Windows;10;undefined;undefined;1536 x 864;1536 x 864
H023;22;Vrouwelijk;Links;0;8;right;no;100;rightarrow;534;true;focus;yes;135444;Chrome;112.0;Windows;10;undefined;undefined;1536 x 864;1536 x 864
H023;22;Vrouwelijk;Links;1;1;right;no;100;rightarrow;411;true;focus;yes;156363;Chrome;112.0;Windows;10;undefined;undefined;1536 x 864;1536 x 864
H023;22;Vrouwelijk;Links;1;2;left;no;100;leftarrow;365;true;focus;yes;157500;Chrome;112.0;Windows;10;undefined;undefined;1536 x 864;1536 x 864
H023;22;Vrouwelijk;Links;1;3;left;yes;100;undefined;null;true;focus;yes;159530;Chrome;112.0;Windows;10;undefined;undefined;1536 x 864;1536 x 864
H023;22;Vrouwelijk;Links;1;4;right;no;150;rightarrow;286;true;focus;yes;160585;Chrome;112.0;Windows;10;undefined;undefined;1536 x 864;1536 x 864
H023;22;Vrouwelijk;Links;1;5;left;no;150;leftarrow;342;true;focus;yes;161692;Chrome;112.0;Windows;10;undefined;undefined;1536 x 864;1536 x 864
H023;22;Vrouwelijk;Links;1;6;left;no;150;leftarrow;355;true;focus;yes;162820;Chrome;112.0;Windows;10;undefined;undefined;1536 x 864;1536 x 864
H023;22;Vrouwelijk;Links;1;7;right;yes;150;rightarrow;319;false;focus;yes;163901;Chrome;112.0;Windows;10;undefined;undefined;1536 x 864;1536 x 864
H023;22;Vrouwelijk;Links;1;8;right;no;100;rightarrow;373;true;focus;yes;165038;Chrome;112.0;Windows;10;undefined;undefined;1536 x 864;1536 x 864
H023;22;Vrouwelijk;Links;1;9;left;no;100;leftarrow;334;true;focus;yes;166147;Chrome;112.0;Windows;10;undefined;undefined;1536 x 864;1536 x 864
H023;22;Vrouwelijk;Links;1;10;right;no;100;rightarrow;452;true;focus;yes;167382;Chrome;112.0;Windows;10;undefined;undefined;1536 x 864;1536 x 864
H023;22;Vrouwelijk;Links;1;11;left;no;100;leftarrow;312;true;focus;yes;168458;Chrome;112.0;Windows;10;undefined;undefined;1536 x 864;1536 x 864
H023;22;Vrouwelijk;Links;1;12;right;no;100;rightarrow;333;true;focus;yes;169562;Chrome;112.0;Windows;10;undefined;undefined;1536 x 864;1536 x 864
H023;22;Vrouwelijk;Links;1;13;right;no;100;rightarrow;424;true;focus;yes;170768;Chrome;112.0;Windows;10;undefined;undefined;1536 x 864;1536 x 864
H023;22;Vrouwelijk;Links;1;14;left;yes;100;undefined;null;true;focus;yes;172789;Chrome;112.0;Windows;10;undefined;undefined;1536 x 864;1536 x 864
H023;22;Vrouwelijk;Links;1;15;left;no;150;leftarrow;424;true;focus;yes;173983;Chrome;112.0;Windows;10;undefined;undefined;1536 x 864;1536 x 864
H023;22;Vrouwelijk;Links;1;16;right;yes;150;rightarrow;314;false;focus;yes;175073;Chrome;112.0;Windows;10;undefined;undefined;1536 x 864;1536 x 864
H023;22;Vrouwelijk;Links;1;17;left;no;100;leftarrow;325;true;focus;yes;176166;Chrome;112.0;Windows;10;undefined;undefined;1536 x 864;1536 x 864
H023;22;Vrouwelijk;Links;1;18;right;no;100;rightarrow;328;true;focus;yes;177253;Chrome;112.0;Windows;10;undefined;undefined;1536 x 864;1536 x 864
H023;22;Vrouwelijk;Links;1;19;left;yes;100;leftarrow;461;false;focus;yes;178485;Chrome;112.0;Windows;10;undefined;undefined;1536 x 864;1536 x 864
H023;22;Vrouwelijk;Links;1;20;right;no;50;rightarrow;550;true;focus;yes;179806;Chrome;112.0;Windows;10;undefined;undefined;1536 x 864;1536 x 864
H023;22;Vrouwelijk;Links;1;21;right;no;50;rightarrow;469;true;focus;yes;181058;Chrome;112.0;Windows;10;undefined;undefined;1536 x 864;1536 x 864
H023;22;Vrouwelijk;Links;1;22;left;no;50;leftarrow;605;true;focus;yes;182428;Chrome;112.0;Windows;10;undefined;undefined;1536 x 864;1536 x 864
H023;22;Vrouwelijk;Links;1;23;left;no;50;leftarrow;438;true;focus;yes;183627;Chrome;112.0;Windows;10;undefined;undefined;1536 x 864;1536 x 864
H023;22;Vrouwelijk;Links;1;24;right;yes;50;undefined;null;true;focus;yes;185644;Chrome;112.0;Windows;10;undefined;undefined;1536 x 864;1536 x 864
H023;22;Vrouwelijk;Links;1;25;right;yes;100;undefined;null;true;focus;yes;187669;Chrome;112.0;Windows;10;undefined;undefined;1536 x 864;1536 x 864
H023;22;Vrouwelijk;Links;1;26;left;no;150;leftarrow;405;true;focus;yes;188841;Chrome;112.0;Windows;10;undefined;undefined;1536 x 864;1536 x 864
H023;22;Vrouwelijk;Links;1;27;left;no;150;leftarrow;505;true;focus;yes;190107;Chrome;112.0;Windows;10;undefined;undefined;1536 x 864;1536 x 864
H023;22;Vrouwelijk;Links;1;28;right;no;150;rightarrow;440;true;focus;yes;191323;Chrome;112.0;Windows;10;undefined;undefined;1536 x 864;1536 x 864
H023;22;Vrouwelijk;Links;1;29;left;yes;150;undefined;null;true;focus;yes;193360;Chrome;112.0;Windows;10;undefined;undefined;1536 x 864;1536 x 864
H023;22;Vrouwelijk;Links;1;30;right;no;200;rightarrow;368;true;focus;yes;194484;Chrome;112.0;Windows;10;undefined;undefined;1536 x 864;1536 x 864
H023;22;Vrouwelijk;Links;1;31;right;no;200;rightarrow;374;true;focus;yes;195639;Chrome;112.0;Windows;10;undefined;undefined;1536 x 864;1536 x 864
H023;22;Vrouwelijk;Links;1;32;left;no;200;leftarrow;394;true;focus;yes;196809;Chrome;112.0;Windows;10;undefined;undefined;1536 x 864;1536 x 864
H023;22;Vrouwelijk;Links;1;33;left;no;200;leftarrow;350;true;focus;yes;197931;Chrome;112.0;Windows;10;undefined;undefined;1536 x 864;1536 x 864
H023;22;Vrouwelijk;Links;1;34;right;yes;200;rightarrow;361;false;focus;yes;199058;Chrome;112.0;Windows;10;undefined;undefined;1536 x 864;1536 x 864
H023;22;Vrouwelijk;Links;1;35;left;no;150;leftarrow;357;true;focus;yes;200187;Chrome;112.0;Windows;10;undefined;undefined;1536 x 864;1536 x 864
H023;22;Vrouwelijk;Links;1;36;left;yes;150;undefined;null;true;focus;yes;202211;Chrome;112.0;Windows;10;undefined;undefined;1536 x 864;1536 x 864
H023;22;Vrouwelijk;Links;1;37;right;no;200;rightarrow;439;true;focus;yes;203403;Chrome;112.0;Windows;10;undefined;undefined;1536 x 864;1536 x 864
H023;22;Vrouwelijk;Links;1;38;left;no;200;leftarrow;489;true;focus;yes;204652;Chrome;112.0;Windows;10;undefined;undefined;1536 x 864;1536 x 864
H023;22;Vrouwelijk;Links;1;39;right;no;200;rightarrow;337;true;focus;yes;205764;Chrome;112.0;Windows;10;undefined;undefined;1536 x 864;1536 x 864
H023;22;Vrouwelijk;Links;1;40;right;no;200;rightarrow;419;true;focus;yes;206947;Chrome;112.0;Windows;10;undefined;undefined;1536 x 864;1536 x 864
H023;22;Vrouwelijk;Links;1;41;left;yes;200;undefined;null;true;focus;yes;208978;Chrome;112.0;Windows;10;undefined;undefined;1536 x 864;1536 x 864
H023;22;Vrouwelijk;Links;1;42;right;no;250;rightarrow;403;true;focus;yes;210145;Chrome;112.0;Windows;10;undefined;undefined;1536 x 864;1536 x 864
H023;22;Vrouwelijk;Links;1;43;right;no;250;rightarrow;423;true;focus;yes;211331;Chrome;112.0;Windows;10;undefined;undefined;1536 x 864;1536 x 864
H023;22;Vrouwelijk;Links;1;44;right;yes;250;undefined;null;true;focus;yes;213344;Chrome;112.0;Windows;10;undefined;undefined;1536 x 864;1536 x 864
H023;22;Vrouwelijk;Links;1;45;right;no;300;rightarrow;361;true;focus;yes;214483;Chrome;112.0;Windows;10;undefined;undefined;1536 x 864;1536 x 864
H023;22;Vrouwelijk;Links;1;46;left;no;300;leftarrow;373;true;focus;yes;215629;Chrome;112.0;Windows;10;undefined;undefined;1536 x 864;1536 x 864
H023;22;Vrouwelijk;Links;1;47;left;no;300;leftarrow;384;true;focus;yes;216773;Chrome;112.0;Windows;10;undefined;undefined;1536 x 864;1536 x 864
H023;22;Vrouwelijk;Links;1;48;left;no;300;leftarrow;378;true;focus;yes;217916;Chrome;112.0;Windows;10;undefined;undefined;1536 x 864;1536 x 864
H023;22;Vrouwelijk;Links;1;49;right;yes;300;rightarrow;405;false;focus;yes;219076;Chrome;112.0;Windows;10;undefined;undefined;1536 x 864;1536 x 864
H023;22;Vrouwelijk;Links;1;50;left;yes;250;undefined;null;true;focus;yes;221091;Chrome;112.0;Windows;10;undefined;undefined;1536 x 864;1536 x 864
H023;22;Vrouwelijk;Links;1;51;right;no;300;rightarrow;638;true;focus;yes;222507;Chrome;112.0;Windows;10;undefined;undefined;1536 x 864;1536 x 864
H023;22;Vrouwelijk;Links;1;52;left;no;300;leftarrow;372;true;focus;yes;223641;Chrome;112.0;Windows;10;undefined;undefined;1536 x 864;1536 x 864
H023;22;Vrouwelijk;Links;1;53;right;no;300;rightarrow;326;true;focus;yes;224728;Chrome;112.0;Windows;10;undefined;undefined;1536 x 864;1536 x 864
H023;22;Vrouwelijk;Links;1;54;left;no;300;leftarrow;346;true;focus;yes;225830;Chrome;112.0;Windows;10;undefined;undefined;1536 x 864;1536 x 864
H023;22;Vrouwelijk;Links;1;55;right;no;300;rightarrow;335;true;focus;yes;226919;Chrome;112.0;Windows;10;undefined;undefined;1536 x 864;1536 x 864
H023;22;Vrouwelijk;Links;1;56;left;no;300;leftarrow;347;true;focus;yes;228046;Chrome;112.0;Windows;10;undefined;undefined;1536 x 864;1536 x 864
H023;22;Vrouwelijk;Links;1;57;right;no;300;rightarrow;361;true;focus;yes;229176;Chrome;112.0;Windows;10;undefined;undefined;1536 x 864;1536 x 864
H023;22;Vrouwelijk;Links;1;58;right;yes;300;rightarrow;380;false;focus;yes;230328;Chrome;112.0;Windows;10;undefined;undefined;1536 x 864;1536 x 864
H023;22;Vrouwelijk;Links;1;59;left;no;250;leftarrow;575;true;focus;yes;231673;Chrome;112.0;Windows;10;undefined;undefined;1536 x 864;1536 x 864
H023;22;Vrouwelijk;Links;1;60;right;no;250;rightarrow;504;true;focus;yes;232935;Chrome;112.0;Windows;10;undefined;undefined;1536 x 864;1536 x 864
H023;22;Vrouwelijk;Links;1;61;left;no;250;leftarrow;547;true;focus;yes;234245;Chrome;112.0;Windows;10;undefined;undefined;1536 x 864;1536 x 864
H023;22;Vrouwelijk;Links;1;62;right;no;250;rightarrow;494;true;focus;yes;235507;Chrome;112.0;Windows;10;undefined;undefined;1536 x 864;1536 x 864
H023;22;Vrouwelijk;Links;1;63;left;yes;250;undefined;null;true;focus;yes;237532;Chrome;112.0;Windows;10;undefined;undefined;1536 x 864;1536 x 864
H023;22;Vrouwelijk;Links;1;64;left;no;300;leftarrow;480;true;focus;yes;238792;Chrome;112.0;Windows;10;undefined;undefined;1536 x 864;1536 x 864
H023;22;Vrouwelijk;Links;1;65;left;no;300;leftarrow;424;true;focus;yes;239969;Chrome;112.0;Windows;10;undefined;undefined;1536 x 864;1536 x 864
H023;22;Vrouwelijk;Links;1;66;right;no;300;rightarrow;539;true;focus;yes;241267;Chrome;112.0;Windows;10;undefined;undefined;1536 x 864;1536 x 864
H023;22;Vrouwelijk;Links;1;67;left;yes;300;leftarrow;458;false;focus;yes;242500;Chrome;112.0;Windows;10;undefined;undefined;1536 x 864;1536 x 864
H023;22;Vrouwelijk;Links;1;68;right;no;250;rightarrow;645;true;focus;yes;243904;Chrome;112.0;Windows;10;undefined;undefined;1536 x 864;1536 x 864
H023;22;Vrouwelijk;Links;1;69;left;no;250;leftarrow;567;true;focus;yes;245241;Chrome;112.0;Windows;10;undefined;undefined;1536 x 864;1536 x 864
H023;22;Vrouwelijk;Links;1;70;right;no;250;rightarrow;424;true;focus;yes;246447;Chrome;112.0;Windows;10;undefined;undefined;1536 x 864;1536 x 864
H023;22;Vrouwelijk;Links;1;71;left;no;250;leftarrow;475;true;focus;yes;247683;Chrome;112.0;Windows;10;undefined;undefined;1536 x 864;1536 x 864
H023;22;Vrouwelijk;Links;1;72;right;yes;250;rightarrow;363;false;focus;yes;248803;Chrome;112.0;Windows;10;undefined;undefined;1536 x 864;1536 x 864
H023;22;Vrouwelijk;Links;1;73;left;yes;200;undefined;null;true;focus;yes;250823;Chrome;112.0;Windows;10;undefined;undefined;1536 x 864;1536 x 864
H023;22;Vrouwelijk;Links;1;74;left;no;250;leftarrow;479;true;focus;yes;252083;Chrome;112.0;Windows;10;undefined;undefined;1536 x 864;1536 x 864
H023;22;Vrouwelijk;Links;1;75;right;no;250;rightarrow;530;true;focus;yes;253385;Chrome;112.0;Windows;10;undefined;undefined;1536 x 864;1536 x 864
H023;22;Vrouwelijk;Links;1;76;right;no;250;rightarrow;462;true;focus;yes;254616;Chrome;112.0;Windows;10;undefined;undefined;1536 x 864;1536 x 864
H023;22;Vrouwelijk;Links;1;77;right;yes;250;undefined;null;true;focus;yes;256639;Chrome;112.0;Windows;10;undefined;undefined;1536 x 864;1536 x 864
H023;22;Vrouwelijk;Links;1;78;right;no;300;rightarrow;570;true;focus;yes;257986;Chrome;112.0;Windows;10;undefined;undefined;1536 x 864;1536 x 864
H023;22;Vrouwelijk;Links;1;79;left;no;300;leftarrow;338;true;focus;yes;259105;Chrome;112.0;Windows;10;undefined;undefined;1536 x 864;1536 x 864
H023;22;Vrouwelijk;Links;1;80;left;no;300;leftarrow;513;true;focus;yes;260381;Chrome;112.0;Windows;10;undefined;undefined;1536 x 864;1536 x 864
H023;22;Vrouwelijk;Links;1;81;left;no;300;leftarrow;398;true;focus;yes;261547;Chrome;112.0;Windows;10;undefined;undefined;1536 x 864;1536 x 864
H023;22;Vrouwelijk;Links;1;82;left;no;300;leftarrow;468;true;focus;yes;262784;Chrome;112.0;Windows;10;undefined;undefined;1536 x 864;1536 x 864
H023;22;Vrouwelijk;Links;1;83;left;yes;300;undefined;null;true;focus;yes;264806;Chrome;112.0;Windows;10;undefined;undefined;1536 x 864;1536 x 864
H023;22;Vrouwelijk;Links;1;84;right;no;350;rightarrow;482;true;focus;yes;266047;Chrome;112.0;Windows;10;undefined;undefined;1536 x 864;1536 x 864
H023;22;Vrouwelijk;Links;1;85;right;no;350;rightarrow;392;true;focus;yes;267207;Chrome;112.0;Windows;10;undefined;undefined;1536 x 864;1536 x 864
H023;22;Vrouwelijk;Links;1;86;right;yes;350;rightarrow;342;false;focus;yes;268321;Chrome;112.0;Windows;10;undefined;undefined;1536 x 864;1536 x 864
H023;22;Vrouwelijk;Links;1;87;left;no;300;leftarrow;606;true;focus;yes;269686;Chrome;112.0;Windows;10;undefined;undefined;1536 x 864;1536 x 864
H023;22;Vrouwelijk;Links;1;88;right;no;300;rightarrow;449;true;focus;yes;270911;Chrome;112.0;Windows;10;undefined;undefined;1536 x 864;1536 x 864
H023;22;Vrouwelijk;Links;1;89;right;no;300;rightarrow;387;true;focus;yes;272082;Chrome;112.0;Windows;10;undefined;undefined;1536 x 864;1536 x 864
H023;22;Vrouwelijk;Links;1;90;left;no;300;leftarrow;575;true;focus;yes;273435;Chrome;112.0;Windows;10;undefined;undefined;1536 x 864;1536 x 864
H023;22;Vrouwelijk;Links;1;91;right;no;300;rightarrow;341;true;focus;yes;274535;Chrome;112.0;Windows;10;undefined;undefined;1536 x 864;1536 x 864
H023;22;Vrouwelijk;Links;1;92;left;no;300;leftarrow;367;true;focus;yes;275660;Chrome;112.0;Windows;10;undefined;undefined;1536 x 864;1536 x 864
H023;22;Vrouwelijk;Links;1;93;right;no;300;rightarrow;373;true;focus;yes;276799;Chrome;112.0;Windows;10;undefined;undefined;1536 x 864;1536 x 864
H023;22;Vrouwelijk;Links;1;94;right;yes;300;rightarrow;421;false;focus;yes;277996;Chrome;112.0;Windows;10;undefined;undefined;1536 x 864;1536 x 864
H023;22;Vrouwelijk;Links;1;95;left;no;250;leftarrow;293;true;focus;yes;279067;Chrome;112.0;Windows;10;undefined;undefined;1536 x 864;1536 x 864
H023;22;Vrouwelijk;Links;1;96;left;yes;250;leftarrow;415;false;focus;yes;280255;Chrome;112.0;Windows;10;undefined;undefined;1536 x 864;1536 x 864
H023;22;Vrouwelijk;Links;1;97;right;no;200;rightarrow;661;true;focus;yes;281685;Chrome;112.0;Windows;10;undefined;undefined;1536 x 864;1536 x 864
H023;22;Vrouwelijk;Links;1;98;right;yes;200;undefined;null;true;focus;yes;283707;Chrome;112.0;Windows;10;undefined;undefined;1536 x 864;1536 x 864
H023;22;Vrouwelijk;Links;1;99;left;no;250;leftarrow;358;true;focus;yes;284846;Chrome;112.0;Windows;10;undefined;undefined;1536 x 864;1536 x 864
H023;22;Vrouwelijk;Links;1;100;left;no;250;leftarrow;423;true;focus;yes;286029;Chrome;112.0;Windows;10;undefined;undefined;1536 x 864;1536 x 864
H023;22;Vrouwelijk;Links;1;101;right;no;250;rightarrow;582;true;focus;yes;287371;Chrome;112.0;Windows;10;undefined;undefined;1536 x 864;1536 x 864
H023;22;Vrouwelijk;Links;1;102;left;no;250;leftarrow;421;true;focus;yes;288559;Chrome;112.0;Windows;10;undefined;undefined;1536 x 864;1536 x 864
H023;22;Vrouwelijk;Links;1;103;right;no;250;rightarrow;427;true;focus;yes;289747;Chrome;112.0;Windows;10;undefined;undefined;1536 x 864;1536 x 864
H023;22;Vrouwelijk;Links;1;104;left;yes;250;undefined;null;true;focus;yes;291773;Chrome;112.0;Windows;10;undefined;undefined;1536 x 864;1536 x 864
H023;22;Vrouwelijk;Links;1;105;left;no;300;leftarrow;490;true;focus;yes;293041;Chrome;112.0;Windows;10;undefined;undefined;1536 x 864;1536 x 864
H023;22;Vrouwelijk;Links;1;106;left;no;300;leftarrow;424;true;focus;yes;294225;Chrome;112.0;Windows;10;undefined;undefined;1536 x 864;1536 x 864
H023;22;Vrouwelijk;Links;1;107;right;no;300;rightarrow;542;true;focus;yes;295541;Chrome;112.0;Windows;10;undefined;undefined;1536 x 864;1536 x 864
H023;22;Vrouwelijk;Links;1;108;right;no;300;rightarrow;485;true;focus;yes;296784;Chrome;112.0;Windows;10;undefined;undefined;1536 x 864;1536 x 864
H023;22;Vrouwelijk;Links;1;109;right;yes;300;rightarrow;474;false;focus;yes;298023;Chrome;112.0;Windows;10;undefined;undefined;1536 x 864;1536 x 864
H023;22;Vrouwelijk;Links;1;110;right;no;250;rightarrow;490;true;focus;yes;299287;Chrome;112.0;Windows;10;undefined;undefined;1536 x 864;1536 x 864
H023;22;Vrouwelijk;Links;1;111;left;no;250;leftarrow;449;true;focus;yes;300497;Chrome;112.0;Windows;10;undefined;undefined;1536 x 864;1536 x 864
H023;22;Vrouwelijk;Links;1;112;left;yes;250;undefined;null;true;focus;yes;302532;Chrome;112.0;Windows;10;undefined;undefined;1536 x 864;1536 x 864
H023;22;Vrouwelijk;Links;1;113;right;no;300;rightarrow;391;true;focus;yes;303701;Chrome;112.0;Windows;10;undefined;undefined;1536 x 864;1536 x 864
H023;22;Vrouwelijk;Links;1;114;left;no;300;leftarrow;364;true;focus;yes;304825;Chrome;112.0;Windows;10;undefined;undefined;1536 x 864;1536 x 864
H023;22;Vrouwelijk;Links;1;115;left;yes;300;leftarrow;387;false;focus;yes;305981;Chrome;112.0;Windows;10;undefined;undefined;1536 x 864;1536 x 864
H023;22;Vrouwelijk;Links;1;116;right;yes;250;rightarrow;378;false;focus;yes;307122;Chrome;112.0;Windows;10;undefined;undefined;1536 x 864;1536 x 864
H023;22;Vrouwelijk;Links;1;117;left;no;200;leftarrow;519;true;focus;yes;308411;Chrome;112.0;Windows;10;undefined;undefined;1536 x 864;1536 x 864
H023;22;Vrouwelijk;Links;1;118;right;no;200;rightarrow;508;true;focus;yes;309699;Chrome;112.0;Windows;10;undefined;undefined;1536 x 864;1536 x 864
H023;22;Vrouwelijk;Links;1;119;left;no;200;leftarrow;354;true;focus;yes;310828;Chrome;112.0;Windows;10;undefined;undefined;1536 x 864;1536 x 864
H023;22;Vrouwelijk;Links;1;120;right;no;200;rightarrow;387;true;focus;yes;311994;Chrome;112.0;Windows;10;undefined;undefined;1536 x 864;1536 x 864
H023;22;Vrouwelijk;Links;1;121;left;no;200;leftarrow;361;true;focus;yes;313134;Chrome;112.0;Windows;10;undefined;undefined;1536 x 864;1536 x 864
H023;22;Vrouwelijk;Links;1;122;right;no;200;rightarrow;360;true;focus;yes;314266;Chrome;112.0;Windows;10;undefined;undefined;1536 x 864;1536 x 864
H023;22;Vrouwelijk;Links;1;123;left;no;200;leftarrow;354;true;focus;yes;315392;Chrome;112.0;Windows;10;undefined;undefined;1536 x 864;1536 x 864
H023;22;Vrouwelijk;Links;1;124;left;no;200;leftarrow;419;true;focus;yes;316575;Chrome;112.0;Windows;10;undefined;undefined;1536 x 864;1536 x 864
H023;22;Vrouwelijk;Links;1;125;right;yes;200;rightarrow;397;false;focus;yes;317735;Chrome;112.0;Windows;10;undefined;undefined;1536 x 864;1536 x 864
H023;22;Vrouwelijk;Links;1;126;left;yes;150;undefined;null;true;focus;yes;319768;Chrome;112.0;Windows;10;undefined;undefined;1536 x 864;1536 x 864
H023;22;Vrouwelijk;Links;1;127;right;no;200;rightarrow;606;true;focus;yes;321143;Chrome;112.0;Windows;10;undefined;undefined;1536 x 864;1536 x 864
H023;22;Vrouwelijk;Links;1;128;right;no;200;rightarrow;459;true;focus;yes;322362;Chrome;112.0;Windows;10;undefined;undefined;1536 x 864;1536 x 864
H023;22;Vrouwelijk;Links;2;1;right;no;200;rightarrow;487;true;focus;yes;354540;Chrome;112.0;Windows;10;undefined;undefined;1536 x 864;1536 x 864
H023;22;Vrouwelijk;Links;2;2;right;yes;200;rightarrow;337;false;focus;yes;355656;Chrome;112.0;Windows;10;undefined;undefined;1536 x 864;1536 x 864
H023;22;Vrouwelijk;Links;2;3;right;no;150;rightarrow;455;true;focus;yes;356874;Chrome;112.0;Windows;10;undefined;undefined;1536 x 864;1536 x 864
H023;22;Vrouwelijk;Links;2;4;left;yes;150;undefined;null;true;focus;yes;358898;Chrome;112.0;Windows;10;undefined;undefined;1536 x 864;1536 x 864
H023;22;Vrouwelijk;Links;2;5;left;no;200;leftarrow;398;true;focus;yes;360064;Chrome;112.0;Windows;10;undefined;undefined;1536 x 864;1536 x 864
H023;22;Vrouwelijk;Links;2;6;right;no;200;rightarrow;423;true;focus;yes;361255;Chrome;112.0;Windows;10;undefined;undefined;1536 x 864;1536 x 864
H023;22;Vrouwelijk;Links;2;7;left;no;200;leftarrow;452;true;focus;yes;362468;Chrome;112.0;Windows;10;undefined;undefined;1536 x 864;1536 x 864
H023;22;Vrouwelijk;Links;2;8;left;no;200;leftarrow;546;true;focus;yes;363778;Chrome;112.0;Windows;10;undefined;undefined;1536 x 864;1536 x 864
H023;22;Vrouwelijk;Links;2;9;left;no;200;leftarrow;382;true;focus;yes;364929;Chrome;112.0;Windows;10;undefined;undefined;1536 x 864;1536 x 864
H023;22;Vrouwelijk;Links;2;10;right;no;200;rightarrow;445;true;focus;yes;366142;Chrome;112.0;Windows;10;undefined;undefined;1536 x 864;1536 x 864
H023;22;Vrouwelijk;Links;2;11;left;no;200;leftarrow;352;true;focus;yes;367265;Chrome;112.0;Windows;10;undefined;undefined;1536 x 864;1536 x 864
H023;22;Vrouwelijk;Links;2;12;right;yes;200;undefined;null;true;focus;yes;369300;Chrome;112.0;Windows;10;undefined;undefined;1536 x 864;1536 x 864
H023;22;Vrouwelijk;Links;2;13;left;yes;250;leftarrow;365;false;focus;yes;370443;Chrome;112.0;Windows;10;undefined;undefined;1536 x 864;1536 x 864
H023;22;Vrouwelijk;Links;2;14;left;no;200;leftarrow;404;true;focus;yes;371615;Chrome;112.0;Windows;10;undefined;undefined;1536 x 864;1536 x 864
H023;22;Vrouwelijk;Links;2;15;right;no;200;rightarrow;489;true;focus;yes;372867;Chrome;112.0;Windows;10;undefined;undefined;1536 x 864;1536 x 864
H023;22;Vrouwelijk;Links;2;16;right;no;200;rightarrow;457;true;focus;yes;374083;Chrome;112.0;Windows;10;undefined;undefined;1536 x 864;1536 x 864
H023;22;Vrouwelijk;Links;2;17;right;no;200;rightarrow;369;true;focus;yes;375212;Chrome;112.0;Windows;10;undefined;undefined;1536 x 864;1536 x 864
H023;22;Vrouwelijk;Links;2;18;right;no;200;rightarrow;385;true;focus;yes;376377;Chrome;112.0;Windows;10;undefined;undefined;1536 x 864;1536 x 864
H023;22;Vrouwelijk;Links;2;19;left;no;200;leftarrow;519;true;focus;yes;377661;Chrome;112.0;Windows;10;undefined;undefined;1536 x 864;1536 x 864
H023;22;Vrouwelijk;Links;2;20;right;no;200;rightarrow;379;true;focus;yes;378804;Chrome;112.0;Windows;10;undefined;undefined;1536 x 864;1536 x 864
H023;22;Vrouwelijk;Links;2;21;left;yes;200;leftarrow;309;false;focus;yes;379882;Chrome;112.0;Windows;10;undefined;undefined;1536 x 864;1536 x 864
H023;22;Vrouwelijk;Links;2;22;left;no;150;leftarrow;402;true;focus;yes;381043;Chrome;112.0;Windows;10;undefined;undefined;1536 x 864;1536 x 864
H023;22;Vrouwelijk;Links;2;23;right;yes;150;undefined;null;true;focus;yes;383065;Chrome;112.0;Windows;10;undefined;undefined;1536 x 864;1536 x 864
H023;22;Vrouwelijk;Links;2;24;left;no;200;leftarrow;349;true;focus;yes;384187;Chrome;112.0;Windows;10;undefined;undefined;1536 x 864;1536 x 864
H023;22;Vrouwelijk;Links;2;25;right;no;200;rightarrow;416;true;focus;yes;385386;Chrome;112.0;Windows;10;undefined;undefined;1536 x 864;1536 x 864
H023;22;Vrouwelijk;Links;2;26;left;no;200;leftarrow;408;true;focus;yes;386563;Chrome;112.0;Windows;10;undefined;undefined;1536 x 864;1536 x 864
H023;22;Vrouwelijk;Links;2;27;right;yes;200;undefined;null;true;focus;yes;388588;Chrome;112.0;Windows;10;undefined;undefined;1536 x 864;1536 x 864
H023;22;Vrouwelijk;Links;2;28;right;no;250;rightarrow;498;true;focus;yes;389866;Chrome;112.0;Windows;10;undefined;undefined;1536 x 864;1536 x 864
H023;22;Vrouwelijk;Links;2;29;left;yes;250;undefined;null;true;focus;yes;391873;Chrome;112.0;Windows;10;undefined;undefined;1536 x 864;1536 x 864
H023;22;Vrouwelijk;Links;2;30;left;no;300;leftarrow;429;true;focus;yes;393080;Chrome;112.0;Windows;10;undefined;undefined;1536 x 864;1536 x 864
H023;22;Vrouwelijk;Links;2;31;right;no;300;rightarrow;385;true;focus;yes;394234;Chrome;112.0;Windows;10;undefined;undefined;1536 x 864;1536 x 864
H023;22;Vrouwelijk;Links;2;32;left;no;300;leftarrow;477;true;focus;yes;395477;Chrome;112.0;Windows;10;undefined;undefined;1536 x 864;1536 x 864
H023;22;Vrouwelijk;Links;2;33;right;yes;300;rightarrow;371;false;focus;yes;396620;Chrome;112.0;Windows;10;undefined;undefined;1536 x 864;1536 x 864
H023;22;Vrouwelijk;Links;2;34;right;no;250;rightarrow;383;true;focus;yes;397765;Chrome;112.0;Windows;10;undefined;undefined;1536 x 864;1536 x 864
H023;22;Vrouwelijk;Links;2;35;left;no;250;leftarrow;402;true;focus;yes;398949;Chrome;112.0;Windows;10;undefined;undefined;1536 x 864;1536 x 864
H023;22;Vrouwelijk;Links;2;36;right;no;250;rightarrow;626;true;focus;yes;400340;Chrome;112.0;Windows;10;undefined;undefined;1536 x 864;1536 x 864
H023;22;Vrouwelijk;Links;2;37;left;no;250;leftarrow;485;true;focus;yes;401598;Chrome;112.0;Windows;10;undefined;undefined;1536 x 864;1536 x 864
H023;22;Vrouwelijk;Links;2;38;left;no;250;leftarrow;467;true;focus;yes;402831;Chrome;112.0;Windows;10;undefined;undefined;1536 x 864;1536 x 864
H023;22;Vrouwelijk;Links;2;39;left;yes;250;leftarrow;408;false;focus;yes;404019;Chrome;112.0;Windows;10;undefined;undefined;1536 x 864;1536 x 864
H023;22;Vrouwelijk;Links;2;40;right;no;200;rightarrow;412;true;focus;yes;405191;Chrome;112.0;Windows;10;undefined;undefined;1536 x 864;1536 x 864
H023;22;Vrouwelijk;Links;2;41;right;no;200;rightarrow;551;true;focus;yes;406510;Chrome;112.0;Windows;10;undefined;undefined;1536 x 864;1536 x 864
H023;22;Vrouwelijk;Links;2;42;left;no;200;leftarrow;373;true;focus;yes;407666;Chrome;112.0;Windows;10;undefined;undefined;1536 x 864;1536 x 864
H023;22;Vrouwelijk;Links;2;43;right;no;200;rightarrow;494;true;focus;yes;408922;Chrome;112.0;Windows;10;undefined;undefined;1536 x 864;1536 x 864
H023;22;Vrouwelijk;Links;2;44;right;no;200;rightarrow;420;true;focus;yes;410112;Chrome;112.0;Windows;10;undefined;undefined;1536 x 864;1536 x 864
H023;22;Vrouwelijk;Links;2;45;left;no;200;leftarrow;509;true;focus;yes;411399;Chrome;112.0;Windows;10;undefined;undefined;1536 x 864;1536 x 864
H023;22;Vrouwelijk;Links;2;46;left;no;200;leftarrow;626;true;focus;yes;412800;Chrome;112.0;Windows;10;undefined;undefined;1536 x 864;1536 x 864
H023;22;Vrouwelijk;Links;2;47;left;yes;200;undefined;null;true;focus;yes;414823;Chrome;112.0;Windows;10;undefined;undefined;1536 x 864;1536 x 864
H023;22;Vrouwelijk;Links;2;48;right;yes;250;undefined;null;true;focus;yes;416861;Chrome;112.0;Windows;10;undefined;undefined;1536 x 864;1536 x 864
H023;22;Vrouwelijk;Links;2;49;right;no;300;rightarrow;416;true;focus;yes;418054;Chrome;112.0;Windows;10;undefined;undefined;1536 x 864;1536 x 864
H023;22;Vrouwelijk;Links;2;50;left;no;300;leftarrow;366;true;focus;yes;419188;Chrome;112.0;Windows;10;undefined;undefined;1536 x 864;1536 x 864
H023;22;Vrouwelijk;Links;2;51;right;yes;300;rightarrow;493;false;focus;yes;420447;Chrome;112.0;Windows;10;undefined;undefined;1536 x 864;1536 x 864
H023;22;Vrouwelijk;Links;2;52;right;no;250;rightarrow;501;true;focus;yes;421721;Chrome;112.0;Windows;10;undefined;undefined;1536 x 864;1536 x 864
H023;22;Vrouwelijk;Links;2;53;left;yes;250;undefined;null;true;focus;yes;423740;Chrome;112.0;Windows;10;undefined;undefined;1536 x 864;1536 x 864
H023;22;Vrouwelijk;Links;2;54;right;no;300;rightarrow;503;true;focus;yes;425021;Chrome;112.0;Windows;10;undefined;undefined;1536 x 864;1536 x 864
H023;22;Vrouwelijk;Links;2;55;left;no;300;leftarrow;595;true;focus;yes;426395;Chrome;112.0;Windows;10;undefined;undefined;1536 x 864;1536 x 864
H023;22;Vrouwelijk;Links;2;56;left;no;300;leftarrow;423;true;focus;yes;427574;Chrome;112.0;Windows;10;undefined;undefined;1536 x 864;1536 x 864
H023;22;Vrouwelijk;Links;2;57;left;no;300;leftarrow;390;true;focus;yes;428723;Chrome;112.0;Windows;10;undefined;undefined;1536 x 864;1536 x 864
H023;22;Vrouwelijk;Links;2;58;right;no;300;rightarrow;411;true;focus;yes;429895;Chrome;112.0;Windows;10;undefined;undefined;1536 x 864;1536 x 864
H023;22;Vrouwelijk;Links;2;59;right;no;300;rightarrow;441;true;focus;yes;431090;Chrome;112.0;Windows;10;undefined;undefined;1536 x 864;1536 x 864
H023;22;Vrouwelijk;Links;2;60;left;no;300;leftarrow;379;true;focus;yes;432227;Chrome;112.0;Windows;10;undefined;undefined;1536 x 864;1536 x 864
H023;22;Vrouwelijk;Links;2;61;right;yes;300;rightarrow;397;false;focus;yes;433394;Chrome;112.0;Windows;10;undefined;undefined;1536 x 864;1536 x 864
H023;22;Vrouwelijk;Links;2;62;left;no;250;leftarrow;322;true;focus;yes;434485;Chrome;112.0;Windows;10;undefined;undefined;1536 x 864;1536 x 864
H023;22;Vrouwelijk;Links;2;63;right;no;250;rightarrow;469;true;focus;yes;435716;Chrome;112.0;Windows;10;undefined;undefined;1536 x 864;1536 x 864
H023;22;Vrouwelijk;Links;2;64;left;yes;250;leftarrow;390;false;focus;yes;436871;Chrome;112.0;Windows;10;undefined;undefined;1536 x 864;1536 x 864
H023;22;Vrouwelijk;Links;2;65;left;yes;200;undefined;null;true;focus;yes;438894;Chrome;112.0;Windows;10;undefined;undefined;1536 x 864;1536 x 864
H023;22;Vrouwelijk;Links;2;66;left;no;250;leftarrow;488;true;focus;yes;440150;Chrome;112.0;Windows;10;undefined;undefined;1536 x 864;1536 x 864
H023;22;Vrouwelijk;Links;2;67;right;no;250;rightarrow;449;true;focus;yes;441360;Chrome;112.0;Windows;10;undefined;undefined;1536 x 864;1536 x 864
H023;22;Vrouwelijk;Links;2;68;left;no;250;leftarrow;388;true;focus;yes;442514;Chrome;112.0;Windows;10;undefined;undefined;1536 x 864;1536 x 864
H023;22;Vrouwelijk;Links;2;69;right;no;250;rightarrow;403;true;focus;yes;443679;Chrome;112.0;Windows;10;undefined;undefined;1536 x 864;1536 x 864
H023;22;Vrouwelijk;Links;2;70;right;no;250;rightarrow;480;true;focus;yes;444922;Chrome;112.0;Windows;10;undefined;undefined;1536 x 864;1536 x 864
H023;22;Vrouwelijk;Links;2;71;left;no;250;leftarrow;414;true;focus;yes;446105;Chrome;112.0;Windows;10;undefined;undefined;1536 x 864;1536 x 864
H023;22;Vrouwelijk;Links;2;72;right;yes;250;rightarrow;378;false;focus;yes;447252;Chrome;112.0;Windows;10;undefined;undefined;1536 x 864;1536 x 864
H023;22;Vrouwelijk;Links;2;73;right;no;200;rightarrow;594;true;focus;yes;448617;Chrome;112.0;Windows;10;undefined;undefined;1536 x 864;1536 x 864
H023;22;Vrouwelijk;Links;2;74;left;no;200;leftarrow;463;true;focus;yes;449852;Chrome;112.0;Windows;10;undefined;undefined;1536 x 864;1536 x 864
H023;22;Vrouwelijk;Links;2;75;right;no;200;rightarrow;838;true;focus;yes;451459;Chrome;112.0;Windows;10;undefined;undefined;1536 x 864;1536 x 864
H023;22;Vrouwelijk;Links;2;76;left;no;200;leftarrow;363;true;focus;yes;452585;Chrome;112.0;Windows;10;undefined;undefined;1536 x 864;1536 x 864
H023;22;Vrouwelijk;Links;2;77;left;no;200;leftarrow;656;true;focus;yes;454011;Chrome;112.0;Windows;10;undefined;undefined;1536 x 864;1536 x 864
H023;22;Vrouwelijk;Links;2;78;left;yes;200;undefined;null;true;focus;yes;456021;Chrome;112.0;Windows;10;undefined;undefined;1536 x 864;1536 x 864
H023;22;Vrouwelijk;Links;2;79;right;yes;250;undefined;null;true;focus;yes;458055;Chrome;112.0;Windows;10;undefined;undefined;1536 x 864;1536 x 864
H023;22;Vrouwelijk;Links;2;80;right;no;300;rightarrow;504;true;focus;yes;459322;Chrome;112.0;Windows;10;undefined;undefined;1536 x 864;1536 x 864
H023;22;Vrouwelijk;Links;2;81;left;no;300;leftarrow;478;true;focus;yes;460563;Chrome;112.0;Windows;10;undefined;undefined;1536 x 864;1536 x 864
H023;22;Vrouwelijk;Links;2;82;right;no;300;rightarrow;641;true;focus;yes;461974;Chrome;112.0;Windows;10;undefined;undefined;1536 x 864;1536 x 864
H023;22;Vrouwelijk;Links;2;83;right;no;300;rightarrow;473;true;focus;yes;463206;Chrome;112.0;Windows;10;undefined;undefined;1536 x 864;1536 x 864
H023;22;Vrouwelijk;Links;2;84;left;yes;300;leftarrow;346;false;focus;yes;464312;Chrome;112.0;Windows;10;undefined;undefined;1536 x 864;1536 x 864
H023;22;Vrouwelijk;Links;2;85;left;no;250;leftarrow;502;true;focus;yes;465583;Chrome;112.0;Windows;10;undefined;undefined;1536 x 864;1536 x 864
H023;22;Vrouwelijk;Links;2;86;right;no;250;rightarrow;448;true;focus;yes;466796;Chrome;112.0;Windows;10;undefined;undefined;1536 x 864;1536 x 864
H023;22;Vrouwelijk;Links;2;87;left;no;250;leftarrow;448;true;focus;yes;468028;Chrome;112.0;Windows;10;undefined;undefined;1536 x 864;1536 x 864
H023;22;Vrouwelijk;Links;2;88;right;yes;250;undefined;null;true;focus;yes;470050;Chrome;112.0;Windows;10;undefined;undefined;1536 x 864;1536 x 864
H023;22;Vrouwelijk;Links;2;89;right;yes;300;rightarrow;460;false;focus;yes;471273;Chrome;112.0;Windows;10;undefined;undefined;1536 x 864;1536 x 864
H023;22;Vrouwelijk;Links;2;90;left;no;250;leftarrow;486;true;focus;yes;472530;Chrome;112.0;Windows;10;undefined;undefined;1536 x 864;1536 x 864
H023;22;Vrouwelijk;Links;2;91;right;no;250;rightarrow;449;true;focus;yes;473744;Chrome;112.0;Windows;10;undefined;undefined;1536 x 864;1536 x 864
H023;22;Vrouwelijk;Links;2;92;left;no;250;leftarrow;381;true;focus;yes;474891;Chrome;112.0;Windows;10;undefined;undefined;1536 x 864;1536 x 864
H023;22;Vrouwelijk;Links;2;93;left;no;250;leftarrow;590;true;focus;yes;476250;Chrome;112.0;Windows;10;undefined;undefined;1536 x 864;1536 x 864
H023;22;Vrouwelijk;Links;2;94;right;no;250;rightarrow;412;true;focus;yes;477437;Chrome;112.0;Windows;10;undefined;undefined;1536 x 864;1536 x 864
H023;22;Vrouwelijk;Links;2;95;left;yes;250;leftarrow;327;false;focus;yes;478537;Chrome;112.0;Windows;10;undefined;undefined;1536 x 864;1536 x 864
H023;22;Vrouwelijk;Links;2;96;right;no;200;rightarrow;354;true;focus;yes;479661;Chrome;112.0;Windows;10;undefined;undefined;1536 x 864;1536 x 864
H023;22;Vrouwelijk;Links;2;97;left;yes;200;undefined;null;true;focus;yes;481690;Chrome;112.0;Windows;10;undefined;undefined;1536 x 864;1536 x 864
H023;22;Vrouwelijk;Links;2;98;right;no;250;rightarrow;441;true;focus;yes;482899;Chrome;112.0;Windows;10;undefined;undefined;1536 x 864;1536 x 864
H023;22;Vrouwelijk;Links;2;99;right;no;250;rightarrow;478;true;focus;yes;484134;Chrome;112.0;Windows;10;undefined;undefined;1536 x 864;1536 x 864
H023;22;Vrouwelijk;Links;2;100;right;no;250;rightarrow;441;true;focus;yes;485346;Chrome;112.0;Windows;10;undefined;undefined;1536 x 864;1536 x 864
H023;22;Vrouwelijk;Links;2;101;left;no;250;leftarrow;521;true;focus;yes;486626;Chrome;112.0;Windows;10;undefined;undefined;1536 x 864;1536 x 864
H023;22;Vrouwelijk;Links;2;102;left;no;250;leftarrow;416;true;focus;yes;487804;Chrome;112.0;Windows;10;undefined;undefined;1536 x 864;1536 x 864
H023;22;Vrouwelijk;Links;2;103;right;yes;250;rightarrow;336;false;focus;yes;488922;Chrome;112.0;Windows;10;undefined;undefined;1536 x 864;1536 x 864
H023;22;Vrouwelijk;Links;2;104;left;no;200;leftarrow;476;true;focus;yes;490163;Chrome;112.0;Windows;10;undefined;undefined;1536 x 864;1536 x 864
H023;22;Vrouwelijk;Links;2;105;right;no;200;rightarrow;534;true;focus;yes;491469;Chrome;112.0;Windows;10;undefined;undefined;1536 x 864;1536 x 864
H023;22;Vrouwelijk;Links;2;106;right;no;200;rightarrow;514;true;focus;yes;492749;Chrome;112.0;Windows;10;undefined;undefined;1536 x 864;1536 x 864
H023;22;Vrouwelijk;Links;2;107;left;no;200;leftarrow;458;true;focus;yes;493975;Chrome;112.0;Windows;10;undefined;undefined;1536 x 864;1536 x 864
H023;22;Vrouwelijk;Links;2;108;left;yes;200;undefined;null;true;focus;yes;496001;Chrome;112.0;Windows;10;undefined;undefined;1536 x 864;1536 x 864
H023;22;Vrouwelijk;Links;2;109;right;yes;250;rightarrow;406;false;focus;yes;497174;Chrome;112.0;Windows;10;undefined;undefined;1536 x 864;1536 x 864
H023;22;Vrouwelijk;Links;2;110;left;no;200;leftarrow;376;true;focus;yes;498324;Chrome;112.0;Windows;10;undefined;undefined;1536 x 864;1536 x 864
H023;22;Vrouwelijk;Links;2;111;left;no;200;leftarrow;443;true;focus;yes;499525;Chrome;112.0;Windows;10;undefined;undefined;1536 x 864;1536 x 864
H023;22;Vrouwelijk;Links;2;112;right;no;200;rightarrow;676;true;focus;yes;500957;Chrome;112.0;Windows;10;undefined;undefined;1536 x 864;1536 x 864
H023;22;Vrouwelijk;Links;2;113;right;yes;200;undefined;null;true;focus;yes;502983;Chrome;112.0;Windows;10;undefined;undefined;1536 x 864;1536 x 864
H023;22;Vrouwelijk;Links;2;114;right;no;250;rightarrow;437;true;focus;yes;504198;Chrome;112.0;Windows;10;undefined;undefined;1536 x 864;1536 x 864
H023;22;Vrouwelijk;Links;2;115;left;no;250;leftarrow;543;true;focus;yes;505520;Chrome;112.0;Windows;10;undefined;undefined;1536 x 864;1536 x 864
H023;22;Vrouwelijk;Links;2;116;left;yes;250;undefined;null;true;focus;yes;507549;Chrome;112.0;Windows;10;undefined;undefined;1536 x 864;1536 x 864
H023;22;Vrouwelijk;Links;2;117;right;no;300;rightarrow;628;true;focus;yes;508938;Chrome;112.0;Windows;10;undefined;undefined;1536 x 864;1536 x 864
H023;22;Vrouwelijk;Links;2;118;left;no;300;leftarrow;480;true;focus;yes;510188;Chrome;112.0;Windows;10;undefined;undefined;1536 x 864;1536 x 864
H023;22;Vrouwelijk;Links;2;119;left;no;300;leftarrow;651;true;focus;yes;511609;Chrome;112.0;Windows;10;undefined;undefined;1536 x 864;1536 x 864
H023;22;Vrouwelijk;Links;2;120;right;no;300;rightarrow;738;true;focus;yes;513129;Chrome;112.0;Windows;10;undefined;undefined;1536 x 864;1536 x 864
H023;22;Vrouwelijk;Links;2;121;right;no;300;rightarrow;400;true;focus;yes;514292;Chrome;112.0;Windows;10;undefined;undefined;1536 x 864;1536 x 864
H023;22;Vrouwelijk;Links;2;122;left;no;300;leftarrow;380;true;focus;yes;515453;Chrome;112.0;Windows;10;undefined;undefined;1536 x 864;1536 x 864
H023;22;Vrouwelijk;Links;2;123;right;yes;300;rightarrow;409;false;focus;yes;516631;Chrome;112.0;Windows;10;undefined;undefined;1536 x 864;1536 x 864
H023;22;Vrouwelijk;Links;2;124;left;yes;250;undefined;null;true;focus;yes;518658;Chrome;112.0;Windows;10;undefined;undefined;1536 x 864;1536 x 864
H023;22;Vrouwelijk;Links;2;125;left;no;300;leftarrow;435;true;focus;yes;519872;Chrome;112.0;Windows;10;undefined;undefined;1536 x 864;1536 x 864
H023;22;Vrouwelijk;Links;2;126;right;no;300;rightarrow;505;true;focus;yes;521143;Chrome;112.0;Windows;10;undefined;undefined;1536 x 864;1536 x 864
H023;22;Vrouwelijk;Links;2;127;left;no;300;leftarrow;377;true;focus;yes;522281;Chrome;112.0;Windows;10;undefined;undefined;1536 x 864;1536 x 864
H023;22;Vrouwelijk;Links;2;128;right;no;300;rightarrow;425;true;focus;yes;523477;Chrome;112.0;Windows;10;undefined;undefined;1536 x 864;1536 x 864
H023;22;Vrouwelijk;Links;3;1;right;no;300;rightarrow;343;true;focus;yes;542386;Chrome;112.0;Windows;10;undefined;undefined;1536 x 864;1536 x 864
H023;22;Vrouwelijk;Links;3;2;left;yes;300;leftarrow;326;false;focus;yes;543485;Chrome;112.0;Windows;10;undefined;undefined;1536 x 864;1536 x 864
H023;22;Vrouwelijk;Links;3;3;left;no;250;leftarrow;428;true;focus;yes;544687;Chrome;112.0;Windows;10;undefined;undefined;1536 x 864;1536 x 864
H023;22;Vrouwelijk;Links;3;4;right;no;250;rightarrow;323;true;focus;yes;545781;Chrome;112.0;Windows;10;undefined;undefined;1536 x 864;1536 x 864
H023;22;Vrouwelijk;Links;3;5;left;no;250;leftarrow;290;true;focus;yes;546831;Chrome;112.0;Windows;10;undefined;undefined;1536 x 864;1536 x 864
H023;22;Vrouwelijk;Links;3;6;right;yes;250;rightarrow;251;false;focus;yes;547843;Chrome;112.0;Windows;10;undefined;undefined;1536 x 864;1536 x 864
H023;22;Vrouwelijk;Links;3;7;left;no;200;leftarrow;237;true;focus;yes;548860;Chrome;112.0;Windows;10;undefined;undefined;1536 x 864;1536 x 864
H023;22;Vrouwelijk;Links;3;8;right;no;200;rightarrow;215;true;focus;yes;549839;Chrome;112.0;Windows;10;undefined;undefined;1536 x 864;1536 x 864
H023;22;Vrouwelijk;Links;3;9;right;yes;200;rightarrow;379;false;focus;yes;551002;Chrome;112.0;Windows;10;undefined;undefined;1536 x 864;1536 x 864
H023;22;Vrouwelijk;Links;3;10;left;yes;150;leftarrow;217;false;focus;yes;551988;Chrome;112.0;Windows;10;undefined;undefined;1536 x 864;1536 x 864
H023;22;Vrouwelijk;Links;3;11;left;no;100;leftarrow;415;true;focus;yes;553186;Chrome;112.0;Windows;10;undefined;undefined;1536 x 864;1536 x 864
H023;22;Vrouwelijk;Links;3;12;right;no;100;rightarrow;310;true;focus;yes;554265;Chrome;112.0;Windows;10;undefined;undefined;1536 x 864;1536 x 864
H023;22;Vrouwelijk;Links;3;13;left;no;100;leftarrow;295;true;focus;yes;555332;Chrome;112.0;Windows;10;undefined;undefined;1536 x 864;1536 x 864
H023;22;Vrouwelijk;Links;3;14;left;no;100;leftarrow;382;true;focus;yes;556484;Chrome;112.0;Windows;10;undefined;undefined;1536 x 864;1536 x 864
H023;22;Vrouwelijk;Links;3;15;right;no;100;rightarrow;296;true;focus;yes;557549;Chrome;112.0;Windows;10;undefined;undefined;1536 x 864;1536 x 864
H023;22;Vrouwelijk;Links;3;16;right;no;100;rightarrow;457;true;focus;yes;558775;Chrome;112.0;Windows;10;undefined;undefined;1536 x 864;1536 x 864
H023;22;Vrouwelijk;Links;3;17;left;no;100;leftarrow;289;true;focus;yes;559825;Chrome;112.0;Windows;10;undefined;undefined;1536 x 864;1536 x 864
H023;22;Vrouwelijk;Links;3;18;left;yes;100;undefined;null;true;focus;yes;561845;Chrome;112.0;Windows;10;undefined;undefined;1536 x 864;1536 x 864
H023;22;Vrouwelijk;Links;3;19;left;no;150;leftarrow;355;true;focus;yes;562973;Chrome;112.0;Windows;10;undefined;undefined;1536 x 864;1536 x 864
H023;22;Vrouwelijk;Links;3;20;right;no;150;rightarrow;403;true;focus;yes;564137;Chrome;112.0;Windows;10;undefined;undefined;1536 x 864;1536 x 864
H023;22;Vrouwelijk;Links;3;21;right;no;150;rightarrow;399;true;focus;yes;565299;Chrome;112.0;Windows;10;undefined;undefined;1536 x 864;1536 x 864
H023;22;Vrouwelijk;Links;3;22;left;no;150;leftarrow;326;true;focus;yes;566392;Chrome;112.0;Windows;10;undefined;undefined;1536 x 864;1536 x 864
H023;22;Vrouwelijk;Links;3;23;right;yes;150;undefined;null;true;focus;yes;568412;Chrome;112.0;Windows;10;undefined;undefined;1536 x 864;1536 x 864
H023;22;Vrouwelijk;Links;3;24;right;no;200;rightarrow;404;true;focus;yes;569601;Chrome;112.0;Windows;10;undefined;undefined;1536 x 864;1536 x 864
H023;22;Vrouwelijk;Links;3;25;right;no;200;rightarrow;334;true;focus;yes;570698;Chrome;112.0;Windows;10;undefined;undefined;1536 x 864;1536 x 864
H023;22;Vrouwelijk;Links;3;26;right;yes;200;rightarrow;301;false;focus;yes;571779;Chrome;112.0;Windows;10;undefined;undefined;1536 x 864;1536 x 864
H023;22;Vrouwelijk;Links;3;27;right;no;150;rightarrow;343;true;focus;yes;572904;Chrome;112.0;Windows;10;undefined;undefined;1536 x 864;1536 x 864
H023;22;Vrouwelijk;Links;3;28;right;no;150;rightarrow;366;true;focus;yes;574028;Chrome;112.0;Windows;10;undefined;undefined;1536 x 864;1536 x 864
H023;22;Vrouwelijk;Links;3;29;left;no;150;leftarrow;551;true;focus;yes;575346;Chrome;112.0;Windows;10;undefined;undefined;1536 x 864;1536 x 864
H023;22;Vrouwelijk;Links;3;30;left;no;150;leftarrow;336;true;focus;yes;576462;Chrome;112.0;Windows;10;undefined;undefined;1536 x 864;1536 x 864
H023;22;Vrouwelijk;Links;3;31;left;no;150;leftarrow;380;true;focus;yes;577622;Chrome;112.0;Windows;10;undefined;undefined;1536 x 864;1536 x 864
H023;22;Vrouwelijk;Links;3;32;left;yes;150;leftarrow;312;false;focus;yes;578704;Chrome;112.0;Windows;10;undefined;undefined;1536 x 864;1536 x 864
H023;22;Vrouwelijk;Links;3;33;right;no;100;rightarrow;465;true;focus;yes;579940;Chrome;112.0;Windows;10;undefined;undefined;1536 x 864;1536 x 864
H023;22;Vrouwelijk;Links;3;34;left;yes;100;undefined;null;true;focus;yes;581970;Chrome;112.0;Windows;10;undefined;undefined;1536 x 864;1536 x 864
H023;22;Vrouwelijk;Links;3;35;left;no;150;leftarrow;335;true;focus;yes;583074;Chrome;112.0;Windows;10;undefined;undefined;1536 x 864;1536 x 864
H023;22;Vrouwelijk;Links;3;36;right;no;150;rightarrow;362;true;focus;yes;584218;Chrome;112.0;Windows;10;undefined;undefined;1536 x 864;1536 x 864
H023;22;Vrouwelijk;Links;3;37;right;yes;150;undefined;null;true;focus;yes;586252;Chrome;112.0;Windows;10;undefined;undefined;1536 x 864;1536 x 864
H023;22;Vrouwelijk;Links;3;38;left;no;200;leftarrow;346;true;focus;yes;587368;Chrome;112.0;Windows;10;undefined;undefined;1536 x 864;1536 x 864
H023;22;Vrouwelijk;Links;3;39;left;no;200;leftarrow;362;true;focus;yes;588499;Chrome;112.0;Windows;10;undefined;undefined;1536 x 864;1536 x 864
H023;22;Vrouwelijk;Links;3;40;right;no;200;rightarrow;601;true;focus;yes;589871;Chrome;112.0;Windows;10;undefined;undefined;1536 x 864;1536 x 864
H023;22;Vrouwelijk;Links;3;41;right;no;200;rightarrow;450;true;focus;yes;591102;Chrome;112.0;Windows;10;undefined;undefined;1536 x 864;1536 x 864
H023;22;Vrouwelijk;Links;3;42;right;yes;200;rightarrow;433;false;focus;yes;592318;Chrome;112.0;Windows;10;undefined;undefined;1536 x 864;1536 x 864
H023;22;Vrouwelijk;Links;3;43;right;no;150;rightarrow;290;true;focus;yes;593387;Chrome;112.0;Windows;10;undefined;undefined;1536 x 864;1536 x 864
H023;22;Vrouwelijk;Links;3;44;left;yes;150;undefined;null;true;focus;yes;595431;Chrome;112.0;Windows;10;undefined;undefined;1536 x 864;1536 x 864
H023;22;Vrouwelijk;Links;3;45;right;no;200;rightarrow;341;true;focus;yes;596543;Chrome;112.0;Windows;10;undefined;undefined;1536 x 864;1536 x 864
H023;22;Vrouwelijk;Links;3;46;left;no;200;leftarrow;361;true;focus;yes;597677;Chrome;112.0;Windows;10;undefined;undefined;1536 x 864;1536 x 864
H023;22;Vrouwelijk;Links;3;47;left;no;200;leftarrow;362;true;focus;yes;598807;Chrome;112.0;Windows;10;undefined;undefined;1536 x 864;1536 x 864
H023;22;Vrouwelijk;Links;3;48;left;no;200;leftarrow;354;true;focus;yes;599932;Chrome;112.0;Windows;10;undefined;undefined;1536 x 864;1536 x 864
H023;22;Vrouwelijk;Links;3;49;right;no;200;rightarrow;428;true;focus;yes;601125;Chrome;112.0;Windows;10;undefined;undefined;1536 x 864;1536 x 864
H023;22;Vrouwelijk;Links;3;50;left;no;200;leftarrow;317;true;focus;yes;602210;Chrome;112.0;Windows;10;undefined;undefined;1536 x 864;1536 x 864
H023;22;Vrouwelijk;Links;3;51;left;no;200;leftarrow;324;true;focus;yes;603316;Chrome;112.0;Windows;10;undefined;undefined;1536 x 864;1536 x 864
H023;22;Vrouwelijk;Links;3;52;right;yes;200;rightarrow;383;false;focus;yes;604460;Chrome;112.0;Windows;10;undefined;undefined;1536 x 864;1536 x 864
H023;22;Vrouwelijk;Links;3;53;right;no;150;rightarrow;395;true;focus;yes;605621;Chrome;112.0;Windows;10;undefined;undefined;1536 x 864;1536 x 864
H023;22;Vrouwelijk;Links;3;54;left;yes;150;undefined;null;true;focus;yes;607654;Chrome;112.0;Windows;10;undefined;undefined;1536 x 864;1536 x 864
H023;22;Vrouwelijk;Links;3;55;left;no;200;leftarrow;287;true;focus;yes;608710;Chrome;112.0;Windows;10;undefined;undefined;1536 x 864;1536 x 864
H023;22;Vrouwelijk;Links;3;56;right;no;200;rightarrow;391;true;focus;yes;609866;Chrome;112.0;Windows;10;undefined;undefined;1536 x 864;1536 x 864
H023;22;Vrouwelijk;Links;3;57;left;yes;200;leftarrow;349;false;focus;yes;610973;Chrome;112.0;Windows;10;undefined;undefined;1536 x 864;1536 x 864
H023;22;Vrouwelijk;Links;3;58;left;no;150;leftarrow;362;true;focus;yes;612101;Chrome;112.0;Windows;10;undefined;undefined;1536 x 864;1536 x 864
H023;22;Vrouwelijk;Links;3;59;right;yes;150;undefined;null;true;focus;yes;614129;Chrome;112.0;Windows;10;undefined;undefined;1536 x 864;1536 x 864
H023;22;Vrouwelijk;Links;3;60;right;no;200;rightarrow;332;true;focus;yes;615236;Chrome;112.0;Windows;10;undefined;undefined;1536 x 864;1536 x 864
H023;22;Vrouwelijk;Links;3;61;right;no;200;rightarrow;412;true;focus;yes;616433;Chrome;112.0;Windows;10;undefined;undefined;1536 x 864;1536 x 864
H023;22;Vrouwelijk;Links;3;62;left;no;200;leftarrow;352;true;focus;yes;617554;Chrome;112.0;Windows;10;undefined;undefined;1536 x 864;1536 x 864
H023;22;Vrouwelijk;Links;3;63;left;no;200;leftarrow;342;true;focus;yes;618677;Chrome;112.0;Windows;10;undefined;undefined;1536 x 864;1536 x 864
H023;22;Vrouwelijk;Links;3;64;right;no;200;rightarrow;343;true;focus;yes;619794;Chrome;112.0;Windows;10;undefined;undefined;1536 x 864;1536 x 864
H023;22;Vrouwelijk;Links;3;65;right;yes;200;undefined;null;true;focus;yes;621819;Chrome;112.0;Windows;10;undefined;undefined;1536 x 864;1536 x 864
H023;22;Vrouwelijk;Links;3;66;right;no;250;rightarrow;365;true;focus;yes;622965;Chrome;112.0;Windows;10;undefined;undefined;1536 x 864;1536 x 864
H023;22;Vrouwelijk;Links;3;67;left;no;250;leftarrow;385;true;focus;yes;624117;Chrome;112.0;Windows;10;undefined;undefined;1536 x 864;1536 x 864
H023;22;Vrouwelijk;Links;3;68;left;no;250;leftarrow;408;true;focus;yes;625291;Chrome;112.0;Windows;10;undefined;undefined;1536 x 864;1536 x 864
H023;22;Vrouwelijk;Links;3;69;right;no;250;rightarrow;408;true;focus;yes;626458;Chrome;112.0;Windows;10;undefined;undefined;1536 x 864;1536 x 864
H023;22;Vrouwelijk;Links;3;70;left;no;250;leftarrow;327;true;focus;yes;627558;Chrome;112.0;Windows;10;undefined;undefined;1536 x 864;1536 x 864
H023;22;Vrouwelijk;Links;3;71;right;no;250;rightarrow;399;true;focus;yes;628729;Chrome;112.0;Windows;10;undefined;undefined;1536 x 864;1536 x 864
H023;22;Vrouwelijk;Links;3;72;left;yes;250;leftarrow;353;false;focus;yes;629866;Chrome;112.0;Windows;10;undefined;undefined;1536 x 864;1536 x 864
H023;22;Vrouwelijk;Links;3;73;right;no;200;rightarrow;607;true;focus;yes;631237;Chrome;112.0;Windows;10;undefined;undefined;1536 x 864;1536 x 864
H023;22;Vrouwelijk;Links;3;74;left;no;200;leftarrow;404;true;focus;yes;632400;Chrome;112.0;Windows;10;undefined;undefined;1536 x 864;1536 x 864
H023;22;Vrouwelijk;Links;3;75;right;yes;200;undefined;null;true;focus;yes;634429;Chrome;112.0;Windows;10;undefined;undefined;1536 x 864;1536 x 864
H023;22;Vrouwelijk;Links;3;76;left;yes;250;leftarrow;329;false;focus;yes;635539;Chrome;112.0;Windows;10;undefined;undefined;1536 x 864;1536 x 864
H023;22;Vrouwelijk;Links;3;77;right;no;200;rightarrow;429;true;focus;yes;636739;Chrome;112.0;Windows;10;undefined;undefined;1536 x 864;1536 x 864
H023;22;Vrouwelijk;Links;3;78;right;no;200;rightarrow;622;true;focus;yes;638132;Chrome;112.0;Windows;10;undefined;undefined;1536 x 864;1536 x 864
H023;22;Vrouwelijk;Links;3;79;left;no;200;leftarrow;298;true;focus;yes;639191;Chrome;112.0;Windows;10;undefined;undefined;1536 x 864;1536 x 864
H023;22;Vrouwelijk;Links;3;80;left;no;200;leftarrow;393;true;focus;yes;640352;Chrome;112.0;Windows;10;undefined;undefined;1536 x 864;1536 x 864
H023;22;Vrouwelijk;Links;3;81;left;no;200;leftarrow;410;true;focus;yes;641518;Chrome;112.0;Windows;10;undefined;undefined;1536 x 864;1536 x 864
H023;22;Vrouwelijk;Links;3;82;right;no;200;rightarrow;337;true;focus;yes;642627;Chrome;112.0;Windows;10;undefined;undefined;1536 x 864;1536 x 864
H023;22;Vrouwelijk;Links;3;83;left;no;200;leftarrow;240;true;focus;yes;643630;Chrome;112.0;Windows;10;undefined;undefined;1536 x 864;1536 x 864
H023;22;Vrouwelijk;Links;3;84;right;no;200;rightarrow;305;true;focus;yes;644696;Chrome;112.0;Windows;10;undefined;undefined;1536 x 864;1536 x 864
H023;22;Vrouwelijk;Links;3;85;left;no;200;leftarrow;289;true;focus;yes;645746;Chrome;112.0;Windows;10;undefined;undefined;1536 x 864;1536 x 864
H023;22;Vrouwelijk;Links;3;86;right;yes;200;rightarrow;400;false;focus;yes;646905;Chrome;112.0;Windows;10;undefined;undefined;1536 x 864;1536 x 864
H023;22;Vrouwelijk;Links;3;87;right;no;150;rightarrow;633;true;focus;yes;648304;Chrome;112.0;Windows;10;undefined;undefined;1536 x 864;1536 x 864
H023;22;Vrouwelijk;Links;3;88;left;yes;150;undefined;null;true;focus;yes;650351;Chrome;112.0;Windows;10;undefined;undefined;1536 x 864;1536 x 864
H023;22;Vrouwelijk;Links;3;89;right;yes;200;rightarrow;376;false;focus;yes;651481;Chrome;112.0;Windows;10;undefined;undefined;1536 x 864;1536 x 864
H023;22;Vrouwelijk;Links;3;90;left;yes;150;undefined;null;true;focus;yes;653511;Chrome;112.0;Windows;10;undefined;undefined;1536 x 864;1536 x 864
H023;22;Vrouwelijk;Links;3;91;right;no;200;rightarrow;416;true;focus;yes;654700;Chrome;112.0;Windows;10;undefined;undefined;1536 x 864;1536 x 864
H023;22;Vrouwelijk;Links;3;92;left;no;200;leftarrow;311;true;focus;yes;655779;Chrome;112.0;Windows;10;undefined;undefined;1536 x 864;1536 x 864
H023;22;Vrouwelijk;Links;3;93;left;no;200;leftarrow;433;true;focus;yes;656983;Chrome;112.0;Windows;10;undefined;undefined;1536 x 864;1536 x 864
H023;22;Vrouwelijk;Links;3;94;right;no;200;rightarrow;476;true;focus;yes;658242;Chrome;112.0;Windows;10;undefined;undefined;1536 x 864;1536 x 864
H023;22;Vrouwelijk;Links;3;95;right;no;200;rightarrow;463;true;focus;yes;659481;Chrome;112.0;Windows;10;undefined;undefined;1536 x 864;1536 x 864
H023;22;Vrouwelijk;Links;3;96;left;no;200;leftarrow;345;true;focus;yes;660596;Chrome;112.0;Windows;10;undefined;undefined;1536 x 864;1536 x 864
H023;22;Vrouwelijk;Links;3;97;right;yes;200;undefined;null;true;focus;yes;662619;Chrome;112.0;Windows;10;undefined;undefined;1536 x 864;1536 x 864
H023;22;Vrouwelijk;Links;3;98;right;no;250;rightarrow;615;true;focus;yes;664016;Chrome;112.0;Windows;10;undefined;undefined;1536 x 864;1536 x 864
H023;22;Vrouwelijk;Links;3;99;left;no;250;leftarrow;366;true;focus;yes;665166;Chrome;112.0;Windows;10;undefined;undefined;1536 x 864;1536 x 864
H023;22;Vrouwelijk;Links;3;100;left;no;250;leftarrow;408;true;focus;yes;666340;Chrome;112.0;Windows;10;undefined;undefined;1536 x 864;1536 x 864
H023;22;Vrouwelijk;Links;3;101;right;no;250;rightarrow;461;true;focus;yes;667560;Chrome;112.0;Windows;10;undefined;undefined;1536 x 864;1536 x 864
H023;22;Vrouwelijk;Links;3;102;left;yes;250;leftarrow;397;false;focus;yes;668727;Chrome;112.0;Windows;10;undefined;undefined;1536 x 864;1536 x 864
H023;22;Vrouwelijk;Links;3;103;right;no;200;rightarrow;484;true;focus;yes;669981;Chrome;112.0;Windows;10;undefined;undefined;1536 x 864;1536 x 864
H023;22;Vrouwelijk;Links;3;104;left;no;200;leftarrow;480;true;focus;yes;671242;Chrome;112.0;Windows;10;undefined;undefined;1536 x 864;1536 x 864
H023;22;Vrouwelijk;Links;3;105;right;no;200;rightarrow;427;true;focus;yes;672424;Chrome;112.0;Windows;10;undefined;undefined;1536 x 864;1536 x 864
H023;22;Vrouwelijk;Links;3;106;left;no;200;leftarrow;500;true;focus;yes;673696;Chrome;112.0;Windows;10;undefined;undefined;1536 x 864;1536 x 864
H023;22;Vrouwelijk;Links;3;107;left;no;200;leftarrow;464;true;focus;yes;674941;Chrome;112.0;Windows;10;undefined;undefined;1536 x 864;1536 x 864
H023;22;Vrouwelijk;Links;3;108;right;yes;200;undefined;null;true;focus;yes;676961;Chrome;112.0;Windows;10;undefined;undefined;1536 x 864;1536 x 864
H023;22;Vrouwelijk;Links;3;109;right;no;250;rightarrow;445;true;focus;yes;678188;Chrome;112.0;Windows;10;undefined;undefined;1536 x 864;1536 x 864
H023;22;Vrouwelijk;Links;3;110;left;no;250;leftarrow;386;true;focus;yes;679345;Chrome;112.0;Windows;10;undefined;undefined;1536 x 864;1536 x 864
H023;22;Vrouwelijk;Links;3;111;right;no;250;rightarrow;413;true;focus;yes;680522;Chrome;112.0;Windows;10;undefined;undefined;1536 x 864;1536 x 864
H023;22;Vrouwelijk;Links;3;112;left;yes;250;leftarrow;358;false;focus;yes;681649;Chrome;112.0;Windows;10;undefined;undefined;1536 x 864;1536 x 864
H023;22;Vrouwelijk;Links;3;113;left;no;200;leftarrow;410;true;focus;yes;682818;Chrome;112.0;Windows;10;undefined;undefined;1536 x 864;1536 x 864
H023;22;Vrouwelijk;Links;3;114;right;no;200;rightarrow;446;true;focus;yes;684036;Chrome;112.0;Windows;10;undefined;undefined;1536 x 864;1536 x 864
H023;22;Vrouwelijk;Links;3;115;left;no;200;leftarrow;307;true;focus;yes;685113;Chrome;112.0;Windows;10;undefined;undefined;1536 x 864;1536 x 864
H023;22;Vrouwelijk;Links;3;116;right;no;200;rightarrow;407;true;focus;yes;686295;Chrome;112.0;Windows;10;undefined;undefined;1536 x 864;1536 x 864
H023;22;Vrouwelijk;Links;3;117;right;no;200;rightarrow;451;true;focus;yes;687507;Chrome;112.0;Windows;10;undefined;undefined;1536 x 864;1536 x 864
H023;22;Vrouwelijk;Links;3;118;left;yes;200;undefined;null;true;focus;yes;689545;Chrome;112.0;Windows;10;undefined;undefined;1536 x 864;1536 x 864
H023;22;Vrouwelijk;Links;3;119;right;yes;250;undefined;null;true;focus;yes;691586;Chrome;112.0;Windows;10;undefined;undefined;1536 x 864;1536 x 864
H023;22;Vrouwelijk;Links;3;120;left;no;300;leftarrow;376;true;focus;yes;692745;Chrome;112.0;Windows;10;undefined;undefined;1536 x 864;1536 x 864
H023;22;Vrouwelijk;Links;3;121;left;no;300;leftarrow;389;true;focus;yes;693907;Chrome;112.0;Windows;10;undefined;undefined;1536 x 864;1536 x 864
H023;22;Vrouwelijk;Links;3;122;left;no;300;leftarrow;364;true;focus;yes;695033;Chrome;112.0;Windows;10;undefined;undefined;1536 x 864;1536 x 864
H023;22;Vrouwelijk;Links;3;123;left;yes;300;leftarrow;359;false;focus;yes;696176;Chrome;112.0;Windows;10;undefined;undefined;1536 x 864;1536 x 864
H023;22;Vrouwelijk;Links;3;124;right;no;250;rightarrow;426;true;focus;yes;697376;Chrome;112.0;Windows;10;undefined;undefined;1536 x 864;1536 x 864
H023;22;Vrouwelijk;Links;3;125;right;yes;250;rightarrow;403;false;focus;yes;698536;Chrome;112.0;Windows;10;undefined;undefined;1536 x 864;1536 x 864
H023;22;Vrouwelijk;Links;3;126;right;no;200;leftarrow;641;false;focus;yes;699956;Chrome;112.0;Windows;10;undefined;undefined;1536 x 864;1536 x 864
H023;22;Vrouwelijk;Links;3;127;right;no;200;rightarrow;409;true;focus;yes;701141;Chrome;112.0;Windows;10;undefined;undefined;1536 x 864;1536 x 864
H023;22;Vrouwelijk;Links;3;128;left;no;200;leftarrow;416;true;focus;yes;702329;Chrome;112.0;Windows;10;undefined;undefined;1536 x 864;1536 x 864
H023;22;Vrouwelijk;Links;4;1;left;no;200;leftarrow;450;true;focus;yes;726762;Chrome;112.0;Windows;10;undefined;undefined;1536 x 864;1536 x 864
H023;22;Vrouwelijk;Links;4;2;left;no;200;leftarrow;337;true;focus;yes;727865;Chrome;112.0;Windows;10;undefined;undefined;1536 x 864;1536 x 864
H023;22;Vrouwelijk;Links;4;3;right;no;200;rightarrow;405;true;focus;yes;729032;Chrome;112.0;Windows;10;undefined;undefined;1536 x 864;1536 x 864
H023;22;Vrouwelijk;Links;4;4;right;no;200;rightarrow;373;true;focus;yes;730183;Chrome;112.0;Windows;10;undefined;undefined;1536 x 864;1536 x 864
H023;22;Vrouwelijk;Links;4;5;right;yes;200;rightarrow;415;false;focus;yes;731358;Chrome;112.0;Windows;10;undefined;undefined;1536 x 864;1536 x 864
H023;22;Vrouwelijk;Links;4;6;left;yes;150;undefined;null;true;focus;yes;733406;Chrome;112.0;Windows;10;undefined;undefined;1536 x 864;1536 x 864
H023;22;Vrouwelijk;Links;4;7;right;no;200;rightarrow;334;true;focus;yes;734525;Chrome;112.0;Windows;10;undefined;undefined;1536 x 864;1536 x 864
H023;22;Vrouwelijk;Links;4;8;left;no;200;leftarrow;384;true;focus;yes;735690;Chrome;112.0;Windows;10;undefined;undefined;1536 x 864;1536 x 864
H023;22;Vrouwelijk;Links;4;9;right;yes;200;undefined;null;true;focus;yes;737724;Chrome;112.0;Windows;10;undefined;undefined;1536 x 864;1536 x 864
H023;22;Vrouwelijk;Links;4;10;left;no;250;leftarrow;387;true;focus;yes;738891;Chrome;112.0;Windows;10;undefined;undefined;1536 x 864;1536 x 864
H023;22;Vrouwelijk;Links;4;11;right;no;250;rightarrow;452;true;focus;yes;740106;Chrome;112.0;Windows;10;undefined;undefined;1536 x 864;1536 x 864
H023;22;Vrouwelijk;Links;4;12;right;no;250;rightarrow;427;true;focus;yes;741299;Chrome;112.0;Windows;10;undefined;undefined;1536 x 864;1536 x 864
H023;22;Vrouwelijk;Links;4;13;left;no;250;leftarrow;320;true;focus;yes;742389;Chrome;112.0;Windows;10;undefined;undefined;1536 x 864;1536 x 864
H023;22;Vrouwelijk;Links;4;14;left;no;250;leftarrow;342;true;focus;yes;743496;Chrome;112.0;Windows;10;undefined;undefined;1536 x 864;1536 x 864
H023;22;Vrouwelijk;Links;4;15;right;no;250;rightarrow;362;true;focus;yes;744631;Chrome;112.0;Windows;10;undefined;undefined;1536 x 864;1536 x 864
H023;22;Vrouwelijk;Links;4;16;left;yes;250;leftarrow;286;false;focus;yes;745688;Chrome;112.0;Windows;10;undefined;undefined;1536 x 864;1536 x 864
H023;22;Vrouwelijk;Links;4;17;right;yes;200;rightarrow;299;false;focus;yes;746751;Chrome;112.0;Windows;10;undefined;undefined;1536 x 864;1536 x 864
H023;22;Vrouwelijk;Links;4;18;right;no;150;rightarrow;380;true;focus;yes;747914;Chrome;112.0;Windows;10;undefined;undefined;1536 x 864;1536 x 864
H023;22;Vrouwelijk;Links;4;19;left;no;150;leftarrow;326;true;focus;yes;749010;Chrome;112.0;Windows;10;undefined;undefined;1536 x 864;1536 x 864
H023;22;Vrouwelijk;Links;4;20;left;yes;150;undefined;null;true;focus;yes;751046;Chrome;112.0;Windows;10;undefined;undefined;1536 x 864;1536 x 864
H023;22;Vrouwelijk;Links;4;21;right;no;200;rightarrow;363;true;focus;yes;752178;Chrome;112.0;Windows;10;undefined;undefined;1536 x 864;1536 x 864
H023;22;Vrouwelijk;Links;4;22;left;no;200;leftarrow;315;true;focus;yes;753263;Chrome;112.0;Windows;10;undefined;undefined;1536 x 864;1536 x 864
H023;22;Vrouwelijk;Links;4;23;right;no;200;rightarrow;387;true;focus;yes;754419;Chrome;112.0;Windows;10;undefined;undefined;1536 x 864;1536 x 864
H023;22;Vrouwelijk;Links;4;24;left;no;200;leftarrow;298;true;focus;yes;755479;Chrome;112.0;Windows;10;undefined;undefined;1536 x 864;1536 x 864
H023;22;Vrouwelijk;Links;4;25;left;yes;200;undefined;null;true;focus;yes;757507;Chrome;112.0;Windows;10;undefined;undefined;1536 x 864;1536 x 864
H023;22;Vrouwelijk;Links;4;26;left;no;250;leftarrow;370;true;focus;yes;758648;Chrome;112.0;Windows;10;undefined;undefined;1536 x 864;1536 x 864
H023;22;Vrouwelijk;Links;4;27;right;yes;250;rightarrow;340;false;focus;yes;759753;Chrome;112.0;Windows;10;undefined;undefined;1536 x 864;1536 x 864
H023;22;Vrouwelijk;Links;4;28;left;no;200;leftarrow;385;true;focus;yes;760897;Chrome;112.0;Windows;10;undefined;undefined;1536 x 864;1536 x 864
H023;22;Vrouwelijk;Links;4;29;right;no;200;rightarrow;373;true;focus;yes;762050;Chrome;112.0;Windows;10;undefined;undefined;1536 x 864;1536 x 864
H023;22;Vrouwelijk;Links;4;30;right;no;200;rightarrow;330;true;focus;yes;763157;Chrome;112.0;Windows;10;undefined;undefined;1536 x 864;1536 x 864
H023;22;Vrouwelijk;Links;4;31;right;no;200;rightarrow;356;true;focus;yes;764282;Chrome;112.0;Windows;10;undefined;undefined;1536 x 864;1536 x 864
H023;22;Vrouwelijk;Links;4;32;left;no;200;leftarrow;366;true;focus;yes;765425;Chrome;112.0;Windows;10;undefined;undefined;1536 x 864;1536 x 864
H023;22;Vrouwelijk;Links;4;33;right;no;200;rightarrow;337;true;focus;yes;766545;Chrome;112.0;Windows;10;undefined;undefined;1536 x 864;1536 x 864
H023;22;Vrouwelijk;Links;4;34;right;yes;200;undefined;null;true;focus;yes;768574;Chrome;112.0;Windows;10;undefined;undefined;1536 x 864;1536 x 864
H023;22;Vrouwelijk;Links;4;35;left;yes;250;leftarrow;342;false;focus;yes;769684;Chrome;112.0;Windows;10;undefined;undefined;1536 x 864;1536 x 864
H023;22;Vrouwelijk;Links;4;36;left;no;200;leftarrow;415;true;focus;yes;770871;Chrome;112.0;Windows;10;undefined;undefined;1536 x 864;1536 x 864
H023;22;Vrouwelijk;Links;4;37;right;no;200;rightarrow;436;true;focus;yes;772076;Chrome;112.0;Windows;10;undefined;undefined;1536 x 864;1536 x 864
H023;22;Vrouwelijk;Links;4;38;right;no;200;rightarrow;432;true;focus;yes;773286;Chrome;112.0;Windows;10;undefined;undefined;1536 x 864;1536 x 864
H023;22;Vrouwelijk;Links;4;39;left;no;200;leftarrow;369;true;focus;yes;774440;Chrome;112.0;Windows;10;undefined;undefined;1536 x 864;1536 x 864
H023;22;Vrouwelijk;Links;4;40;left;no;200;leftarrow;479;true;focus;yes;775699;Chrome;112.0;Windows;10;undefined;undefined;1536 x 864;1536 x 864
H023;22;Vrouwelijk;Links;4;41;left;no;200;leftarrow;368;true;focus;yes;776839;Chrome;112.0;Windows;10;undefined;undefined;1536 x 864;1536 x 864
H023;22;Vrouwelijk;Links;4;42;right;no;200;rightarrow;461;true;focus;yes;778081;Chrome;112.0;Windows;10;undefined;undefined;1536 x 864;1536 x 864
H023;22;Vrouwelijk;Links;4;43;left;no;200;leftarrow;291;true;focus;yes;779143;Chrome;112.0;Windows;10;undefined;undefined;1536 x 864;1536 x 864
H023;22;Vrouwelijk;Links;4;44;right;no;200;rightarrow;444;true;focus;yes;780347;Chrome;112.0;Windows;10;undefined;undefined;1536 x 864;1536 x 864
H023;22;Vrouwelijk;Links;4;45;left;no;200;leftarrow;386;true;focus;yes;781504;Chrome;112.0;Windows;10;undefined;undefined;1536 x 864;1536 x 864
H023;22;Vrouwelijk;Links;4;46;right;no;200;rightarrow;383;true;focus;yes;782651;Chrome;112.0;Windows;10;undefined;undefined;1536 x 864;1536 x 864
H023;22;Vrouwelijk;Links;4;47;left;yes;200;undefined;null;true;focus;yes;784692;Chrome;112.0;Windows;10;undefined;undefined;1536 x 864;1536 x 864
H023;22;Vrouwelijk;Links;4;48;right;yes;250;rightarrow;363;false;focus;yes;785820;Chrome;112.0;Windows;10;undefined;undefined;1536 x 864;1536 x 864
H023;22;Vrouwelijk;Links;4;49;left;no;200;leftarrow;528;true;focus;yes;787117;Chrome;112.0;Windows;10;undefined;undefined;1536 x 864;1536 x 864
H023;22;Vrouwelijk;Links;4;50;right;no;200;rightarrow;434;true;focus;yes;788322;Chrome;112.0;Windows;10;undefined;undefined;1536 x 864;1536 x 864
H023;22;Vrouwelijk;Links;4;51;left;no;200;leftarrow;377;true;focus;yes;789466;Chrome;112.0;Windows;10;undefined;undefined;1536 x 864;1536 x 864
H023;22;Vrouwelijk;Links;4;52;left;no;200;leftarrow;471;true;focus;yes;790708;Chrome;112.0;Windows;10;undefined;undefined;1536 x 864;1536 x 864
H023;22;Vrouwelijk;Links;4;53;left;yes;200;undefined;null;true;focus;yes;792736;Chrome;112.0;Windows;10;undefined;undefined;1536 x 864;1536 x 864
H023;22;Vrouwelijk;Links;4;54;right;no;250;rightarrow;437;true;focus;yes;793941;Chrome;112.0;Windows;10;undefined;undefined;1536 x 864;1536 x 864
H023;22;Vrouwelijk;Links;4;55;right;yes;250;undefined;null;true;focus;yes;795973;Chrome;112.0;Windows;10;undefined;undefined;1536 x 864;1536 x 864
H023;22;Vrouwelijk;Links;4;56;right;no;300;rightarrow;369;true;focus;yes;797119;Chrome;112.0;Windows;10;undefined;undefined;1536 x 864;1536 x 864
H023;22;Vrouwelijk;Links;4;57;left;no;300;leftarrow;349;true;focus;yes;798233;Chrome;112.0;Windows;10;undefined;undefined;1536 x 864;1536 x 864
H023;22;Vrouwelijk;Links;4;58;left;yes;300;leftarrow;430;false;focus;yes;799446;Chrome;112.0;Windows;10;undefined;undefined;1536 x 864;1536 x 864
H023;22;Vrouwelijk;Links;4;59;left;no;250;leftarrow;425;true;focus;yes;800641;Chrome;112.0;Windows;10;undefined;undefined;1536 x 864;1536 x 864
H023;22;Vrouwelijk;Links;4;60;right;no;250;rightarrow;356;true;focus;yes;801755;Chrome;112.0;Windows;10;undefined;undefined;1536 x 864;1536 x 864
H023;22;Vrouwelijk;Links;4;61;right;yes;250;rightarrow;410;false;focus;yes;802925;Chrome;112.0;Windows;10;undefined;undefined;1536 x 864;1536 x 864
H023;22;Vrouwelijk;Links;4;62;right;no;200;rightarrow;378;true;focus;yes;804075;Chrome;112.0;Windows;10;undefined;undefined;1536 x 864;1536 x 864
H023;22;Vrouwelijk;Links;4;63;right;no;200;rightarrow;535;true;focus;yes;805382;Chrome;112.0;Windows;10;undefined;undefined;1536 x 864;1536 x 864
H023;22;Vrouwelijk;Links;4;64;left;no;200;leftarrow;397;true;focus;yes;806559;Chrome;112.0;Windows;10;undefined;undefined;1536 x 864;1536 x 864
H023;22;Vrouwelijk;Links;4;65;right;no;200;rightarrow;439;true;focus;yes;807768;Chrome;112.0;Windows;10;undefined;undefined;1536 x 864;1536 x 864
H023;22;Vrouwelijk;Links;4;66;left;no;200;leftarrow;550;true;focus;yes;809079;Chrome;112.0;Windows;10;undefined;undefined;1536 x 864;1536 x 864
H023;22;Vrouwelijk;Links;4;67;left;no;200;leftarrow;476;true;focus;yes;810321;Chrome;112.0;Windows;10;undefined;undefined;1536 x 864;1536 x 864
H023;22;Vrouwelijk;Links;4;68;left;no;200;leftarrow;368;true;focus;yes;811462;Chrome;112.0;Windows;10;undefined;undefined;1536 x 864;1536 x 864
H023;22;Vrouwelijk;Links;4;69;right;no;200;rightarrow;607;true;focus;yes;812850;Chrome;112.0;Windows;10;undefined;undefined;1536 x 864;1536 x 864
H023;22;Vrouwelijk;Links;4;70;right;yes;200;undefined;null;true;focus;yes;814892;Chrome;112.0;Windows;10;undefined;undefined;1536 x 864;1536 x 864
H023;22;Vrouwelijk;Links;4;71;right;no;250;rightarrow;356;true;focus;yes;816031;Chrome;112.0;Windows;10;undefined;undefined;1536 x 864;1536 x 864
H023;22;Vrouwelijk;Links;4;72;left;yes;250;leftarrow;364;false;focus;yes;817156;Chrome;112.0;Windows;10;undefined;undefined;1536 x 864;1536 x 864
H023;22;Vrouwelijk;Links;4;73;right;no;200;rightarrow;421;true;focus;yes;818362;Chrome;112.0;Windows;10;undefined;undefined;1536 x 864;1536 x 864
H023;22;Vrouwelijk;Links;4;74;left;no;200;leftarrow;351;true;focus;yes;819475;Chrome;112.0;Windows;10;undefined;undefined;1536 x 864;1536 x 864
H023;22;Vrouwelijk;Links;4;75;left;no;200;leftarrow;393;true;focus;yes;820633;Chrome;112.0;Windows;10;undefined;undefined;1536 x 864;1536 x 864
H023;22;Vrouwelijk;Links;4;76;right;yes;200;undefined;null;true;focus;yes;822656;Chrome;112.0;Windows;10;undefined;undefined;1536 x 864;1536 x 864
H023;22;Vrouwelijk;Links;4;77;left;no;250;leftarrow;426;true;focus;yes;823850;Chrome;112.0;Windows;10;undefined;undefined;1536 x 864;1536 x 864
H023;22;Vrouwelijk;Links;4;78;left;yes;250;leftarrow;413;false;focus;yes;825033;Chrome;112.0;Windows;10;undefined;undefined;1536 x 864;1536 x 864
H023;22;Vrouwelijk;Links;4;79;right;no;200;rightarrow;453;true;focus;yes;826257;Chrome;112.0;Windows;10;undefined;undefined;1536 x 864;1536 x 864
H023;22;Vrouwelijk;Links;4;80;right;no;200;rightarrow;509;true;focus;yes;827529;Chrome;112.0;Windows;10;undefined;undefined;1536 x 864;1536 x 864
H023;22;Vrouwelijk;Links;4;81;right;no;200;rightarrow;410;true;focus;yes;828711;Chrome;112.0;Windows;10;undefined;undefined;1536 x 864;1536 x 864
H023;22;Vrouwelijk;Links;4;82;right;yes;200;undefined;null;true;focus;yes;830720;Chrome;112.0;Windows;10;undefined;undefined;1536 x 864;1536 x 864
H023;22;Vrouwelijk;Links;4;83;left;no;250;leftarrow;381;true;focus;yes;831882;Chrome;112.0;Windows;10;undefined;undefined;1536 x 864;1536 x 864
H023;22;Vrouwelijk;Links;4;84;right;no;250;rightarrow;477;true;focus;yes;833127;Chrome;112.0;Windows;10;undefined;undefined;1536 x 864;1536 x 864
H023;22;Vrouwelijk;Links;4;85;left;no;250;leftarrow;471;true;focus;yes;834370;Chrome;112.0;Windows;10;undefined;undefined;1536 x 864;1536 x 864
H023;22;Vrouwelijk;Links;4;86;left;yes;250;leftarrow;372;false;focus;yes;835505;Chrome;112.0;Windows;10;undefined;undefined;1536 x 864;1536 x 864
H023;22;Vrouwelijk;Links;4;87;left;no;200;leftarrow;522;true;focus;yes;836803;Chrome;112.0;Windows;10;undefined;undefined;1536 x 864;1536 x 864
H023;22;Vrouwelijk;Links;4;88;right;no;200;rightarrow;543;true;focus;yes;838123;Chrome;112.0;Windows;10;undefined;undefined;1536 x 864;1536 x 864
H023;22;Vrouwelijk;Links;4;89;left;yes;200;undefined;null;true;focus;yes;840146;Chrome;112.0;Windows;10;undefined;undefined;1536 x 864;1536 x 864
H023;22;Vrouwelijk;Links;4;90;right;no;250;rightarrow;394;true;focus;yes;841323;Chrome;112.0;Windows;10;undefined;undefined;1536 x 864;1536 x 864
H023;22;Vrouwelijk;Links;4;91;left;no;250;leftarrow;465;true;focus;yes;842560;Chrome;112.0;Windows;10;undefined;undefined;1536 x 864;1536 x 864
H023;22;Vrouwelijk;Links;4;92;left;no;250;leftarrow;471;true;focus;yes;843815;Chrome;112.0;Windows;10;undefined;undefined;1536 x 864;1536 x 864
H023;22;Vrouwelijk;Links;4;93;right;yes;250;undefined;null;true;focus;yes;845839;Chrome;112.0;Windows;10;undefined;undefined;1536 x 864;1536 x 864
H023;22;Vrouwelijk;Links;4;94;left;no;300;leftarrow;444;true;focus;yes;847061;Chrome;112.0;Windows;10;undefined;undefined;1536 x 864;1536 x 864
H023;22;Vrouwelijk;Links;4;95;right;no;300;rightarrow;434;true;focus;yes;848267;Chrome;112.0;Windows;10;undefined;undefined;1536 x 864;1536 x 864
H023;22;Vrouwelijk;Links;4;96;right;no;300;rightarrow;414;true;focus;yes;849448;Chrome;112.0;Windows;10;undefined;undefined;1536 x 864;1536 x 864
H023;22;Vrouwelijk;Links;4;97;left;no;300;leftarrow;412;true;focus;yes;850644;Chrome;112.0;Windows;10;undefined;undefined;1536 x 864;1536 x 864
H023;22;Vrouwelijk;Links;4;98;right;no;300;rightarrow;443;true;focus;yes;851857;Chrome;112.0;Windows;10;undefined;undefined;1536 x 864;1536 x 864
H023;22;Vrouwelijk;Links;4;99;left;yes;300;leftarrow;378;false;focus;yes;852993;Chrome;112.0;Windows;10;undefined;undefined;1536 x 864;1536 x 864
H023;22;Vrouwelijk;Links;4;100;right;yes;250;rightarrow;323;false;focus;yes;854086;Chrome;112.0;Windows;10;undefined;undefined;1536 x 864;1536 x 864
H023;22;Vrouwelijk;Links;4;101;right;no;200;rightarrow;489;true;focus;yes;855352;Chrome;112.0;Windows;10;undefined;undefined;1536 x 864;1536 x 864
H023;22;Vrouwelijk;Links;4;102;left;no;200;leftarrow;346;true;focus;yes;856475;Chrome;112.0;Windows;10;undefined;undefined;1536 x 864;1536 x 864
H023;22;Vrouwelijk;Links;4;103;left;no;200;leftarrow;418;true;focus;yes;857648;Chrome;112.0;Windows;10;undefined;undefined;1536 x 864;1536 x 864
H023;22;Vrouwelijk;Links;4;104;right;no;200;rightarrow;495;true;focus;yes;858907;Chrome;112.0;Windows;10;undefined;undefined;1536 x 864;1536 x 864
H023;22;Vrouwelijk;Links;4;105;left;yes;200;undefined;null;true;focus;yes;860929;Chrome;112.0;Windows;10;undefined;undefined;1536 x 864;1536 x 864
H023;22;Vrouwelijk;Links;4;106;right;no;250;rightarrow;431;true;focus;yes;862140;Chrome;112.0;Windows;10;undefined;undefined;1536 x 864;1536 x 864
H023;22;Vrouwelijk;Links;4;107;left;no;250;leftarrow;566;true;focus;yes;863476;Chrome;112.0;Windows;10;undefined;undefined;1536 x 864;1536 x 864
H023;22;Vrouwelijk;Links;4;108;left;no;250;leftarrow;425;true;focus;yes;864684;Chrome;112.0;Windows;10;undefined;undefined;1536 x 864;1536 x 864
H023;22;Vrouwelijk;Links;4;109;right;yes;250;rightarrow;485;false;focus;yes;865942;Chrome;112.0;Windows;10;undefined;undefined;1536 x 864;1536 x 864
H023;22;Vrouwelijk;Links;4;110;right;no;200;rightarrow;528;true;focus;yes;867236;Chrome;112.0;Windows;10;undefined;undefined;1536 x 864;1536 x 864
H023;22;Vrouwelijk;Links;4;111;right;no;200;rightarrow;460;true;focus;yes;868466;Chrome;112.0;Windows;10;undefined;undefined;1536 x 864;1536 x 864
H023;22;Vrouwelijk;Links;4;112;left;no;200;leftarrow;476;true;focus;yes;869715;Chrome;112.0;Windows;10;undefined;undefined;1536 x 864;1536 x 864
H023;22;Vrouwelijk;Links;4;113;left;no;200;leftarrow;590;true;focus;yes;871079;Chrome;112.0;Windows;10;undefined;undefined;1536 x 864;1536 x 864
H023;22;Vrouwelijk;Links;4;114;left;yes;200;undefined;null;true;focus;yes;873104;Chrome;112.0;Windows;10;undefined;undefined;1536 x 864;1536 x 864
H023;22;Vrouwelijk;Links;4;115;right;no;250;rightarrow;453;true;focus;yes;874340;Chrome;112.0;Windows;10;undefined;undefined;1536 x 864;1536 x 864
H023;22;Vrouwelijk;Links;4;116;right;no;250;rightarrow;491;true;focus;yes;875610;Chrome;112.0;Windows;10;undefined;undefined;1536 x 864;1536 x 864
H023;22;Vrouwelijk;Links;4;117;right;yes;250;undefined;null;true;focus;yes;877645;Chrome;112.0;Windows;10;undefined;undefined;1536 x 864;1536 x 864
H023;22;Vrouwelijk;Links;4;118;left;no;300;leftarrow;512;true;focus;yes;878930;Chrome;112.0;Windows;10;undefined;undefined;1536 x 864;1536 x 864
H023;22;Vrouwelijk;Links;4;119;left;no;300;leftarrow;384;true;focus;yes;880085;Chrome;112.0;Windows;10;undefined;undefined;1536 x 864;1536 x 864
H023;22;Vrouwelijk;Links;4;120;right;no;300;rightarrow;487;true;focus;yes;881354;Chrome;112.0;Windows;10;undefined;undefined;1536 x 864;1536 x 864
H023;22;Vrouwelijk;Links;4;121;left;no;300;leftarrow;445;true;focus;yes;882578;Chrome;112.0;Windows;10;undefined;undefined;1536 x 864;1536 x 864
H023;22;Vrouwelijk;Links;4;122;right;no;300;rightarrow;559;true;focus;yes;883908;Chrome;112.0;Windows;10;undefined;undefined;1536 x 864;1536 x 864
H023;22;Vrouwelijk;Links;4;123;left;no;300;leftarrow;587;true;focus;yes;885253;Chrome;112.0;Windows;10;undefined;undefined;1536 x 864;1536 x 864
H023;22;Vrouwelijk;Links;4;124;right;yes;300;undefined;null;true;focus;yes;887281;Chrome;112.0;Windows;10;undefined;undefined;1536 x 864;1536 x 864
H023;22;Vrouwelijk;Links;4;125;right;no;350;rightarrow;416;true;focus;yes;888463;Chrome;112.0;Windows;10;undefined;undefined;1536 x 864;1536 x 864
H023;22;Vrouwelijk;Links;4;126;left;yes;350;leftarrow;381;false;focus;yes;889627;Chrome;112.0;Windows;10;undefined;undefined;1536 x 864;1536 x 864
H023;22;Vrouwelijk;Links;4;127;right;no;300;rightarrow;316;true;focus;yes;890714;Chrome;112.0;Windows;10;undefined;undefined;1536 x 864;1536 x 864
H023;22;Vrouwelijk;Links;4;128;left;no;300;leftarrow;359;true;focus;yes;891839;Chrome;112.0;Windows;10;undefined;undefined;1536 x 864;1536 x 864
H023;22;Vrouwelijk;Links;5;1;left;yes;300;leftarrow;447;false;focus;yes;919139;Chrome;112.0;Windows;10;undefined;undefined;1536 x 864;1536 x 864
H023;22;Vrouwelijk;Links;5;2;left;no;250;leftarrow;411;true;focus;yes;920319;Chrome;112.0;Windows;10;undefined;undefined;1536 x 864;1536 x 864
H023;22;Vrouwelijk;Links;5;3;right;no;250;rightarrow;426;true;focus;yes;921515;Chrome;112.0;Windows;10;undefined;undefined;1536 x 864;1536 x 864
H023;22;Vrouwelijk;Links;5;4;left;no;250;leftarrow;402;true;focus;yes;922692;Chrome;112.0;Windows;10;undefined;undefined;1536 x 864;1536 x 864
H023;22;Vrouwelijk;Links;5;5;right;yes;250;rightarrow;363;false;focus;yes;923819;Chrome;112.0;Windows;10;undefined;undefined;1536 x 864;1536 x 864
H023;22;Vrouwelijk;Links;5;6;right;no;200;rightarrow;425;true;focus;yes;925012;Chrome;112.0;Windows;10;undefined;undefined;1536 x 864;1536 x 864
H023;22;Vrouwelijk;Links;5;7;left;no;200;leftarrow;445;true;focus;yes;926216;Chrome;112.0;Windows;10;undefined;undefined;1536 x 864;1536 x 864
H023;22;Vrouwelijk;Links;5;8;right;no;200;rightarrow;425;true;focus;yes;927411;Chrome;112.0;Windows;10;undefined;undefined;1536 x 864;1536 x 864
H023;22;Vrouwelijk;Links;5;9;right;no;200;rightarrow;419;true;focus;yes;928589;Chrome;112.0;Windows;10;undefined;undefined;1536 x 864;1536 x 864
H023;22;Vrouwelijk;Links;5;10;right;no;200;rightarrow;429;true;focus;yes;929797;Chrome;112.0;Windows;10;undefined;undefined;1536 x 864;1536 x 864
H023;22;Vrouwelijk;Links;5;11;left;no;200;leftarrow;373;true;focus;yes;930940;Chrome;112.0;Windows;10;undefined;undefined;1536 x 864;1536 x 864
H023;22;Vrouwelijk;Links;5;12;right;yes;200;undefined;null;true;focus;yes;932968;Chrome;112.0;Windows;10;undefined;undefined;1536 x 864;1536 x 864
H023;22;Vrouwelijk;Links;5;13;left;no;250;leftarrow;536;true;focus;yes;934286;Chrome;112.0;Windows;10;undefined;undefined;1536 x 864;1536 x 864
H023;22;Vrouwelijk;Links;5;14;left;yes;250;leftarrow;373;false;focus;yes;935423;Chrome;112.0;Windows;10;undefined;undefined;1536 x 864;1536 x 864
H023;22;Vrouwelijk;Links;5;15;left;no;200;leftarrow;433;true;focus;yes;936616;Chrome;112.0;Windows;10;undefined;undefined;1536 x 864;1536 x 864
H023;22;Vrouwelijk;Links;5;16;right;no;200;rightarrow;492;true;focus;yes;937889;Chrome;112.0;Windows;10;undefined;undefined;1536 x 864;1536 x 864
H023;22;Vrouwelijk;Links;5;17;right;yes;200;undefined;null;true;focus;yes;939914;Chrome;112.0;Windows;10;undefined;undefined;1536 x 864;1536 x 864
H023;22;Vrouwelijk;Links;5;18;left;no;250;leftarrow;511;true;focus;yes;941191;Chrome;112.0;Windows;10;undefined;undefined;1536 x 864;1536 x 864
H023;22;Vrouwelijk;Links;5;19;right;no;250;rightarrow;437;true;focus;yes;942399;Chrome;112.0;Windows;10;undefined;undefined;1536 x 864;1536 x 864
H023;22;Vrouwelijk;Links;5;20;left;yes;250;leftarrow;379;false;focus;yes;943556;Chrome;112.0;Windows;10;undefined;undefined;1536 x 864;1536 x 864
H023;22;Vrouwelijk;Links;5;21;right;no;200;rightarrow;421;true;focus;yes;944734;Chrome;112.0;Windows;10;undefined;undefined;1536 x 864;1536 x 864
H023;22;Vrouwelijk;Links;5;22;left;no;200;leftarrow;459;true;focus;yes;945954;Chrome;112.0;Windows;10;undefined;undefined;1536 x 864;1536 x 864
H023;22;Vrouwelijk;Links;5;23;left;no;200;leftarrow;469;true;focus;yes;947196;Chrome;112.0;Windows;10;undefined;undefined;1536 x 864;1536 x 864
H023;22;Vrouwelijk;Links;5;24;right;no;200;rightarrow;503;true;focus;yes;948464;Chrome;112.0;Windows;10;undefined;undefined;1536 x 864;1536 x 864
H023;22;Vrouwelijk;Links;5;25;left;no;200;leftarrow;478;true;focus;yes;949705;Chrome;112.0;Windows;10;undefined;undefined;1536 x 864;1536 x 864
H023;22;Vrouwelijk;Links;5;26;right;no;200;rightarrow;578;true;focus;yes;951053;Chrome;112.0;Windows;10;undefined;undefined;1536 x 864;1536 x 864
H023;22;Vrouwelijk;Links;5;27;left;no;200;leftarrow;514;true;focus;yes;952338;Chrome;112.0;Windows;10;undefined;undefined;1536 x 864;1536 x 864
H023;22;Vrouwelijk;Links;5;28;left;no;200;leftarrow;504;true;focus;yes;953609;Chrome;112.0;Windows;10;undefined;undefined;1536 x 864;1536 x 864
H023;22;Vrouwelijk;Links;5;29;left;yes;200;undefined;null;true;focus;yes;955639;Chrome;112.0;Windows;10;undefined;undefined;1536 x 864;1536 x 864
H023;22;Vrouwelijk;Links;5;30;right;no;250;rightarrow;385;true;focus;yes;956807;Chrome;112.0;Windows;10;undefined;undefined;1536 x 864;1536 x 864
H023;22;Vrouwelijk;Links;5;31;right;yes;250;rightarrow;391;false;focus;yes;957963;Chrome;112.0;Windows;10;undefined;undefined;1536 x 864;1536 x 864
H023;22;Vrouwelijk;Links;5;32;right;no;200;rightarrow;412;true;focus;yes;959133;Chrome;112.0;Windows;10;undefined;undefined;1536 x 864;1536 x 864
H023;22;Vrouwelijk;Links;5;33;right;no;200;rightarrow;503;true;focus;yes;960392;Chrome;112.0;Windows;10;undefined;undefined;1536 x 864;1536 x 864
H023;22;Vrouwelijk;Links;5;34;left;no;200;leftarrow;426;true;focus;yes;961580;Chrome;112.0;Windows;10;undefined;undefined;1536 x 864;1536 x 864
H023;22;Vrouwelijk;Links;5;35;right;yes;200;undefined;null;true;focus;yes;963617;Chrome;112.0;Windows;10;undefined;undefined;1536 x 864;1536 x 864
H023;22;Vrouwelijk;Links;5;36;left;no;250;leftarrow;447;true;focus;yes;964847;Chrome;112.0;Windows;10;undefined;undefined;1536 x 864;1536 x 864
H023;22;Vrouwelijk;Links;5;37;right;no;250;rightarrow;470;true;focus;yes;966087;Chrome;112.0;Windows;10;undefined;undefined;1536 x 864;1536 x 864
H023;22;Vrouwelijk;Links;5;38;left;no;250;leftarrow;324;true;focus;yes;967175;Chrome;112.0;Windows;10;undefined;undefined;1536 x 864;1536 x 864
H023;22;Vrouwelijk;Links;5;39;right;no;250;rightarrow;417;true;focus;yes;968363;Chrome;112.0;Windows;10;undefined;undefined;1536 x 864;1536 x 864
H023;22;Vrouwelijk;Links;5;40;left;yes;250;leftarrow;386;false;focus;yes;969518;Chrome;112.0;Windows;10;undefined;undefined;1536 x 864;1536 x 864
H023;22;Vrouwelijk;Links;5;41;left;yes;200;undefined;null;true;focus;yes;971550;Chrome;112.0;Windows;10;undefined;undefined;1536 x 864;1536 x 864
H023;22;Vrouwelijk;Links;5;42;right;no;250;rightarrow;412;true;focus;yes;972743;Chrome;112.0;Windows;10;undefined;undefined;1536 x 864;1536 x 864
H023;22;Vrouwelijk;Links;5;43;left;no;250;leftarrow;433;true;focus;yes;973946;Chrome;112.0;Windows;10;undefined;undefined;1536 x 864;1536 x 864
H023;22;Vrouwelijk;Links;5;44;right;no;250;rightarrow;373;true;focus;yes;975086;Chrome;112.0;Windows;10;undefined;undefined;1536 x 864;1536 x 864
H023;22;Vrouwelijk;Links;5;45;right;no;250;rightarrow;468;true;focus;yes;976314;Chrome;112.0;Windows;10;undefined;undefined;1536 x 864;1536 x 864
H023;22;Vrouwelijk;Links;5;46;left;no;250;leftarrow;501;true;focus;yes;977596;Chrome;112.0;Windows;10;undefined;undefined;1536 x 864;1536 x 864
H023;22;Vrouwelijk;Links;5;47;right;yes;250;rightarrow;412;false;focus;yes;978774;Chrome;112.0;Windows;10;undefined;undefined;1536 x 864;1536 x 864
H023;22;Vrouwelijk;Links;5;48;left;no;200;leftarrow;294;true;focus;yes;979839;Chrome;112.0;Windows;10;undefined;undefined;1536 x 864;1536 x 864
H023;22;Vrouwelijk;Links;5;49;left;no;200;leftarrow;397;true;focus;yes;981007;Chrome;112.0;Windows;10;undefined;undefined;1536 x 864;1536 x 864
H023;22;Vrouwelijk;Links;5;50;right;yes;200;undefined;null;true;focus;yes;983043;Chrome;112.0;Windows;10;undefined;undefined;1536 x 864;1536 x 864
H023;22;Vrouwelijk;Links;5;51;left;no;250;leftarrow;477;true;focus;yes;984302;Chrome;112.0;Windows;10;undefined;undefined;1536 x 864;1536 x 864
H023;22;Vrouwelijk;Links;5;52;right;no;250;rightarrow;471;true;focus;yes;985546;Chrome;112.0;Windows;10;undefined;undefined;1536 x 864;1536 x 864
H023;22;Vrouwelijk;Links;5;53;right;no;250;rightarrow;477;true;focus;yes;986800;Chrome;112.0;Windows;10;undefined;undefined;1536 x 864;1536 x 864
H023;22;Vrouwelijk;Links;5;54;left;yes;250;undefined;null;true;focus;yes;988825;Chrome;112.0;Windows;10;undefined;undefined;1536 x 864;1536 x 864
H023;22;Vrouwelijk;Links;5;55;right;no;300;rightarrow;375;true;focus;yes;989980;Chrome;112.0;Windows;10;undefined;undefined;1536 x 864;1536 x 864
H023;22;Vrouwelijk;Links;5;56;left;no;300;leftarrow;497;true;focus;yes;991251;Chrome;112.0;Windows;10;undefined;undefined;1536 x 864;1536 x 864
H023;22;Vrouwelijk;Links;5;57;right;no;300;rightarrow;461;true;focus;yes;992482;Chrome;112.0;Windows;10;undefined;undefined;1536 x 864;1536 x 864
H023;22;Vrouwelijk;Links;5;58;right;no;300;rightarrow;415;true;focus;yes;993670;Chrome;112.0;Windows;10;undefined;undefined;1536 x 864;1536 x 864
H023;22;Vrouwelijk;Links;5;59;right;yes;300;rightarrow;404;false;focus;yes;994856;Chrome;112.0;Windows;10;undefined;undefined;1536 x 864;1536 x 864
H023;22;Vrouwelijk;Links;5;60;left;no;250;leftarrow;339;true;focus;yes;995975;Chrome;112.0;Windows;10;undefined;undefined;1536 x 864;1536 x 864
H023;22;Vrouwelijk;Links;5;61;left;yes;250;leftarrow;390;false;focus;yes;997141;Chrome;112.0;Windows;10;undefined;undefined;1536 x 864;1536 x 864
H023;22;Vrouwelijk;Links;5;62;right;no;200;rightarrow;441;true;focus;yes;998344;Chrome;112.0;Windows;10;undefined;undefined;1536 x 864;1536 x 864
H023;22;Vrouwelijk;Links;5;63;left;no;200;leftarrow;380;true;focus;yes;999497;Chrome;112.0;Windows;10;undefined;undefined;1536 x 864;1536 x 864
H023;22;Vrouwelijk;Links;5;64;left;no;200;leftarrow;417;true;focus;yes;1000683;Chrome;112.0;Windows;10;undefined;undefined;1536 x 864;1536 x 864
H023;22;Vrouwelijk;Links;5;65;right;no;200;rightarrow;559;true;focus;yes;1002025;Chrome;112.0;Windows;10;undefined;undefined;1536 x 864;1536 x 864
H023;22;Vrouwelijk;Links;5;66;right;no;200;rightarrow;480;true;focus;yes;1003263;Chrome;112.0;Windows;10;undefined;undefined;1536 x 864;1536 x 864
H023;22;Vrouwelijk;Links;5;67;left;yes;200;undefined;null;true;focus;yes;1005282;Chrome;112.0;Windows;10;undefined;undefined;1536 x 864;1536 x 864
H023;22;Vrouwelijk;Links;5;68;right;no;250;rightarrow;371;true;focus;yes;1006418;Chrome;112.0;Windows;10;undefined;undefined;1536 x 864;1536 x 864
H023;22;Vrouwelijk;Links;5;69;right;yes;250;undefined;null;true;focus;yes;1008453;Chrome;112.0;Windows;10;undefined;undefined;1536 x 864;1536 x 864
H023;22;Vrouwelijk;Links;5;70;left;no;300;leftarrow;436;true;focus;yes;1009649;Chrome;112.0;Windows;10;undefined;undefined;1536 x 864;1536 x 864
H023;22;Vrouwelijk;Links;5;71;left;no;300;leftarrow;529;true;focus;yes;1010942;Chrome;112.0;Windows;10;undefined;undefined;1536 x 864;1536 x 864
H023;22;Vrouwelijk;Links;5;72;left;no;300;leftarrow;409;true;focus;yes;1012120;Chrome;112.0;Windows;10;undefined;undefined;1536 x 864;1536 x 864
H023;22;Vrouwelijk;Links;5;73;left;no;300;leftarrow;471;true;focus;yes;1013349;Chrome;112.0;Windows;10;undefined;undefined;1536 x 864;1536 x 864
H023;22;Vrouwelijk;Links;5;74;left;yes;300;leftarrow;403;false;focus;yes;1014529;Chrome;112.0;Windows;10;undefined;undefined;1536 x 864;1536 x 864
H023;22;Vrouwelijk;Links;5;75;left;no;250;leftarrow;294;true;focus;yes;1015603;Chrome;112.0;Windows;10;undefined;undefined;1536 x 864;1536 x 864
H023;22;Vrouwelijk;Links;5;76;right;no;250;rightarrow;564;true;focus;yes;1016940;Chrome;112.0;Windows;10;undefined;undefined;1536 x 864;1536 x 864
H023;22;Vrouwelijk;Links;5;77;left;no;250;leftarrow;357;true;focus;yes;1018082;Chrome;112.0;Windows;10;undefined;undefined;1536 x 864;1536 x 864
H023;22;Vrouwelijk;Links;5;78;right;yes;250;undefined;null;true;focus;yes;1020096;Chrome;112.0;Windows;10;undefined;undefined;1536 x 864;1536 x 864
H023;22;Vrouwelijk;Links;5;79;right;no;300;rightarrow;423;true;focus;yes;1021296;Chrome;112.0;Windows;10;undefined;undefined;1536 x 864;1536 x 864
H023;22;Vrouwelijk;Links;5;80;right;no;300;rightarrow;446;true;focus;yes;1022518;Chrome;112.0;Windows;10;undefined;undefined;1536 x 864;1536 x 864
H023;22;Vrouwelijk;Links;5;81;right;no;300;rightarrow;469;true;focus;yes;1023758;Chrome;112.0;Windows;10;undefined;undefined;1536 x 864;1536 x 864
H023;22;Vrouwelijk;Links;5;82;left;no;300;leftarrow;510;true;focus;yes;1025047;Chrome;112.0;Windows;10;undefined;undefined;1536 x 864;1536 x 864
H023;22;Vrouwelijk;Links;5;83;right;no;300;rightarrow;536;true;focus;yes;1026357;Chrome;112.0;Windows;10;undefined;undefined;1536 x 864;1536 x 864
H023;22;Vrouwelijk;Links;5;84;right;yes;300;undefined;null;true;focus;yes;1028393;Chrome;112.0;Windows;10;undefined;undefined;1536 x 864;1536 x 864
H023;22;Vrouwelijk;Links;5;85;left;no;350;leftarrow;343;true;focus;yes;1029497;Chrome;112.0;Windows;10;undefined;undefined;1536 x 864;1536 x 864
H023;22;Vrouwelijk;Links;5;86;right;no;350;rightarrow;534;true;focus;yes;1030803;Chrome;112.0;Windows;10;undefined;undefined;1536 x 864;1536 x 864
H023;22;Vrouwelijk;Links;5;87;left;no;350;leftarrow;468;true;focus;yes;1032037;Chrome;112.0;Windows;10;undefined;undefined;1536 x 864;1536 x 864
H023;22;Vrouwelijk;Links;5;88;left;yes;350;leftarrow;427;false;focus;yes;1033243;Chrome;112.0;Windows;10;undefined;undefined;1536 x 864;1536 x 864
H023;22;Vrouwelijk;Links;5;89;left;yes;300;undefined;null;true;focus;yes;1035258;Chrome;112.0;Windows;10;undefined;undefined;1536 x 864;1536 x 864
H023;22;Vrouwelijk;Links;5;90;right;yes;350;rightarrow;399;false;focus;yes;1036432;Chrome;112.0;Windows;10;undefined;undefined;1536 x 864;1536 x 864
H023;22;Vrouwelijk;Links;5;91;left;no;300;leftarrow;381;true;focus;yes;1037596;Chrome;112.0;Windows;10;undefined;undefined;1536 x 864;1536 x 864
H023;22;Vrouwelijk;Links;5;92;right;no;300;rightarrow;417;true;focus;yes;1038782;Chrome;112.0;Windows;10;undefined;undefined;1536 x 864;1536 x 864
H023;22;Vrouwelijk;Links;5;93;right;no;300;rightarrow;492;true;focus;yes;1040056;Chrome;112.0;Windows;10;undefined;undefined;1536 x 864;1536 x 864
H023;22;Vrouwelijk;Links;5;94;left;no;300;leftarrow;480;true;focus;yes;1041295;Chrome;112.0;Windows;10;undefined;undefined;1536 x 864;1536 x 864
H023;22;Vrouwelijk;Links;5;95;right;no;300;rightarrow;563;true;focus;yes;1042642;Chrome;112.0;Windows;10;undefined;undefined;1536 x 864;1536 x 864
H023;22;Vrouwelijk;Links;5;96;left;no;300;leftarrow;374;true;focus;yes;1043786;Chrome;112.0;Windows;10;undefined;undefined;1536 x 864;1536 x 864
H023;22;Vrouwelijk;Links;5;97;left;yes;300;undefined;null;true;focus;yes;1045801;Chrome;112.0;Windows;10;undefined;undefined;1536 x 864;1536 x 864
H023;22;Vrouwelijk;Links;5;98;right;no;350;rightarrow;436;true;focus;yes;1047014;Chrome;112.0;Windows;10;undefined;undefined;1536 x 864;1536 x 864
H023;22;Vrouwelijk;Links;5;99;right;yes;350;rightarrow;557;false;focus;yes;1048334;Chrome;112.0;Windows;10;undefined;undefined;1536 x 864;1536 x 864
H023;22;Vrouwelijk;Links;5;100;right;no;300;rightarrow;619;true;focus;yes;1049728;Chrome;112.0;Windows;10;undefined;undefined;1536 x 864;1536 x 864
H023;22;Vrouwelijk;Links;5;101;left;no;300;leftarrow;403;true;focus;yes;1050896;Chrome;112.0;Windows;10;undefined;undefined;1536 x 864;1536 x 864
H023;22;Vrouwelijk;Links;5;102;left;no;300;leftarrow;506;true;focus;yes;1052165;Chrome;112.0;Windows;10;undefined;undefined;1536 x 864;1536 x 864
H023;22;Vrouwelijk;Links;5;103;right;no;300;rightarrow;460;true;focus;yes;1053385;Chrome;112.0;Windows;10;undefined;undefined;1536 x 864;1536 x 864
H023;22;Vrouwelijk;Links;5;104;left;no;300;leftarrow;541;true;focus;yes;1054682;Chrome;112.0;Windows;10;undefined;undefined;1536 x 864;1536 x 864
H023;22;Vrouwelijk;Links;5;105;left;no;300;leftarrow;405;true;focus;yes;1055861;Chrome;112.0;Windows;10;undefined;undefined;1536 x 864;1536 x 864
H023;22;Vrouwelijk;Links;5;106;left;no;300;leftarrow;503;true;focus;yes;1057127;Chrome;112.0;Windows;10;undefined;undefined;1536 x 864;1536 x 864
H023;22;Vrouwelijk;Links;5;107;left;no;300;leftarrow;707;true;focus;yes;1058612;Chrome;112.0;Windows;10;undefined;undefined;1536 x 864;1536 x 864
H023;22;Vrouwelijk;Links;5;108;right;no;300;rightarrow;671;true;focus;yes;1060042;Chrome;112.0;Windows;10;undefined;undefined;1536 x 864;1536 x 864
H023;22;Vrouwelijk;Links;5;109;right;no;300;rightarrow;501;true;focus;yes;1061321;Chrome;112.0;Windows;10;undefined;undefined;1536 x 864;1536 x 864
H023;22;Vrouwelijk;Links;5;110;left;yes;300;leftarrow;400;false;focus;yes;1062504;Chrome;112.0;Windows;10;undefined;undefined;1536 x 864;1536 x 864
H023;22;Vrouwelijk;Links;5;111;right;no;250;rightarrow;361;true;focus;yes;1063632;Chrome;112.0;Windows;10;undefined;undefined;1536 x 864;1536 x 864
H023;22;Vrouwelijk;Links;5;112;right;yes;250;rightarrow;451;false;focus;yes;1064853;Chrome;112.0;Windows;10;undefined;undefined;1536 x 864;1536 x 864
H023;22;Vrouwelijk;Links;5;113;right;no;200;rightarrow;442;true;focus;yes;1066076;Chrome;112.0;Windows;10;undefined;undefined;1536 x 864;1536 x 864
H023;22;Vrouwelijk;Links;5;114;right;no;200;rightarrow;454;true;focus;yes;1067304;Chrome;112.0;Windows;10;undefined;undefined;1536 x 864;1536 x 864
H023;22;Vrouwelijk;Links;5;115;left;yes;200;undefined;null;true;focus;yes;1069333;Chrome;112.0;Windows;10;undefined;undefined;1536 x 864;1536 x 864
H023;22;Vrouwelijk;Links;5;116;left;no;250;leftarrow;378;true;focus;yes;1070494;Chrome;112.0;Windows;10;undefined;undefined;1536 x 864;1536 x 864
H023;22;Vrouwelijk;Links;5;117;left;no;250;leftarrow;394;true;focus;yes;1071659;Chrome;112.0;Windows;10;undefined;undefined;1536 x 864;1536 x 864
H023;22;Vrouwelijk;Links;5;118;left;no;250;leftarrow;543;true;focus;yes;1072974;Chrome;112.0;Windows;10;undefined;undefined;1536 x 864;1536 x 864
H023;22;Vrouwelijk;Links;5;119;right;no;250;rightarrow;606;true;focus;yes;1074354;Chrome;112.0;Windows;10;undefined;undefined;1536 x 864;1536 x 864
H023;22;Vrouwelijk;Links;5;120;right;yes;250;undefined;null;true;focus;yes;1076367;Chrome;112.0;Windows;10;undefined;undefined;1536 x 864;1536 x 864
H023;22;Vrouwelijk;Links;5;121;right;no;300;rightarrow;489;true;focus;yes;1077634;Chrome;112.0;Windows;10;undefined;undefined;1536 x 864;1536 x 864
H023;22;Vrouwelijk;Links;5;122;left;no;300;leftarrow;449;true;focus;yes;1078860;Chrome;112.0;Windows;10;undefined;undefined;1536 x 864;1536 x 864
H023;22;Vrouwelijk;Links;5;123;right;no;300;rightarrow;578;true;focus;yes;1080222;Chrome;112.0;Windows;10;undefined;undefined;1536 x 864;1536 x 864
H023;22;Vrouwelijk;Links;5;124;left;yes;300;leftarrow;294;false;focus;yes;1081287;Chrome;112.0;Windows;10;undefined;undefined;1536 x 864;1536 x 864
H023;22;Vrouwelijk;Links;5;125;right;yes;250;undefined;null;true;focus;yes;1083313;Chrome;112.0;Windows;10;undefined;undefined;1536 x 864;1536 x 864
H023;22;Vrouwelijk;Links;5;126;left;no;300;leftarrow;307;true;focus;yes;1084399;Chrome;112.0;Windows;10;undefined;undefined;1536 x 864;1536 x 864
H023;22;Vrouwelijk;Links;5;127;left;no;300;leftarrow;472;true;focus;yes;1085646;Chrome;112.0;Windows;10;undefined;undefined;1536 x 864;1536 x 864
H023;22;Vrouwelijk;Links;5;128;right;no;300;rightarrow;569;true;focus;yes;1086993;Chrome;112.0;Windows;10;undefined;undefined;1536 x 864;1536 x 864
H023;22;Vrouwelijk;Links;6;1;left;no;300;leftarrow;389;true;focus;yes;1105770;Chrome;112.0;Windows;10;undefined;undefined;1536 x 864;1536 x 864
H023;22;Vrouwelijk;Links;6;2;right;yes;300;rightarrow;304;false;focus;yes;1106836;Chrome;112.0;Windows;10;undefined;undefined;1536 x 864;1536 x 864
H023;22;Vrouwelijk;Links;6;3;left;no;250;leftarrow;296;true;focus;yes;1107909;Chrome;112.0;Windows;10;undefined;undefined;1536 x 864;1536 x 864
H023;22;Vrouwelijk;Links;6;4;left;yes;250;leftarrow;388;false;focus;yes;1109068;Chrome;112.0;Windows;10;undefined;undefined;1536 x 864;1536 x 864
H023;22;Vrouwelijk;Links;6;5;left;no;200;leftarrow;344;true;focus;yes;1110189;Chrome;112.0;Windows;10;undefined;undefined;1536 x 864;1536 x 864
H023;22;Vrouwelijk;Links;6;6;right;no;200;rightarrow;398;true;focus;yes;1111360;Chrome;112.0;Windows;10;undefined;undefined;1536 x 864;1536 x 864
H023;22;Vrouwelijk;Links;6;7;right;no;200;rightarrow;436;true;focus;yes;1112580;Chrome;112.0;Windows;10;undefined;undefined;1536 x 864;1536 x 864
H023;22;Vrouwelijk;Links;6;8;right;no;200;rightarrow;383;true;focus;yes;1113743;Chrome;112.0;Windows;10;undefined;undefined;1536 x 864;1536 x 864
H023;22;Vrouwelijk;Links;6;9;right;no;200;rightarrow;350;true;focus;yes;1114876;Chrome;112.0;Windows;10;undefined;undefined;1536 x 864;1536 x 864
H023;22;Vrouwelijk;Links;6;10;right;no;200;rightarrow;329;true;focus;yes;1115989;Chrome;112.0;Windows;10;undefined;undefined;1536 x 864;1536 x 864
H023;22;Vrouwelijk;Links;6;11;left;no;200;leftarrow;459;true;focus;yes;1117219;Chrome;112.0;Windows;10;undefined;undefined;1536 x 864;1536 x 864
H023;22;Vrouwelijk;Links;6;12;right;no;200;rightarrow;402;true;focus;yes;1118379;Chrome;112.0;Windows;10;undefined;undefined;1536 x 864;1536 x 864
H023;22;Vrouwelijk;Links;6;13;left;no;200;leftarrow;302;true;focus;yes;1119459;Chrome;112.0;Windows;10;undefined;undefined;1536 x 864;1536 x 864
H023;22;Vrouwelijk;Links;6;14;left;no;200;leftarrow;457;true;focus;yes;1120698;Chrome;112.0;Windows;10;undefined;undefined;1536 x 864;1536 x 864
H023;22;Vrouwelijk;Links;6;15;left;yes;200;undefined;null;true;focus;yes;1122740;Chrome;112.0;Windows;10;undefined;undefined;1536 x 864;1536 x 864
H023;22;Vrouwelijk;Links;6;16;right;yes;250;rightarrow;299;false;focus;yes;1123805;Chrome;112.0;Windows;10;undefined;undefined;1536 x 864;1536 x 864
H023;22;Vrouwelijk;Links;6;17;left;yes;200;leftarrow;304;false;focus;yes;1124893;Chrome;112.0;Windows;10;undefined;undefined;1536 x 864;1536 x 864
H023;22;Vrouwelijk;Links;6;18;left;no;150;leftarrow;338;true;focus;yes;1126009;Chrome;112.0;Windows;10;undefined;undefined;1536 x 864;1536 x 864
H023;22;Vrouwelijk;Links;6;19;right;no;150;rightarrow;352;true;focus;yes;1127124;Chrome;112.0;Windows;10;undefined;undefined;1536 x 864;1536 x 864
H023;22;Vrouwelijk;Links;6;20;right;no;150;rightarrow;438;true;focus;yes;1128326;Chrome;112.0;Windows;10;undefined;undefined;1536 x 864;1536 x 864
H023;22;Vrouwelijk;Links;6;21;left;no;150;leftarrow;334;true;focus;yes;1129421;Chrome;112.0;Windows;10;undefined;undefined;1536 x 864;1536 x 864
H023;22;Vrouwelijk;Links;6;22;left;no;150;leftarrow;534;true;focus;yes;1130736;Chrome;112.0;Windows;10;undefined;undefined;1536 x 864;1536 x 864
H023;22;Vrouwelijk;Links;6;23;right;yes;150;undefined;null;true;focus;yes;1132762;Chrome;112.0;Windows;10;undefined;undefined;1536 x 864;1536 x 864
H023;22;Vrouwelijk;Links;6;24;right;no;200;rightarrow;452;true;focus;yes;1133986;Chrome;112.0;Windows;10;undefined;undefined;1536 x 864;1536 x 864
H023;22;Vrouwelijk;Links;6;25;right;no;200;rightarrow;445;true;focus;yes;1135196;Chrome;112.0;Windows;10;undefined;undefined;1536 x 864;1536 x 864
H023;22;Vrouwelijk;Links;6;26;right;no;200;rightarrow;426;true;focus;yes;1136392;Chrome;112.0;Windows;10;undefined;undefined;1536 x 864;1536 x 864
H023;22;Vrouwelijk;Links;6;27;left;no;200;leftarrow;488;true;focus;yes;1137653;Chrome;112.0;Windows;10;undefined;undefined;1536 x 864;1536 x 864
H023;22;Vrouwelijk;Links;6;28;left;no;200;leftarrow;444;true;focus;yes;1138876;Chrome;112.0;Windows;10;undefined;undefined;1536 x 864;1536 x 864
H023;22;Vrouwelijk;Links;6;29;right;no;200;rightarrow;440;true;focus;yes;1140088;Chrome;112.0;Windows;10;undefined;undefined;1536 x 864;1536 x 864
H023;22;Vrouwelijk;Links;6;30;left;yes;200;undefined;null;true;focus;yes;1142115;Chrome;112.0;Windows;10;undefined;undefined;1536 x 864;1536 x 864
H023;22;Vrouwelijk;Links;6;31;left;no;250;leftarrow;363;true;focus;yes;1143259;Chrome;112.0;Windows;10;undefined;undefined;1536 x 864;1536 x 864
H023;22;Vrouwelijk;Links;6;32;right;yes;250;rightarrow;429;false;focus;yes;1144458;Chrome;112.0;Windows;10;undefined;undefined;1536 x 864;1536 x 864
