participantID;age;gender;handedness;block_i;trial_i;stim;signal;SSD;response;rt;correct;focus;Fullscreen;time_elapsed;browser_name;browser_version;os_name;os_version;tablet;mobile;screen_resolution;window_resolution
H003;24;Vrouwelijk;Rechts;0;1;right;no;200;rightarrow;587;true;focus;yes;287870;Chrome;112.0;Windows;10;undefined;undefined;1536 x 864;1536 x 864
H003;24;Vrouwelijk;Rechts;0;2;left;no;200;leftarrow;354;true;focus;yes;289764;Chrome;112.0;Windows;10;undefined;undefined;1536 x 864;1536 x 864
H003;24;Vrouwelijk;Rechts;0;3;left;no;200;leftarrow;489;true;focus;yes;291785;Chrome;112.0;Windows;10;undefined;undefined;1536 x 864;1536 x 864
H003;24;Vrouwelijk;Rechts;0;4;left;yes;200;leftarrow;446;false;focus;yes;293792;Chrome;112.0;Windows;10;undefined;undefined;1536 x 864;1536 x 864
H003;24;Vrouwelijk;Rechts;0;5;right;yes;150;rightarrow;422;false;focus;yes;295734;Chrome;112.0;Windows;10;undefined;undefined;1536 x 864;1536 x 864
H003;24;Vrouwelijk;Rechts;0;6;right;no;100;rightarrow;436;true;focus;yes;297712;Chrome;112.0;Windows;10;undefined;undefined;1536 x 864;1536 x 864
H003;24;Vrouwelijk;Rechts;0;7;left;no;100;leftarrow;400;true;focus;yes;299676;Chrome;112.0;Windows;10;undefined;undefined;1536 x 864;1536 x 864
H003;24;Vrouwelijk;Rechts;0;8;right;no;100;rightarrow;521;true;focus;yes;301745;Chrome;112.0;Windows;10;undefined;undefined;1536 x 864;1536 x 864
H003;24;Vrouwelijk;Rechts;1;1;right;yes;100;rightarrow;426;false;focus;yes;323320;Chrome;112.0;Windows;10;undefined;undefined;1536 x 864;1536 x 864
H003;24;Vrouwelijk;Rechts;1;2;left;no;50;leftarrow;604;true;focus;yes;324688;Chrome;112.0;Windows;10;undefined;undefined;1536 x 864;1536 x 864
H003;24;Vrouwelijk;Rechts;1;3;right;no;50;rightarrow;456;true;focus;yes;325911;Chrome;112.0;Windows;10;undefined;undefined;1536 x 864;1536 x 864
H003;24;Vrouwelijk;Rechts;1;4;left;no;50;leftarrow;289;true;focus;yes;326965;Chrome;112.0;Windows;10;undefined;undefined;1536 x 864;1536 x 864
H003;24;Vrouwelijk;Rechts;1;5;left;yes;50;undefined;null;true;focus;yes;329024;Chrome;112.0;Windows;10;undefined;undefined;1536 x 864;1536 x 864
H003;24;Vrouwelijk;Rechts;1;6;right;no;100;rightarrow;482;true;focus;yes;330304;Chrome;112.0;Windows;10;undefined;undefined;1536 x 864;1536 x 864
H003;24;Vrouwelijk;Rechts;1;7;right;no;100;rightarrow;449;true;focus;yes;331532;Chrome;112.0;Windows;10;undefined;undefined;1536 x 864;1536 x 864
H003;24;Vrouwelijk;Rechts;1;8;left;no;100;leftarrow;344;true;focus;yes;332644;Chrome;112.0;Windows;10;undefined;undefined;1536 x 864;1536 x 864
H003;24;Vrouwelijk;Rechts;1;9;left;no;100;rightarrow;323;false;focus;yes;333746;Chrome;112.0;Windows;10;undefined;undefined;1536 x 864;1536 x 864
H003;24;Vrouwelijk;Rechts;1;10;right;no;100;rightarrow;311;true;focus;yes;334826;Chrome;112.0;Windows;10;undefined;undefined;1536 x 864;1536 x 864
H003;24;Vrouwelijk;Rechts;1;11;right;yes;100;undefined;null;true;focus;yes;336887;Chrome;112.0;Windows;10;undefined;undefined;1536 x 864;1536 x 864
H003;24;Vrouwelijk;Rechts;1;12;right;no;150;rightarrow;394;true;focus;yes;338064;Chrome;112.0;Windows;10;undefined;undefined;1536 x 864;1536 x 864
H003;24;Vrouwelijk;Rechts;1;13;left;no;150;leftarrow;357;true;focus;yes;339200;Chrome;112.0;Windows;10;undefined;undefined;1536 x 864;1536 x 864
H003;24;Vrouwelijk;Rechts;1;14;left;yes;150;leftarrow;375;false;focus;yes;340353;Chrome;112.0;Windows;10;undefined;undefined;1536 x 864;1536 x 864
H003;24;Vrouwelijk;Rechts;1;15;left;no;100;leftarrow;384;true;focus;yes;341506;Chrome;112.0;Windows;10;undefined;undefined;1536 x 864;1536 x 864
H003;24;Vrouwelijk;Rechts;1;16;right;no;100;rightarrow;236;true;focus;yes;342511;Chrome;112.0;Windows;10;undefined;undefined;1536 x 864;1536 x 864
H003;24;Vrouwelijk;Rechts;1;17;left;no;100;leftarrow;430;true;focus;yes;343722;Chrome;112.0;Windows;10;undefined;undefined;1536 x 864;1536 x 864
H003;24;Vrouwelijk;Rechts;1;18;right;no;100;rightarrow;326;true;focus;yes;344821;Chrome;112.0;Windows;10;undefined;undefined;1536 x 864;1536 x 864
H003;24;Vrouwelijk;Rechts;1;19;right;yes;100;leftarrow;292;false;focus;yes;345894;Chrome;112.0;Windows;10;undefined;undefined;1536 x 864;1536 x 864
H003;24;Vrouwelijk;Rechts;1;20;left;no;50;leftarrow;462;true;focus;yes;347139;Chrome;112.0;Windows;10;undefined;undefined;1536 x 864;1536 x 864
H003;24;Vrouwelijk;Rechts;1;21;right;no;50;rightarrow;324;true;focus;yes;348220;Chrome;112.0;Windows;10;undefined;undefined;1536 x 864;1536 x 864
H003;24;Vrouwelijk;Rechts;1;22;left;yes;50;leftarrow;319;false;focus;yes;349322;Chrome;112.0;Windows;10;undefined;undefined;1536 x 864;1536 x 864
H003;24;Vrouwelijk;Rechts;1;23;right;no;50;rightarrow;323;true;focus;yes;350420;Chrome;112.0;Windows;10;undefined;undefined;1536 x 864;1536 x 864
H003;24;Vrouwelijk;Rechts;1;24;left;no;50;leftarrow;567;true;focus;yes;351742;Chrome;112.0;Windows;10;undefined;undefined;1536 x 864;1536 x 864
H003;24;Vrouwelijk;Rechts;1;25;right;yes;50;rightarrow;313;false;focus;yes;352815;Chrome;112.0;Windows;10;undefined;undefined;1536 x 864;1536 x 864
H003;24;Vrouwelijk;Rechts;1;26;right;no;50;rightarrow;505;true;focus;yes;354085;Chrome;112.0;Windows;10;undefined;undefined;1536 x 864;1536 x 864
H003;24;Vrouwelijk;Rechts;1;27;right;no;50;rightarrow;400;true;focus;yes;355274;Chrome;112.0;Windows;10;undefined;undefined;1536 x 864;1536 x 864
H003;24;Vrouwelijk;Rechts;1;28;right;no;50;rightarrow;438;true;focus;yes;356482;Chrome;112.0;Windows;10;undefined;undefined;1536 x 864;1536 x 864
H003;24;Vrouwelijk;Rechts;1;29;left;no;50;leftarrow;401;true;focus;yes;357665;Chrome;112.0;Windows;10;undefined;undefined;1536 x 864;1536 x 864
H003;24;Vrouwelijk;Rechts;1;30;left;yes;50;undefined;null;true;focus;yes;359689;Chrome;112.0;Windows;10;undefined;undefined;1536 x 864;1536 x 864
H003;24;Vrouwelijk;Rechts;1;31;left;no;100;leftarrow;350;true;focus;yes;360808;Chrome;112.0;Windows;10;undefined;undefined;1536 x 864;1536 x 864
H003;24;Vrouwelijk;Rechts;1;32;left;no;100;leftarrow;327;true;focus;yes;361907;Chrome;112.0;Windows;10;undefined;undefined;1536 x 864;1536 x 864
H003;24;Vrouwelijk;Rechts;1;33;left;no;100;leftarrow;320;true;focus;yes;363007;Chrome;112.0;Windows;10;undefined;undefined;1536 x 864;1536 x 864
H003;24;Vrouwelijk;Rechts;1;34;left;yes;100;leftarrow;281;false;focus;yes;364047;Chrome;112.0;Windows;10;undefined;undefined;1536 x 864;1536 x 864
H003;24;Vrouwelijk;Rechts;1;35;right;no;50;rightarrow;350;true;focus;yes;365165;Chrome;112.0;Windows;10;undefined;undefined;1536 x 864;1536 x 864
H003;24;Vrouwelijk;Rechts;1;36;right;no;50;rightarrow;382;true;focus;yes;366319;Chrome;112.0;Windows;10;undefined;undefined;1536 x 864;1536 x 864
H003;24;Vrouwelijk;Rechts;1;37;left;no;50;leftarrow;454;true;focus;yes;367549;Chrome;112.0;Windows;10;undefined;undefined;1536 x 864;1536 x 864
H003;24;Vrouwelijk;Rechts;1;38;right;yes;50;rightarrow;334;false;focus;yes;368662;Chrome;112.0;Windows;10;undefined;undefined;1536 x 864;1536 x 864
H003;24;Vrouwelijk;Rechts;1;39;right;no;50;rightarrow;451;true;focus;yes;369890;Chrome;112.0;Windows;10;undefined;undefined;1536 x 864;1536 x 864
H003;24;Vrouwelijk;Rechts;1;40;left;no;50;leftarrow;342;true;focus;yes;371004;Chrome;112.0;Windows;10;undefined;undefined;1536 x 864;1536 x 864
H003;24;Vrouwelijk;Rechts;1;41;left;yes;50;undefined;null;true;focus;yes;373057;Chrome;112.0;Windows;10;undefined;undefined;1536 x 864;1536 x 864
H003;24;Vrouwelijk;Rechts;1;42;right;no;100;rightarrow;458;true;focus;yes;374292;Chrome;112.0;Windows;10;undefined;undefined;1536 x 864;1536 x 864
H003;24;Vrouwelijk;Rechts;1;43;left;no;100;leftarrow;397;true;focus;yes;375461;Chrome;112.0;Windows;10;undefined;undefined;1536 x 864;1536 x 864
H003;24;Vrouwelijk;Rechts;1;44;right;no;100;rightarrow;365;true;focus;yes;376584;Chrome;112.0;Windows;10;undefined;undefined;1536 x 864;1536 x 864
H003;24;Vrouwelijk;Rechts;1;45;left;no;100;leftarrow;347;true;focus;yes;377690;Chrome;112.0;Windows;10;undefined;undefined;1536 x 864;1536 x 864
H003;24;Vrouwelijk;Rechts;1;46;left;no;100;leftarrow;415;true;focus;yes;378878;Chrome;112.0;Windows;10;undefined;undefined;1536 x 864;1536 x 864
H003;24;Vrouwelijk;Rechts;1;47;right;no;100;rightarrow;463;true;focus;yes;380122;Chrome;112.0;Windows;10;undefined;undefined;1536 x 864;1536 x 864
H003;24;Vrouwelijk;Rechts;1;48;right;yes;100;undefined;null;true;focus;yes;382139;Chrome;112.0;Windows;10;undefined;undefined;1536 x 864;1536 x 864
H003;24;Vrouwelijk;Rechts;1;49;left;yes;150;leftarrow;347;false;focus;yes;383270;Chrome;112.0;Windows;10;undefined;undefined;1536 x 864;1536 x 864
H003;24;Vrouwelijk;Rechts;1;50;left;no;100;leftarrow;407;true;focus;yes;384439;Chrome;112.0;Windows;10;undefined;undefined;1536 x 864;1536 x 864
H003;24;Vrouwelijk;Rechts;1;51;right;yes;100;rightarrow;379;false;focus;yes;385580;Chrome;112.0;Windows;10;undefined;undefined;1536 x 864;1536 x 864
H003;24;Vrouwelijk;Rechts;1;52;right;no;50;rightarrow;472;true;focus;yes;386814;Chrome;112.0;Windows;10;undefined;undefined;1536 x 864;1536 x 864
H003;24;Vrouwelijk;Rechts;1;53;right;no;50;rightarrow;356;true;focus;yes;387936;Chrome;112.0;Windows;10;undefined;undefined;1536 x 864;1536 x 864
H003;24;Vrouwelijk;Rechts;1;54;right;no;50;rightarrow;358;true;focus;yes;389049;Chrome;112.0;Windows;10;undefined;undefined;1536 x 864;1536 x 864
H003;24;Vrouwelijk;Rechts;1;55;left;no;50;leftarrow;467;true;focus;yes;390299;Chrome;112.0;Windows;10;undefined;undefined;1536 x 864;1536 x 864
H003;24;Vrouwelijk;Rechts;1;56;left;no;50;leftarrow;414;true;focus;yes;391511;Chrome;112.0;Windows;10;undefined;undefined;1536 x 864;1536 x 864
H003;24;Vrouwelijk;Rechts;1;57;left;no;50;leftarrow;348;true;focus;yes;392614;Chrome;112.0;Windows;10;undefined;undefined;1536 x 864;1536 x 864
H003;24;Vrouwelijk;Rechts;1;58;left;yes;50;undefined;null;true;focus;yes;394636;Chrome;112.0;Windows;10;undefined;undefined;1536 x 864;1536 x 864
H003;24;Vrouwelijk;Rechts;1;59;left;no;100;leftarrow;328;true;focus;yes;395741;Chrome;112.0;Windows;10;undefined;undefined;1536 x 864;1536 x 864
H003;24;Vrouwelijk;Rechts;1;60;right;no;100;rightarrow;407;true;focus;yes;396916;Chrome;112.0;Windows;10;undefined;undefined;1536 x 864;1536 x 864
H003;24;Vrouwelijk;Rechts;1;61;right;yes;100;undefined;null;true;focus;yes;398936;Chrome;112.0;Windows;10;undefined;undefined;1536 x 864;1536 x 864
H003;24;Vrouwelijk;Rechts;1;67;right;no;100;rightarrow;324;true;focus;yes;405496;Chrome;112.0;Windows;10;undefined;undefined;1536 x 864;1536 x 864
H003;24;Vrouwelijk;Rechts;1;62;right;no;150;rightarrow;389;true;focus;yes;400107;Chrome;112.0;Windows;10;undefined;undefined;1536 x 864;1536 x 864
H003;24;Vrouwelijk;Rechts;1;63;left;no;150;leftarrow;345;true;focus;yes;401233;Chrome;112.0;Windows;10;undefined;undefined;1536 x 864;1536 x 864
H003;24;Vrouwelijk;Rechts;1;66;left;yes;150;leftarrow;330;false;focus;yes;404408;Chrome;112.0;Windows;10;undefined;undefined;1536 x 864;1536 x 864
H003;24;Vrouwelijk;Rechts;1;65;left;no;150;leftarrow;309;true;focus;yes;403322;Chrome;112.0;Windows;10;undefined;undefined;1536 x 864;1536 x 864
H003;24;Vrouwelijk;Rechts;1;64;right;no;150;rightarrow;431;true;focus;yes;402445;Chrome;112.0;Windows;10;undefined;undefined;1536 x 864;1536 x 864
H003;24;Vrouwelijk;Rechts;1;68;right;yes;100;undefined;null;true;focus;yes;407523;Chrome;112.0;Windows;10;undefined;undefined;1536 x 864;1536 x 864
H003;24;Vrouwelijk;Rechts;1;69;right;no;150;rightarrow;374;true;focus;yes;408693;Chrome;112.0;Windows;10;undefined;undefined;1536 x 864;1536 x 864
H003;24;Vrouwelijk;Rechts;1;70;left;no;150;leftarrow;385;true;focus;yes;409859;Chrome;112.0;Windows;10;undefined;undefined;1536 x 864;1536 x 864
H003;24;Vrouwelijk;Rechts;1;71;right;no;150;rightarrow;407;true;focus;yes;411036;Chrome;112.0;Windows;10;undefined;undefined;1536 x 864;1536 x 864
H003;24;Vrouwelijk;Rechts;1;72;left;no;150;leftarrow;305;true;focus;yes;412122;Chrome;112.0;Windows;10;undefined;undefined;1536 x 864;1536 x 864
H003;24;Vrouwelijk;Rechts;1;73;left;yes;150;undefined;null;true;focus;yes;414166;Chrome;112.0;Windows;10;undefined;undefined;1536 x 864;1536 x 864
H003;24;Vrouwelijk;Rechts;1;74;left;no;200;leftarrow;331;true;focus;yes;415278;Chrome;112.0;Windows;10;undefined;undefined;1536 x 864;1536 x 864
H003;24;Vrouwelijk;Rechts;1;75;right;no;200;rightarrow;399;true;focus;yes;416457;Chrome;112.0;Windows;10;undefined;undefined;1536 x 864;1536 x 864
H003;24;Vrouwelijk;Rechts;1;76;left;no;200;leftarrow;321;true;focus;yes;417550;Chrome;112.0;Windows;10;undefined;undefined;1536 x 864;1536 x 864
H003;24;Vrouwelijk;Rechts;1;77;left;no;200;leftarrow;474;true;focus;yes;418785;Chrome;112.0;Windows;10;undefined;undefined;1536 x 864;1536 x 864
H003;24;Vrouwelijk;Rechts;1;78;right;no;200;rightarrow;371;true;focus;yes;419928;Chrome;112.0;Windows;10;undefined;undefined;1536 x 864;1536 x 864
H003;24;Vrouwelijk;Rechts;1;79;right;yes;200;rightarrow;331;false;focus;yes;421048;Chrome;112.0;Windows;10;undefined;undefined;1536 x 864;1536 x 864
H003;24;Vrouwelijk;Rechts;1;80;right;no;150;rightarrow;432;true;focus;yes;422245;Chrome;112.0;Windows;10;undefined;undefined;1536 x 864;1536 x 864
H003;24;Vrouwelijk;Rechts;1;81;left;yes;150;leftarrow;439;false;focus;yes;423439;Chrome;112.0;Windows;10;undefined;undefined;1536 x 864;1536 x 864
H003;24;Vrouwelijk;Rechts;1;82;left;no;100;leftarrow;437;true;focus;yes;424656;Chrome;112.0;Windows;10;undefined;undefined;1536 x 864;1536 x 864
H003;24;Vrouwelijk;Rechts;1;83;right;no;100;rightarrow;306;true;focus;yes;425725;Chrome;112.0;Windows;10;undefined;undefined;1536 x 864;1536 x 864
H003;24;Vrouwelijk;Rechts;1;84;left;no;100;leftarrow;352;true;focus;yes;426879;Chrome;112.0;Windows;10;undefined;undefined;1536 x 864;1536 x 864
H003;24;Vrouwelijk;Rechts;1;85;right;no;100;rightarrow;417;true;focus;yes;428051;Chrome;112.0;Windows;10;undefined;undefined;1536 x 864;1536 x 864
H003;24;Vrouwelijk;Rechts;1;86;left;no;100;leftarrow;266;true;focus;yes;429075;Chrome;112.0;Windows;10;undefined;undefined;1536 x 864;1536 x 864
H003;24;Vrouwelijk;Rechts;1;87;right;no;100;rightarrow;292;true;focus;yes;430142;Chrome;112.0;Windows;10;undefined;undefined;1536 x 864;1536 x 864
H003;24;Vrouwelijk;Rechts;1;88;right;yes;100;undefined;null;true;focus;yes;432188;Chrome;112.0;Windows;10;undefined;undefined;1536 x 864;1536 x 864
H003;24;Vrouwelijk;Rechts;1;89;left;no;150;leftarrow;306;true;focus;yes;433294;Chrome;112.0;Windows;10;undefined;undefined;1536 x 864;1536 x 864
H003;24;Vrouwelijk;Rechts;1;90;left;no;150;leftarrow;309;true;focus;yes;434375;Chrome;112.0;Windows;10;undefined;undefined;1536 x 864;1536 x 864
H003;24;Vrouwelijk;Rechts;1;91;left;no;150;leftarrow;320;true;focus;yes;435473;Chrome;112.0;Windows;10;undefined;undefined;1536 x 864;1536 x 864
H003;24;Vrouwelijk;Rechts;1;92;right;yes;150;rightarrow;390;false;focus;yes;436645;Chrome;112.0;Windows;10;undefined;undefined;1536 x 864;1536 x 864
H003;24;Vrouwelijk;Rechts;1;93;right;no;100;rightarrow;403;true;focus;yes;437824;Chrome;112.0;Windows;10;undefined;undefined;1536 x 864;1536 x 864
H003;24;Vrouwelijk;Rechts;1;94;right;no;100;rightarrow;404;true;focus;yes;439018;Chrome;112.0;Windows;10;undefined;undefined;1536 x 864;1536 x 864
H003;24;Vrouwelijk;Rechts;1;95;right;no;100;rightarrow;362;true;focus;yes;440155;Chrome;112.0;Windows;10;undefined;undefined;1536 x 864;1536 x 864
H003;24;Vrouwelijk;Rechts;1;96;left;yes;100;leftarrow;325;false;focus;yes;441256;Chrome;112.0;Windows;10;undefined;undefined;1536 x 864;1536 x 864
H003;24;Vrouwelijk;Rechts;1;97;right;yes;50;rightarrow;304;false;focus;yes;442336;Chrome;112.0;Windows;10;undefined;undefined;1536 x 864;1536 x 864
H003;24;Vrouwelijk;Rechts;1;98;right;no;50;rightarrow;417;true;focus;yes;443536;Chrome;112.0;Windows;10;undefined;undefined;1536 x 864;1536 x 864
H003;24;Vrouwelijk;Rechts;1;99;left;yes;50;undefined;null;true;focus;yes;445606;Chrome;112.0;Windows;10;undefined;undefined;1536 x 864;1536 x 864
H003;24;Vrouwelijk;Rechts;1;100;left;no;100;leftarrow;448;true;focus;yes;446844;Chrome;112.0;Windows;10;undefined;undefined;1536 x 864;1536 x 864
H003;24;Vrouwelijk;Rechts;1;101;right;no;100;rightarrow;346;true;focus;yes;447967;Chrome;112.0;Windows;10;undefined;undefined;1536 x 864;1536 x 864
H003;24;Vrouwelijk;Rechts;1;102;left;no;100;leftarrow;309;true;focus;yes;449047;Chrome;112.0;Windows;10;undefined;undefined;1536 x 864;1536 x 864
H003;24;Vrouwelijk;Rechts;1;103;right;no;100;rightarrow;434;true;focus;yes;450256;Chrome;112.0;Windows;10;undefined;undefined;1536 x 864;1536 x 864
H003;24;Vrouwelijk;Rechts;1;104;left;no;100;leftarrow;300;true;focus;yes;451333;Chrome;112.0;Windows;10;undefined;undefined;1536 x 864;1536 x 864
H003;24;Vrouwelijk;Rechts;1;105;right;yes;100;rightarrow;342;false;focus;yes;452445;Chrome;112.0;Windows;10;undefined;undefined;1536 x 864;1536 x 864
H003;24;Vrouwelijk;Rechts;1;106;right;no;50;rightarrow;457;true;focus;yes;453675;Chrome;112.0;Windows;10;undefined;undefined;1536 x 864;1536 x 864
H003;24;Vrouwelijk;Rechts;1;107;left;no;50;leftarrow;367;true;focus;yes;454810;Chrome;112.0;Windows;10;undefined;undefined;1536 x 864;1536 x 864
H003;24;Vrouwelijk;Rechts;1;108;right;no;50;rightarrow;373;true;focus;yes;455950;Chrome;112.0;Windows;10;undefined;undefined;1536 x 864;1536 x 864
H003;24;Vrouwelijk;Rechts;1;109;left;no;50;leftarrow;299;true;focus;yes;457025;Chrome;112.0;Windows;10;undefined;undefined;1536 x 864;1536 x 864
H003;24;Vrouwelijk;Rechts;1;110;left;yes;50;undefined;null;true;focus;yes;459102;Chrome;112.0;Windows;10;undefined;undefined;1536 x 864;1536 x 864
H003;24;Vrouwelijk;Rechts;1;111;left;no;100;leftarrow;424;true;focus;yes;460321;Chrome;112.0;Windows;10;undefined;undefined;1536 x 864;1536 x 864
H003;24;Vrouwelijk;Rechts;1;112;right;no;100;rightarrow;463;true;focus;yes;461559;Chrome;112.0;Windows;10;undefined;undefined;1536 x 864;1536 x 864
H003;24;Vrouwelijk;Rechts;1;113;left;no;100;leftarrow;166;true;focus;yes;462506;Chrome;112.0;Windows;10;undefined;undefined;1536 x 864;1536 x 864
H003;24;Vrouwelijk;Rechts;1;114;left;yes;100;leftarrow;367;false;focus;yes;463641;Chrome;112.0;Windows;10;undefined;undefined;1536 x 864;1536 x 864
H003;24;Vrouwelijk;Rechts;1;115;right;no;50;rightarrow;310;true;focus;yes;464733;Chrome;112.0;Windows;10;undefined;undefined;1536 x 864;1536 x 864
H003;24;Vrouwelijk;Rechts;1;116;right;yes;50;undefined;null;true;focus;yes;466787;Chrome;112.0;Windows;10;undefined;undefined;1536 x 864;1536 x 864
H003;24;Vrouwelijk;Rechts;1;117;right;no;100;rightarrow;420;true;focus;yes;468001;Chrome;112.0;Windows;10;undefined;undefined;1536 x 864;1536 x 864
H003;24;Vrouwelijk;Rechts;1;118;left;no;100;leftarrow;352;true;focus;yes;469107;Chrome;112.0;Windows;10;undefined;undefined;1536 x 864;1536 x 864
H003;24;Vrouwelijk;Rechts;1;119;left;no;100;leftarrow;351;true;focus;yes;470225;Chrome;112.0;Windows;10;undefined;undefined;1536 x 864;1536 x 864
H003;24;Vrouwelijk;Rechts;1;120;right;no;100;rightarrow;332;true;focus;yes;471316;Chrome;112.0;Windows;10;undefined;undefined;1536 x 864;1536 x 864
H003;24;Vrouwelijk;Rechts;1;121;right;no;100;rightarrow;579;true;focus;yes;472664;Chrome;112.0;Windows;10;undefined;undefined;1536 x 864;1536 x 864
H003;24;Vrouwelijk;Rechts;1;122;right;no;100;rightarrow;377;true;focus;yes;473836;Chrome;112.0;Windows;10;undefined;undefined;1536 x 864;1536 x 864
H003;24;Vrouwelijk;Rechts;1;123;left;no;100;leftarrow;423;true;focus;yes;475032;Chrome;112.0;Windows;10;undefined;undefined;1536 x 864;1536 x 864
H003;24;Vrouwelijk;Rechts;1;124;left;no;100;leftarrow;356;true;focus;yes;476166;Chrome;112.0;Windows;10;undefined;undefined;1536 x 864;1536 x 864
H003;24;Vrouwelijk;Rechts;1;125;left;no;100;leftarrow;331;true;focus;yes;477274;Chrome;112.0;Windows;10;undefined;undefined;1536 x 864;1536 x 864
H003;24;Vrouwelijk;Rechts;1;126;left;yes;100;leftarrow;399;false;focus;yes;478447;Chrome;112.0;Windows;10;undefined;undefined;1536 x 864;1536 x 864
H003;24;Vrouwelijk;Rechts;1;127;right;no;50;rightarrow;319;true;focus;yes;479562;Chrome;112.0;Windows;10;undefined;undefined;1536 x 864;1536 x 864
H003;24;Vrouwelijk;Rechts;1;128;right;yes;50;undefined;null;true;focus;yes;481605;Chrome;112.0;Windows;10;undefined;undefined;1536 x 864;1536 x 864
H003;24;Vrouwelijk;Rechts;2;1;right;yes;100;undefined;null;true;focus;yes;506306;Chrome;112.0;Windows;10;undefined;undefined;1536 x 864;1536 x 864
H003;24;Vrouwelijk;Rechts;2;2;right;no;150;rightarrow;444;true;focus;yes;507528;Chrome;112.0;Windows;10;undefined;undefined;1536 x 864;1536 x 864
H003;24;Vrouwelijk;Rechts;2;3;left;yes;150;leftarrow;315;false;focus;yes;508611;Chrome;112.0;Windows;10;undefined;undefined;1536 x 864;1536 x 864
H003;24;Vrouwelijk;Rechts;2;4;right;no;100;rightarrow;313;true;focus;yes;509699;Chrome;112.0;Windows;10;undefined;undefined;1536 x 864;1536 x 864
H003;24;Vrouwelijk;Rechts;2;5;left;no;100;leftarrow;460;true;focus;yes;510933;Chrome;112.0;Windows;10;undefined;undefined;1536 x 864;1536 x 864
H003;24;Vrouwelijk;Rechts;2;6;right;no;100;rightarrow;309;true;focus;yes;512005;Chrome;112.0;Windows;10;undefined;undefined;1536 x 864;1536 x 864
H003;24;Vrouwelijk;Rechts;2;7;left;no;100;leftarrow;343;true;focus;yes;513128;Chrome;112.0;Windows;10;undefined;undefined;1536 x 864;1536 x 864
H003;24;Vrouwelijk;Rechts;2;8;left;no;100;leftarrow;394;true;focus;yes;514298;Chrome;112.0;Windows;10;undefined;undefined;1536 x 864;1536 x 864
H003;24;Vrouwelijk;Rechts;2;9;right;yes;100;rightarrow;321;false;focus;yes;515390;Chrome;112.0;Windows;10;undefined;undefined;1536 x 864;1536 x 864
H003;24;Vrouwelijk;Rechts;2;10;left;no;50;leftarrow;275;true;focus;yes;516435;Chrome;112.0;Windows;10;undefined;undefined;1536 x 864;1536 x 864
H003;24;Vrouwelijk;Rechts;2;11;right;no;50;rightarrow;348;true;focus;yes;517559;Chrome;112.0;Windows;10;undefined;undefined;1536 x 864;1536 x 864
H003;24;Vrouwelijk;Rechts;2;12;left;no;50;leftarrow;320;true;focus;yes;518650;Chrome;112.0;Windows;10;undefined;undefined;1536 x 864;1536 x 864
H003;24;Vrouwelijk;Rechts;2;13;left;yes;50;leftarrow;355;false;focus;yes;519788;Chrome;112.0;Windows;10;undefined;undefined;1536 x 864;1536 x 864
H003;24;Vrouwelijk;Rechts;2;14;right;no;50;rightarrow;357;true;focus;yes;520925;Chrome;112.0;Windows;10;undefined;undefined;1536 x 864;1536 x 864
H003;24;Vrouwelijk;Rechts;2;15;left;no;50;leftarrow;306;true;focus;yes;522011;Chrome;112.0;Windows;10;undefined;undefined;1536 x 864;1536 x 864
H003;24;Vrouwelijk;Rechts;2;16;right;no;50;rightarrow;415;true;focus;yes;522990;Chrome;112.0;Windows;10;undefined;undefined;1536 x 864;1536 x 864
H003;24;Vrouwelijk;Rechts;2;17;left;no;50;leftarrow;294;true;focus;yes;524081;Chrome;112.0;Windows;10;undefined;undefined;1536 x 864;1536 x 864
H003;24;Vrouwelijk;Rechts;2;18;right;yes;50;rightarrow;340;false;focus;yes;525200;Chrome;112.0;Windows;10;undefined;undefined;1536 x 864;1536 x 864
H003;24;Vrouwelijk;Rechts;2;19;left;no;50;leftarrow;297;true;focus;yes;526275;Chrome;112.0;Windows;10;undefined;undefined;1536 x 864;1536 x 864
H003;24;Vrouwelijk;Rechts;2;20;left;yes;50;undefined;null;true;focus;yes;528305;Chrome;112.0;Windows;10;undefined;undefined;1536 x 864;1536 x 864
H003;24;Vrouwelijk;Rechts;2;21;right;no;100;rightarrow;468;true;focus;yes;529555;Chrome;112.0;Windows;10;undefined;undefined;1536 x 864;1536 x 864
H003;24;Vrouwelijk;Rechts;2;22;right;no;100;rightarrow;333;true;focus;yes;530659;Chrome;112.0;Windows;10;undefined;undefined;1536 x 864;1536 x 864
H003;24;Vrouwelijk;Rechts;2;23;right;no;100;rightarrow;345;true;focus;yes;531773;Chrome;112.0;Windows;10;undefined;undefined;1536 x 864;1536 x 864
H003;24;Vrouwelijk;Rechts;2;24;left;no;100;leftarrow;455;true;focus;yes;533002;Chrome;112.0;Windows;10;undefined;undefined;1536 x 864;1536 x 864
H003;24;Vrouwelijk;Rechts;2;25;right;no;100;leftarrow;323;false;focus;yes;534085;Chrome;112.0;Windows;10;undefined;undefined;1536 x 864;1536 x 864
H003;24;Vrouwelijk;Rechts;2;26;left;no;100;leftarrow;350;true;focus;yes;535229;Chrome;112.0;Windows;10;undefined;undefined;1536 x 864;1536 x 864
H003;24;Vrouwelijk;Rechts;2;27;left;no;100;leftarrow;378;true;focus;yes;536372;Chrome;112.0;Windows;10;undefined;undefined;1536 x 864;1536 x 864
H003;24;Vrouwelijk;Rechts;2;28;right;yes;100;rightarrow;469;false;focus;yes;537616;Chrome;112.0;Windows;10;undefined;undefined;1536 x 864;1536 x 864
H003;24;Vrouwelijk;Rechts;2;29;right;no;50;rightarrow;486;true;focus;yes;538872;Chrome;112.0;Windows;10;undefined;undefined;1536 x 864;1536 x 864
H003;24;Vrouwelijk;Rechts;2;30;right;no;50;rightarrow;407;true;focus;yes;540045;Chrome;112.0;Windows;10;undefined;undefined;1536 x 864;1536 x 864
H003;24;Vrouwelijk;Rechts;2;31;left;yes;50;leftarrow;427;false;focus;yes;541273;Chrome;112.0;Windows;10;undefined;undefined;1536 x 864;1536 x 864
H003;24;Vrouwelijk;Rechts;2;32;left;no;50;leftarrow;360;true;focus;yes;542404;Chrome;112.0;Windows;10;undefined;undefined;1536 x 864;1536 x 864
H003;24;Vrouwelijk;Rechts;2;33;right;yes;50;undefined;null;true;focus;yes;544437;Chrome;112.0;Windows;10;undefined;undefined;1536 x 864;1536 x 864
H003;24;Vrouwelijk;Rechts;2;34;left;no;100;leftarrow;336;true;focus;yes;545554;Chrome;112.0;Windows;10;undefined;undefined;1536 x 864;1536 x 864
H003;24;Vrouwelijk;Rechts;2;35;left;no;100;leftarrow;346;true;focus;yes;546672;Chrome;112.0;Windows;10;undefined;undefined;1536 x 864;1536 x 864
H003;24;Vrouwelijk;Rechts;2;36;right;no;100;rightarrow;402;true;focus;yes;547847;Chrome;112.0;Windows;10;undefined;undefined;1536 x 864;1536 x 864
H003;24;Vrouwelijk;Rechts;2;37;right;no;100;rightarrow;428;true;focus;yes;549035;Chrome;112.0;Windows;10;undefined;undefined;1536 x 864;1536 x 864
H003;24;Vrouwelijk;Rechts;2;38;left;no;100;leftarrow;403;true;focus;yes;550208;Chrome;112.0;Windows;10;undefined;undefined;1536 x 864;1536 x 864
H003;24;Vrouwelijk;Rechts;2;39;left;yes;100;undefined;null;true;focus;yes;552273;Chrome;112.0;Windows;10;undefined;undefined;1536 x 864;1536 x 864
H003;24;Vrouwelijk;Rechts;2;40;right;no;150;rightarrow;409;true;focus;yes;553462;Chrome;112.0;Windows;10;undefined;undefined;1536 x 864;1536 x 864
H003;24;Vrouwelijk;Rechts;2;41;right;yes;150;undefined;null;true;focus;yes;555485;Chrome;112.0;Windows;10;undefined;undefined;1536 x 864;1536 x 864
H003;24;Vrouwelijk;Rechts;2;42;left;no;200;leftarrow;386;true;focus;yes;556650;Chrome;112.0;Windows;10;undefined;undefined;1536 x 864;1536 x 864
H003;24;Vrouwelijk;Rechts;2;43;right;no;200;rightarrow;465;true;focus;yes;557895;Chrome;112.0;Windows;10;undefined;undefined;1536 x 864;1536 x 864
H003;24;Vrouwelijk;Rechts;2;44;left;no;200;leftarrow;312;true;focus;yes;558986;Chrome;112.0;Windows;10;undefined;undefined;1536 x 864;1536 x 864
H003;24;Vrouwelijk;Rechts;2;45;right;no;200;rightarrow;376;true;focus;yes;560133;Chrome;112.0;Windows;10;undefined;undefined;1536 x 864;1536 x 864
H003;24;Vrouwelijk;Rechts;2;46;left;yes;200;leftarrow;393;false;focus;yes;561299;Chrome;112.0;Windows;10;undefined;undefined;1536 x 864;1536 x 864
H003;24;Vrouwelijk;Rechts;2;47;right;no;150;rightarrow;354;true;focus;yes;562424;Chrome;112.0;Windows;10;undefined;undefined;1536 x 864;1536 x 864
H003;24;Vrouwelijk;Rechts;2;48;left;no;150;leftarrow;325;true;focus;yes;563532;Chrome;112.0;Windows;10;undefined;undefined;1536 x 864;1536 x 864
H003;24;Vrouwelijk;Rechts;2;49;left;no;150;leftarrow;499;true;focus;yes;564808;Chrome;112.0;Windows;10;undefined;undefined;1536 x 864;1536 x 864
H003;24;Vrouwelijk;Rechts;2;50;left;yes;150;leftarrow;355;false;focus;yes;565941;Chrome;112.0;Windows;10;undefined;undefined;1536 x 864;1536 x 864
H003;24;Vrouwelijk;Rechts;2;51;left;no;100;leftarrow;336;true;focus;yes;567059;Chrome;112.0;Windows;10;undefined;undefined;1536 x 864;1536 x 864
H003;24;Vrouwelijk;Rechts;2;52;right;no;100;rightarrow;371;true;focus;yes;568211;Chrome;112.0;Windows;10;undefined;undefined;1536 x 864;1536 x 864
H003;24;Vrouwelijk;Rechts;2;53;right;yes;100;undefined;null;true;focus;yes;570229;Chrome;112.0;Windows;10;undefined;undefined;1536 x 864;1536 x 864
H003;24;Vrouwelijk;Rechts;2;54;right;no;150;rightarrow;372;true;focus;yes;571396;Chrome;112.0;Windows;10;undefined;undefined;1536 x 864;1536 x 864
H003;24;Vrouwelijk;Rechts;2;55;right;no;150;rightarrow;304;true;focus;yes;572478;Chrome;112.0;Windows;10;undefined;undefined;1536 x 864;1536 x 864
H003;24;Vrouwelijk;Rechts;2;56;left;no;150;leftarrow;384;true;focus;yes;573632;Chrome;112.0;Windows;10;undefined;undefined;1536 x 864;1536 x 864
H003;24;Vrouwelijk;Rechts;2;57;left;no;150;leftarrow;425;true;focus;yes;574823;Chrome;112.0;Windows;10;undefined;undefined;1536 x 864;1536 x 864
H003;24;Vrouwelijk;Rechts;2;58;right;no;150;rightarrow;430;true;focus;yes;576027;Chrome;112.0;Windows;10;undefined;undefined;1536 x 864;1536 x 864
H003;24;Vrouwelijk;Rechts;2;59;right;no;150;rightarrow;464;true;focus;yes;577284;Chrome;112.0;Windows;10;undefined;undefined;1536 x 864;1536 x 864
H003;24;Vrouwelijk;Rechts;2;60;right;no;150;rightarrow;393;true;focus;yes;578460;Chrome;112.0;Windows;10;undefined;undefined;1536 x 864;1536 x 864
H003;24;Vrouwelijk;Rechts;2;61;right;yes;150;undefined;null;true;focus;yes;580493;Chrome;112.0;Windows;10;undefined;undefined;1536 x 864;1536 x 864
H003;24;Vrouwelijk;Rechts;2;62;left;no;200;leftarrow;387;true;focus;yes;581643;Chrome;112.0;Windows;10;undefined;undefined;1536 x 864;1536 x 864
H003;24;Vrouwelijk;Rechts;2;63;left;no;200;leftarrow;177;true;focus;yes;582599;Chrome;112.0;Windows;10;undefined;undefined;1536 x 864;1536 x 864
H003;24;Vrouwelijk;Rechts;2;64;left;yes;200;leftarrow;318;false;focus;yes;583691;Chrome;112.0;Windows;10;undefined;undefined;1536 x 864;1536 x 864
H003;24;Vrouwelijk;Rechts;2;65;left;no;150;leftarrow;410;true;focus;yes;584870;Chrome;112.0;Windows;10;undefined;undefined;1536 x 864;1536 x 864
H003;24;Vrouwelijk;Rechts;2;66;left;yes;150;leftarrow;378;false;focus;yes;586021;Chrome;112.0;Windows;10;undefined;undefined;1536 x 864;1536 x 864
H003;24;Vrouwelijk;Rechts;2;67;right;no;100;rightarrow;432;true;focus;yes;587221;Chrome;112.0;Windows;10;undefined;undefined;1536 x 864;1536 x 864
H003;24;Vrouwelijk;Rechts;2;68;right;yes;100;rightarrow;473;false;focus;yes;588485;Chrome;112.0;Windows;10;undefined;undefined;1536 x 864;1536 x 864
H003;24;Vrouwelijk;Rechts;2;69;right;no;50;rightarrow;378;true;focus;yes;589632;Chrome;112.0;Windows;10;undefined;undefined;1536 x 864;1536 x 864
H003;24;Vrouwelijk;Rechts;2;70;left;no;50;leftarrow;355;true;focus;yes;590758;Chrome;112.0;Windows;10;undefined;undefined;1536 x 864;1536 x 864
H003;24;Vrouwelijk;Rechts;2;71;left;no;50;leftarrow;366;true;focus;yes;591905;Chrome;112.0;Windows;10;undefined;undefined;1536 x 864;1536 x 864
H003;24;Vrouwelijk;Rechts;2;72;right;no;50;rightarrow;463;true;focus;yes;593145;Chrome;112.0;Windows;10;undefined;undefined;1536 x 864;1536 x 864
H003;24;Vrouwelijk;Rechts;2;73;right;yes;50;undefined;null;true;focus;yes;595206;Chrome;112.0;Windows;10;undefined;undefined;1536 x 864;1536 x 864
H003;24;Vrouwelijk;Rechts;2;74;right;no;100;rightarrow;533;true;focus;yes;596536;Chrome;112.0;Windows;10;undefined;undefined;1536 x 864;1536 x 864
H003;24;Vrouwelijk;Rechts;2;75;left;no;100;leftarrow;273;true;focus;yes;597583;Chrome;112.0;Windows;10;undefined;undefined;1536 x 864;1536 x 864
H003;24;Vrouwelijk;Rechts;2;76;left;no;100;leftarrow;397;true;focus;yes;598761;Chrome;112.0;Windows;10;undefined;undefined;1536 x 864;1536 x 864
H003;24;Vrouwelijk;Rechts;2;77;left;yes;100;leftarrow;329;false;focus;yes;599874;Chrome;112.0;Windows;10;undefined;undefined;1536 x 864;1536 x 864
H003;24;Vrouwelijk;Rechts;2;78;left;no;50;leftarrow;331;true;focus;yes;600983;Chrome;112.0;Windows;10;undefined;undefined;1536 x 864;1536 x 864
H003;24;Vrouwelijk;Rechts;2;79;right;no;50;rightarrow;411;true;focus;yes;602162;Chrome;112.0;Windows;10;undefined;undefined;1536 x 864;1536 x 864
H003;24;Vrouwelijk;Rechts;2;80;right;no;50;rightarrow;369;true;focus;yes;603298;Chrome;112.0;Windows;10;undefined;undefined;1536 x 864;1536 x 864
H003;24;Vrouwelijk;Rechts;2;81;left;yes;50;leftarrow;466;false;focus;yes;604543;Chrome;112.0;Windows;10;undefined;undefined;1536 x 864;1536 x 864
H003;24;Vrouwelijk;Rechts;2;82;left;no;50;leftarrow;454;true;focus;yes;605775;Chrome;112.0;Windows;10;undefined;undefined;1536 x 864;1536 x 864
H003;24;Vrouwelijk;Rechts;2;83;right;yes;50;undefined;null;true;focus;yes;607801;Chrome;112.0;Windows;10;undefined;undefined;1536 x 864;1536 x 864
H003;24;Vrouwelijk;Rechts;2;84;left;no;100;leftarrow;354;true;focus;yes;608948;Chrome;112.0;Windows;10;undefined;undefined;1536 x 864;1536 x 864
H003;24;Vrouwelijk;Rechts;2;85;right;no;100;rightarrow;470;true;focus;yes;610183;Chrome;112.0;Windows;10;undefined;undefined;1536 x 864;1536 x 864
H003;24;Vrouwelijk;Rechts;2;86;left;no;100;leftarrow;306;true;focus;yes;611263;Chrome;112.0;Windows;10;undefined;undefined;1536 x 864;1536 x 864
H003;24;Vrouwelijk;Rechts;2;87;right;no;100;rightarrow;431;true;focus;yes;612474;Chrome;112.0;Windows;10;undefined;undefined;1536 x 864;1536 x 864
H003;24;Vrouwelijk;Rechts;2;88;right;no;100;rightarrow;450;true;focus;yes;613708;Chrome;112.0;Windows;10;undefined;undefined;1536 x 864;1536 x 864
H003;24;Vrouwelijk;Rechts;2;89;left;yes;100;leftarrow;386;false;focus;yes;614863;Chrome;112.0;Windows;10;undefined;undefined;1536 x 864;1536 x 864
H003;24;Vrouwelijk;Rechts;2;90;right;no;50;rightarrow;349;true;focus;yes;615980;Chrome;112.0;Windows;10;undefined;undefined;1536 x 864;1536 x 864
H003;24;Vrouwelijk;Rechts;2;91;right;no;50;rightarrow;479;true;focus;yes;617241;Chrome;112.0;Windows;10;undefined;undefined;1536 x 864;1536 x 864
H003;24;Vrouwelijk;Rechts;2;92;right;no;50;rightarrow;352;true;focus;yes;618375;Chrome;112.0;Windows;10;undefined;undefined;1536 x 864;1536 x 864
H003;24;Vrouwelijk;Rechts;2;93;left;no;50;leftarrow;399;true;focus;yes;619554;Chrome;112.0;Windows;10;undefined;undefined;1536 x 864;1536 x 864
H003;24;Vrouwelijk;Rechts;2;94;left;no;50;leftarrow;524;true;focus;yes;620850;Chrome;112.0;Windows;10;undefined;undefined;1536 x 864;1536 x 864
H003;24;Vrouwelijk;Rechts;2;95;left;no;50;leftarrow;347;true;focus;yes;621977;Chrome;112.0;Windows;10;undefined;undefined;1536 x 864;1536 x 864
H003;24;Vrouwelijk;Rechts;2;96;right;yes;50;undefined;null;true;focus;yes;624000;Chrome;112.0;Windows;10;undefined;undefined;1536 x 864;1536 x 864
H003;24;Vrouwelijk;Rechts;2;97;right;no;100;rightarrow;378;true;focus;yes;625157;Chrome;112.0;Windows;10;undefined;undefined;1536 x 864;1536 x 864
H003;24;Vrouwelijk;Rechts;2;98;right;yes;100;undefined;null;true;focus;yes;627223;Chrome;112.0;Windows;10;undefined;undefined;1536 x 864;1536 x 864
H003;24;Vrouwelijk;Rechts;2;99;left;no;150;leftarrow;446;true;focus;yes;628448;Chrome;112.0;Windows;10;undefined;undefined;1536 x 864;1536 x 864
H003;24;Vrouwelijk;Rechts;2;100;left;no;150;leftarrow;358;true;focus;yes;629586;Chrome;112.0;Windows;10;undefined;undefined;1536 x 864;1536 x 864
H003;24;Vrouwelijk;Rechts;2;101;right;no;150;rightarrow;424;true;focus;yes;630787;Chrome;112.0;Windows;10;undefined;undefined;1536 x 864;1536 x 864
H003;24;Vrouwelijk;Rechts;2;102;right;no;150;rightarrow;369;true;focus;yes;631926;Chrome;112.0;Windows;10;undefined;undefined;1536 x 864;1536 x 864
H003;24;Vrouwelijk;Rechts;2;103;left;no;150;leftarrow;404;true;focus;yes;633109;Chrome;112.0;Windows;10;undefined;undefined;1536 x 864;1536 x 864
H003;24;Vrouwelijk;Rechts;2;104;left;yes;150;leftarrow;320;false;focus;yes;634214;Chrome;112.0;Windows;10;undefined;undefined;1536 x 864;1536 x 864
H003;24;Vrouwelijk;Rechts;2;105;left;yes;100;undefined;null;true;focus;yes;636252;Chrome;112.0;Windows;10;undefined;undefined;1536 x 864;1536 x 864
H003;24;Vrouwelijk;Rechts;2;106;right;no;150;rightarrow;492;true;focus;yes;637526;Chrome;112.0;Windows;10;undefined;undefined;1536 x 864;1536 x 864
H003;24;Vrouwelijk;Rechts;2;107;left;no;150;leftarrow;409;true;focus;yes;638714;Chrome;112.0;Windows;10;undefined;undefined;1536 x 864;1536 x 864
H003;24;Vrouwelijk;Rechts;2;108;right;no;150;rightarrow;427;true;focus;yes;639926;Chrome;112.0;Windows;10;undefined;undefined;1536 x 864;1536 x 864
H003;24;Vrouwelijk;Rechts;2;109;left;no;150;leftarrow;385;true;focus;yes;641080;Chrome;112.0;Windows;10;undefined;undefined;1536 x 864;1536 x 864
H003;24;Vrouwelijk;Rechts;2;110;right;yes;150;rightarrow;364;false;focus;yes;642223;Chrome;112.0;Windows;10;undefined;undefined;1536 x 864;1536 x 864
H003;24;Vrouwelijk;Rechts;2;111;right;no;100;leftarrow;295;false;focus;yes;643288;Chrome;112.0;Windows;10;undefined;undefined;1536 x 864;1536 x 864
H003;24;Vrouwelijk;Rechts;2;112;left;no;100;leftarrow;339;true;focus;yes;644405;Chrome;112.0;Windows;10;undefined;undefined;1536 x 864;1536 x 864
H003;24;Vrouwelijk;Rechts;2;113;left;no;100;leftarrow;549;true;focus;yes;645728;Chrome;112.0;Windows;10;undefined;undefined;1536 x 864;1536 x 864
H003;24;Vrouwelijk;Rechts;2;114;right;no;100;rightarrow;478;true;focus;yes;646989;Chrome;112.0;Windows;10;undefined;undefined;1536 x 864;1536 x 864
H003;24;Vrouwelijk;Rechts;2;115;left;no;100;leftarrow;474;true;focus;yes;648233;Chrome;112.0;Windows;10;undefined;undefined;1536 x 864;1536 x 864
H003;24;Vrouwelijk;Rechts;2;116;right;no;100;rightarrow;454;true;focus;yes;649457;Chrome;112.0;Windows;10;undefined;undefined;1536 x 864;1536 x 864
H003;24;Vrouwelijk;Rechts;2;117;left;yes;100;leftarrow;313;false;focus;yes;650547;Chrome;112.0;Windows;10;undefined;undefined;1536 x 864;1536 x 864
H003;24;Vrouwelijk;Rechts;2;118;right;no;50;rightarrow;453;true;focus;yes;651805;Chrome;112.0;Windows;10;undefined;undefined;1536 x 864;1536 x 864
H003;24;Vrouwelijk;Rechts;2;119;left;no;50;leftarrow;323;true;focus;yes;652900;Chrome;112.0;Windows;10;undefined;undefined;1536 x 864;1536 x 864
H003;24;Vrouwelijk;Rechts;2;120;right;yes;50;undefined;null;true;focus;yes;654936;Chrome;112.0;Windows;10;undefined;undefined;1536 x 864;1536 x 864
H003;24;Vrouwelijk;Rechts;2;121;left;no;100;leftarrow;341;true;focus;yes;656057;Chrome;112.0;Windows;10;undefined;undefined;1536 x 864;1536 x 864
H003;24;Vrouwelijk;Rechts;2;122;left;no;100;leftarrow;331;true;focus;yes;657166;Chrome;112.0;Windows;10;undefined;undefined;1536 x 864;1536 x 864
H003;24;Vrouwelijk;Rechts;2;123;right;no;100;rightarrow;409;true;focus;yes;658346;Chrome;112.0;Windows;10;undefined;undefined;1536 x 864;1536 x 864
H003;24;Vrouwelijk;Rechts;2;124;left;no;100;leftarrow;294;true;focus;yes;659413;Chrome;112.0;Windows;10;undefined;undefined;1536 x 864;1536 x 864
H003;24;Vrouwelijk;Rechts;2;125;left;yes;100;leftarrow;352;false;focus;yes;660547;Chrome;112.0;Windows;10;undefined;undefined;1536 x 864;1536 x 864
H003;24;Vrouwelijk;Rechts;2;126;right;no;50;rightarrow;378;true;focus;yes;661706;Chrome;112.0;Windows;10;undefined;undefined;1536 x 864;1536 x 864
H003;24;Vrouwelijk;Rechts;2;127;right;yes;50;undefined;null;true;focus;yes;663751;Chrome;112.0;Windows;10;undefined;undefined;1536 x 864;1536 x 864
H003;24;Vrouwelijk;Rechts;2;128;right;no;100;rightarrow;341;true;focus;yes;664886;Chrome;112.0;Windows;10;undefined;undefined;1536 x 864;1536 x 864
H003;24;Vrouwelijk;Rechts;3;1;right;no;100;rightarrow;447;true;focus;yes;684478;Chrome;112.0;Windows;10;undefined;undefined;1536 x 864;1536 x 864
H003;24;Vrouwelijk;Rechts;3;2;left;yes;100;leftarrow;422;false;focus;yes;685679;Chrome;112.0;Windows;10;undefined;undefined;1536 x 864;1536 x 864
H003;24;Vrouwelijk;Rechts;3;3;right;yes;50;undefined;null;true;focus;yes;687720;Chrome;112.0;Windows;10;undefined;undefined;1536 x 864;1536 x 864
H003;24;Vrouwelijk;Rechts;3;4;left;no;100;leftarrow;397;true;focus;yes;688912;Chrome;112.0;Windows;10;undefined;undefined;1536 x 864;1536 x 864
H003;24;Vrouwelijk;Rechts;3;5;right;no;100;rightarrow;489;true;focus;yes;690179;Chrome;112.0;Windows;10;undefined;undefined;1536 x 864;1536 x 864
H003;24;Vrouwelijk;Rechts;3;6;right;no;100;rightarrow;352;true;focus;yes;691316;Chrome;112.0;Windows;10;undefined;undefined;1536 x 864;1536 x 864
H003;24;Vrouwelijk;Rechts;3;7;left;no;100;leftarrow;420;true;focus;yes;692518;Chrome;112.0;Windows;10;undefined;undefined;1536 x 864;1536 x 864
H003;24;Vrouwelijk;Rechts;3;8;left;no;100;leftarrow;444;true;focus;yes;693737;Chrome;112.0;Windows;10;undefined;undefined;1536 x 864;1536 x 864
H003;24;Vrouwelijk;Rechts;3;9;right;no;100;rightarrow;425;true;focus;yes;694977;Chrome;112.0;Windows;10;undefined;undefined;1536 x 864;1536 x 864
H003;24;Vrouwelijk;Rechts;3;10;left;yes;100;undefined;null;true;focus;yes;697003;Chrome;112.0;Windows;10;undefined;undefined;1536 x 864;1536 x 864
H003;24;Vrouwelijk;Rechts;3;11;left;no;150;leftarrow;342;true;focus;yes;698124;Chrome;112.0;Windows;10;undefined;undefined;1536 x 864;1536 x 864
H003;24;Vrouwelijk;Rechts;3;12;right;no;150;rightarrow;447;true;focus;yes;699346;Chrome;112.0;Windows;10;undefined;undefined;1536 x 864;1536 x 864
H003;24;Vrouwelijk;Rechts;3;13;right;no;150;rightarrow;462;true;focus;yes;700588;Chrome;112.0;Windows;10;undefined;undefined;1536 x 864;1536 x 864
H003;24;Vrouwelijk;Rechts;3;14;left;no;150;leftarrow;344;true;focus;yes;701709;Chrome;112.0;Windows;10;undefined;undefined;1536 x 864;1536 x 864
H003;24;Vrouwelijk;Rechts;3;15;left;no;150;leftarrow;345;true;focus;yes;702830;Chrome;112.0;Windows;10;undefined;undefined;1536 x 864;1536 x 864
H003;24;Vrouwelijk;Rechts;3;16;right;yes;150;rightarrow;452;false;focus;yes;704054;Chrome;112.0;Windows;10;undefined;undefined;1536 x 864;1536 x 864
H003;24;Vrouwelijk;Rechts;3;17;left;no;100;leftarrow;294;true;focus;yes;705109;Chrome;112.0;Windows;10;undefined;undefined;1536 x 864;1536 x 864
H003;24;Vrouwelijk;Rechts;3;18;right;yes;100;rightarrow;402;false;focus;yes;706295;Chrome;112.0;Windows;10;undefined;undefined;1536 x 864;1536 x 864
H003;24;Vrouwelijk;Rechts;3;19;right;no;50;rightarrow;456;true;focus;yes;707527;Chrome;112.0;Windows;10;undefined;undefined;1536 x 864;1536 x 864
H003;24;Vrouwelijk;Rechts;3;20;left;yes;50;undefined;null;true;focus;yes;709553;Chrome;112.0;Windows;10;undefined;undefined;1536 x 864;1536 x 864
H003;24;Vrouwelijk;Rechts;3;21;right;no;100;rightarrow;385;true;focus;yes;710715;Chrome;112.0;Windows;10;undefined;undefined;1536 x 864;1536 x 864
H003;24;Vrouwelijk;Rechts;3;22;left;no;100;leftarrow;420;true;focus;yes;711915;Chrome;112.0;Windows;10;undefined;undefined;1536 x 864;1536 x 864
H003;24;Vrouwelijk;Rechts;3;23;left;no;100;leftarrow;342;true;focus;yes;713034;Chrome;112.0;Windows;10;undefined;undefined;1536 x 864;1536 x 864
H003;24;Vrouwelijk;Rechts;3;24;right;no;100;rightarrow;481;true;focus;yes;714294;Chrome;112.0;Windows;10;undefined;undefined;1536 x 864;1536 x 864
H003;24;Vrouwelijk;Rechts;3;25;left;no;100;leftarrow;341;true;focus;yes;715413;Chrome;112.0;Windows;10;undefined;undefined;1536 x 864;1536 x 864
H003;24;Vrouwelijk;Rechts;3;26;right;no;100;rightarrow;344;true;focus;yes;716534;Chrome;112.0;Windows;10;undefined;undefined;1536 x 864;1536 x 864
H003;24;Vrouwelijk;Rechts;3;27;left;no;100;leftarrow;360;true;focus;yes;717668;Chrome;112.0;Windows;10;undefined;undefined;1536 x 864;1536 x 864
H003;24;Vrouwelijk;Rechts;3;28;right;yes;100;undefined;null;true;focus;yes;719705;Chrome;112.0;Windows;10;undefined;undefined;1536 x 864;1536 x 864
H003;24;Vrouwelijk;Rechts;3;29;left;no;150;leftarrow;378;true;focus;yes;720862;Chrome;112.0;Windows;10;undefined;undefined;1536 x 864;1536 x 864
H003;24;Vrouwelijk;Rechts;3;30;right;no;150;rightarrow;392;true;focus;yes;722025;Chrome;112.0;Windows;10;undefined;undefined;1536 x 864;1536 x 864
H003;24;Vrouwelijk;Rechts;3;31;left;yes;150;leftarrow;392;false;focus;yes;723194;Chrome;112.0;Windows;10;undefined;undefined;1536 x 864;1536 x 864
H003;24;Vrouwelijk;Rechts;3;32;right;no;100;rightarrow;348;true;focus;yes;724314;Chrome;112.0;Windows;10;undefined;undefined;1536 x 864;1536 x 864
H003;24;Vrouwelijk;Rechts;3;33;right;yes;100;undefined;null;true;focus;yes;726335;Chrome;112.0;Windows;10;undefined;undefined;1536 x 864;1536 x 864
H003;24;Vrouwelijk;Rechts;3;34;right;no;150;rightarrow;402;true;focus;yes;727514;Chrome;112.0;Windows;10;undefined;undefined;1536 x 864;1536 x 864
H003;24;Vrouwelijk;Rechts;3;35;right;no;150;rightarrow;565;true;focus;yes;728844;Chrome;112.0;Windows;10;undefined;undefined;1536 x 864;1536 x 864
H003;24;Vrouwelijk;Rechts;3;36;left;no;150;leftarrow;451;true;focus;yes;730076;Chrome;112.0;Windows;10;undefined;undefined;1536 x 864;1536 x 864
H003;24;Vrouwelijk;Rechts;3;37;left;no;150;leftarrow;418;true;focus;yes;731269;Chrome;112.0;Windows;10;undefined;undefined;1536 x 864;1536 x 864
H003;24;Vrouwelijk;Rechts;3;38;left;yes;150;leftarrow;394;false;focus;yes;732439;Chrome;112.0;Windows;10;undefined;undefined;1536 x 864;1536 x 864
H003;24;Vrouwelijk;Rechts;3;39;left;no;100;leftarrow;316;true;focus;yes;733526;Chrome;112.0;Windows;10;undefined;undefined;1536 x 864;1536 x 864
H003;24;Vrouwelijk;Rechts;3;40;right;no;100;rightarrow;442;true;focus;yes;734741;Chrome;112.0;Windows;10;undefined;undefined;1536 x 864;1536 x 864
H003;24;Vrouwelijk;Rechts;3;41;left;yes;100;leftarrow;354;false;focus;yes;735867;Chrome;112.0;Windows;10;undefined;undefined;1536 x 864;1536 x 864
H003;24;Vrouwelijk;Rechts;3;42;right;yes;50;undefined;null;true;focus;yes;737890;Chrome;112.0;Windows;10;undefined;undefined;1536 x 864;1536 x 864
H003;24;Vrouwelijk;Rechts;3;43;right;no;100;rightarrow;358;true;focus;yes;739027;Chrome;112.0;Windows;10;undefined;undefined;1536 x 864;1536 x 864
H003;24;Vrouwelijk;Rechts;3;44;right;no;100;rightarrow;616;true;focus;yes;740416;Chrome;112.0;Windows;10;undefined;undefined;1536 x 864;1536 x 864
H003;24;Vrouwelijk;Rechts;3;45;right;no;100;rightarrow;342;true;focus;yes;741537;Chrome;112.0;Windows;10;undefined;undefined;1536 x 864;1536 x 864
H003;24;Vrouwelijk;Rechts;3;46;left;no;100;leftarrow;417;true;focus;yes;742728;Chrome;112.0;Windows;10;undefined;undefined;1536 x 864;1536 x 864
H003;24;Vrouwelijk;Rechts;3;47;left;no;100;leftarrow;358;true;focus;yes;743864;Chrome;112.0;Windows;10;undefined;undefined;1536 x 864;1536 x 864
H003;24;Vrouwelijk;Rechts;3;48;left;no;100;leftarrow;401;true;focus;yes;745037;Chrome;112.0;Windows;10;undefined;undefined;1536 x 864;1536 x 864
H003;24;Vrouwelijk;Rechts;3;49;left;no;100;leftarrow;380;true;focus;yes;746200;Chrome;112.0;Windows;10;undefined;undefined;1536 x 864;1536 x 864
H003;24;Vrouwelijk;Rechts;3;50;left;no;100;leftarrow;360;true;focus;yes;747331;Chrome;112.0;Windows;10;undefined;undefined;1536 x 864;1536 x 864
H003;24;Vrouwelijk;Rechts;3;51;right;no;100;rightarrow;450;true;focus;yes;748552;Chrome;112.0;Windows;10;undefined;undefined;1536 x 864;1536 x 864
H003;24;Vrouwelijk;Rechts;3;52;right;no;100;rightarrow;358;true;focus;yes;749687;Chrome;112.0;Windows;10;undefined;undefined;1536 x 864;1536 x 864
H003;24;Vrouwelijk;Rechts;3;53;left;yes;100;leftarrow;421;false;focus;yes;750883;Chrome;112.0;Windows;10;undefined;undefined;1536 x 864;1536 x 864
H003;24;Vrouwelijk;Rechts;3;54;right;yes;50;undefined;null;true;focus;yes;752947;Chrome;112.0;Windows;10;undefined;undefined;1536 x 864;1536 x 864
H003;24;Vrouwelijk;Rechts;3;55;right;no;100;rightarrow;458;true;focus;yes;754201;Chrome;112.0;Windows;10;undefined;undefined;1536 x 864;1536 x 864
H003;24;Vrouwelijk;Rechts;3;56;left;no;100;leftarrow;421;true;focus;yes;755388;Chrome;112.0;Windows;10;undefined;undefined;1536 x 864;1536 x 864
H003;24;Vrouwelijk;Rechts;3;57;left;no;100;leftarrow;317;true;focus;yes;756476;Chrome;112.0;Windows;10;undefined;undefined;1536 x 864;1536 x 864
H003;24;Vrouwelijk;Rechts;3;58;right;no;100;rightarrow;474;true;focus;yes;757721;Chrome;112.0;Windows;10;undefined;undefined;1536 x 864;1536 x 864
H003;24;Vrouwelijk;Rechts;3;59;right;no;100;rightarrow;365;true;focus;yes;758856;Chrome;112.0;Windows;10;undefined;undefined;1536 x 864;1536 x 864
H003;24;Vrouwelijk;Rechts;3;60;right;yes;100;rightarrow;403;false;focus;yes;760055;Chrome;112.0;Windows;10;undefined;undefined;1536 x 864;1536 x 864
H003;24;Vrouwelijk;Rechts;3;61;left;no;50;leftarrow;378;true;focus;yes;761213;Chrome;112.0;Windows;10;undefined;undefined;1536 x 864;1536 x 864
H003;24;Vrouwelijk;Rechts;3;62;left;no;50;leftarrow;356;true;focus;yes;762342;Chrome;112.0;Windows;10;undefined;undefined;1536 x 864;1536 x 864
H003;24;Vrouwelijk;Rechts;3;63;right;no;50;rightarrow;511;true;focus;yes;763633;Chrome;112.0;Windows;10;undefined;undefined;1536 x 864;1536 x 864
H003;24;Vrouwelijk;Rechts;3;64;left;yes;50;leftarrow;306;false;focus;yes;764718;Chrome;112.0;Windows;10;undefined;undefined;1536 x 864;1536 x 864
H003;24;Vrouwelijk;Rechts;3;65;left;no;50;leftarrow;463;true;focus;yes;765959;Chrome;112.0;Windows;10;undefined;undefined;1536 x 864;1536 x 864
H003;24;Vrouwelijk;Rechts;3;66;right;no;50;rightarrow;476;true;focus;yes;767215;Chrome;112.0;Windows;10;undefined;undefined;1536 x 864;1536 x 864
H003;24;Vrouwelijk;Rechts;3;67;left;no;50;leftarrow;310;true;focus;yes;768308;Chrome;112.0;Windows;10;undefined;undefined;1536 x 864;1536 x 864
H003;24;Vrouwelijk;Rechts;3;68;right;yes;50;undefined;null;true;focus;yes;770339;Chrome;112.0;Windows;10;undefined;undefined;1536 x 864;1536 x 864
H003;24;Vrouwelijk;Rechts;3;69;left;yes;100;undefined;null;true;focus;yes;772391;Chrome;112.0;Windows;10;undefined;undefined;1536 x 864;1536 x 864
H003;24;Vrouwelijk;Rechts;3;70;right;no;150;rightarrow;483;true;focus;yes;773655;Chrome;112.0;Windows;10;undefined;undefined;1536 x 864;1536 x 864
H003;24;Vrouwelijk;Rechts;3;71;left;no;150;leftarrow;389;true;focus;yes;774819;Chrome;112.0;Windows;10;undefined;undefined;1536 x 864;1536 x 864
H003;24;Vrouwelijk;Rechts;3;72;right;no;150;rightarrow;340;true;focus;yes;775932;Chrome;112.0;Windows;10;undefined;undefined;1536 x 864;1536 x 864
H003;24;Vrouwelijk;Rechts;3;73;left;no;150;leftarrow;310;true;focus;yes;777018;Chrome;112.0;Windows;10;undefined;undefined;1536 x 864;1536 x 864
H003;24;Vrouwelijk;Rechts;3;74;left;no;150;leftarrow;350;true;focus;yes;778143;Chrome;112.0;Windows;10;undefined;undefined;1536 x 864;1536 x 864
H003;24;Vrouwelijk;Rechts;3;75;right;no;150;rightarrow;389;true;focus;yes;779301;Chrome;112.0;Windows;10;undefined;undefined;1536 x 864;1536 x 864
H003;24;Vrouwelijk;Rechts;3;76;left;no;150;leftarrow;304;true;focus;yes;780380;Chrome;112.0;Windows;10;undefined;undefined;1536 x 864;1536 x 864
H003;24;Vrouwelijk;Rechts;3;77;right;no;150;rightarrow;438;true;focus;yes;781590;Chrome;112.0;Windows;10;undefined;undefined;1536 x 864;1536 x 864
H003;24;Vrouwelijk;Rechts;3;78;right;no;150;leftarrow;274;false;focus;yes;782638;Chrome;112.0;Windows;10;undefined;undefined;1536 x 864;1536 x 864
H003;24;Vrouwelijk;Rechts;3;79;left;yes;150;leftarrow;314;false;focus;yes;783734;Chrome;112.0;Windows;10;undefined;undefined;1536 x 864;1536 x 864
H003;24;Vrouwelijk;Rechts;3;80;right;yes;100;undefined;null;true;focus;yes;785791;Chrome;112.0;Windows;10;undefined;undefined;1536 x 864;1536 x 864
H003;24;Vrouwelijk;Rechts;3;81;left;no;150;leftarrow;496;true;focus;yes;787081;Chrome;112.0;Windows;10;undefined;undefined;1536 x 864;1536 x 864
H003;24;Vrouwelijk;Rechts;3;82;left;no;150;leftarrow;459;true;focus;yes;788314;Chrome;112.0;Windows;10;undefined;undefined;1536 x 864;1536 x 864
H003;24;Vrouwelijk;Rechts;3;83;right;no;150;rightarrow;453;true;focus;yes;789552;Chrome;112.0;Windows;10;undefined;undefined;1536 x 864;1536 x 864
H003;24;Vrouwelijk;Rechts;3;84;left;yes;150;leftarrow;394;false;focus;yes;790718;Chrome;112.0;Windows;10;undefined;undefined;1536 x 864;1536 x 864
H003;24;Vrouwelijk;Rechts;3;85;right;yes;100;rightarrow;425;false;focus;yes;791913;Chrome;112.0;Windows;10;undefined;undefined;1536 x 864;1536 x 864
H003;24;Vrouwelijk;Rechts;3;86;right;no;50;leftarrow;279;false;focus;yes;792991;Chrome;112.0;Windows;10;undefined;undefined;1536 x 864;1536 x 864
H003;24;Vrouwelijk;Rechts;3;87;right;no;50;rightarrow;490;true;focus;yes;794256;Chrome;112.0;Windows;10;undefined;undefined;1536 x 864;1536 x 864
H003;24;Vrouwelijk;Rechts;3;88;left;no;50;leftarrow;395;true;focus;yes;795420;Chrome;112.0;Windows;10;undefined;undefined;1536 x 864;1536 x 864
H003;24;Vrouwelijk;Rechts;3;89;right;yes;50;undefined;null;true;focus;yes;797458;Chrome;112.0;Windows;10;undefined;undefined;1536 x 864;1536 x 864
H003;24;Vrouwelijk;Rechts;3;90;left;yes;100;leftarrow;378;false;focus;yes;798616;Chrome;112.0;Windows;10;undefined;undefined;1536 x 864;1536 x 864
H003;24;Vrouwelijk;Rechts;3;91;right;no;50;rightarrow;518;true;focus;yes;799893;Chrome;112.0;Windows;10;undefined;undefined;1536 x 864;1536 x 864
H003;24;Vrouwelijk;Rechts;3;92;left;no;50;leftarrow;369;true;focus;yes;801036;Chrome;112.0;Windows;10;undefined;undefined;1536 x 864;1536 x 864
H003;24;Vrouwelijk;Rechts;3;93;left;no;50;leftarrow;413;true;focus;yes;802228;Chrome;112.0;Windows;10;undefined;undefined;1536 x 864;1536 x 864
H003;24;Vrouwelijk;Rechts;3;94;right;no;50;rightarrow;457;true;focus;yes;803467;Chrome;112.0;Windows;10;undefined;undefined;1536 x 864;1536 x 864
H003;24;Vrouwelijk;Rechts;3;95;right;no;50;rightarrow;473;true;focus;yes;804726;Chrome;112.0;Windows;10;undefined;undefined;1536 x 864;1536 x 864
H003;24;Vrouwelijk;Rechts;3;96;left;no;50;leftarrow;382;true;focus;yes;805877;Chrome;112.0;Windows;10;undefined;undefined;1536 x 864;1536 x 864
H003;24;Vrouwelijk;Rechts;3;97;right;no;50;rightarrow;372;true;focus;yes;807032;Chrome;112.0;Windows;10;undefined;undefined;1536 x 864;1536 x 864
H003;24;Vrouwelijk;Rechts;3;98;left;no;50;leftarrow;369;true;focus;yes;808178;Chrome;112.0;Windows;10;undefined;undefined;1536 x 864;1536 x 864
H003;24;Vrouwelijk;Rechts;3;99;left;yes;50;undefined;null;true;focus;yes;810213;Chrome;112.0;Windows;10;undefined;undefined;1536 x 864;1536 x 864
H003;24;Vrouwelijk;Rechts;3;100;right;no;100;rightarrow;385;true;focus;yes;811392;Chrome;112.0;Windows;10;undefined;undefined;1536 x 864;1536 x 864
H003;24;Vrouwelijk;Rechts;3;101;right;no;100;rightarrow;484;true;focus;yes;812655;Chrome;112.0;Windows;10;undefined;undefined;1536 x 864;1536 x 864
H003;24;Vrouwelijk;Rechts;3;102;left;no;100;leftarrow;386;true;focus;yes;813817;Chrome;112.0;Windows;10;undefined;undefined;1536 x 864;1536 x 864
H003;24;Vrouwelijk;Rechts;3;103;left;no;100;leftarrow;345;true;focus;yes;814942;Chrome;112.0;Windows;10;undefined;undefined;1536 x 864;1536 x 864
H003;24;Vrouwelijk;Rechts;3;104;right;yes;100;rightarrow;436;false;focus;yes;816152;Chrome;112.0;Windows;10;undefined;undefined;1536 x 864;1536 x 864
H003;24;Vrouwelijk;Rechts;3;105;left;yes;50;leftarrow;346;false;focus;yes;817289;Chrome;112.0;Windows;10;undefined;undefined;1536 x 864;1536 x 864
H003;24;Vrouwelijk;Rechts;3;106;left;no;50;leftarrow;384;true;focus;yes;818443;Chrome;112.0;Windows;10;undefined;undefined;1536 x 864;1536 x 864
H003;24;Vrouwelijk;Rechts;3;107;right;yes;50;undefined;null;true;focus;yes;820486;Chrome;112.0;Windows;10;undefined;undefined;1536 x 864;1536 x 864
H003;24;Vrouwelijk;Rechts;3;108;right;no;100;rightarrow;446;true;focus;yes;821713;Chrome;112.0;Windows;10;undefined;undefined;1536 x 864;1536 x 864
H003;24;Vrouwelijk;Rechts;3;109;left;no;100;leftarrow;354;true;focus;yes;822847;Chrome;112.0;Windows;10;undefined;undefined;1536 x 864;1536 x 864
H003;24;Vrouwelijk;Rechts;3;110;right;no;100;rightarrow;392;true;focus;yes;824003;Chrome;112.0;Windows;10;undefined;undefined;1536 x 864;1536 x 864
H003;24;Vrouwelijk;Rechts;3;111;left;no;100;leftarrow;327;true;focus;yes;825105;Chrome;112.0;Windows;10;undefined;undefined;1536 x 864;1536 x 864
H003;24;Vrouwelijk;Rechts;3;112;right;no;100;rightarrow;392;true;focus;yes;826270;Chrome;112.0;Windows;10;undefined;undefined;1536 x 864;1536 x 864
H003;24;Vrouwelijk;Rechts;3;113;left;yes;100;leftarrow;318;false;focus;yes;827358;Chrome;112.0;Windows;10;undefined;undefined;1536 x 864;1536 x 864
H003;24;Vrouwelijk;Rechts;3;114;left;no;50;leftarrow;583;true;focus;yes;828714;Chrome;112.0;Windows;10;undefined;undefined;1536 x 864;1536 x 864
H003;24;Vrouwelijk;Rechts;3;115;right;no;50;rightarrow;440;true;focus;yes;829923;Chrome;112.0;Windows;10;undefined;undefined;1536 x 864;1536 x 864
H003;24;Vrouwelijk;Rechts;3;116;left;no;50;leftarrow;337;true;focus;yes;831031;Chrome;112.0;Windows;10;undefined;undefined;1536 x 864;1536 x 864
H003;24;Vrouwelijk;Rechts;3;117;right;yes;50;undefined;null;true;focus;yes;833063;Chrome;112.0;Windows;10;undefined;undefined;1536 x 864;1536 x 864
H003;24;Vrouwelijk;Rechts;3;118;right;no;100;rightarrow;445;true;focus;yes;834291;Chrome;112.0;Windows;10;undefined;undefined;1536 x 864;1536 x 864
H003;24;Vrouwelijk;Rechts;3;119;left;no;100;leftarrow;385;true;focus;yes;835456;Chrome;112.0;Windows;10;undefined;undefined;1536 x 864;1536 x 864
H003;24;Vrouwelijk;Rechts;3;120;right;no;100;rightarrow;455;true;focus;yes;836687;Chrome;112.0;Windows;10;undefined;undefined;1536 x 864;1536 x 864
H003;24;Vrouwelijk;Rechts;3;121;right;no;100;rightarrow;456;true;focus;yes;837902;Chrome;112.0;Windows;10;undefined;undefined;1536 x 864;1536 x 864
H003;24;Vrouwelijk;Rechts;3;122;left;no;100;leftarrow;417;true;focus;yes;839101;Chrome;112.0;Windows;10;undefined;undefined;1536 x 864;1536 x 864
H003;24;Vrouwelijk;Rechts;3;123;left;no;100;leftarrow;348;true;focus;yes;840249;Chrome;112.0;Windows;10;undefined;undefined;1536 x 864;1536 x 864
H003;24;Vrouwelijk;Rechts;3;124;right;no;100;rightarrow;432;true;focus;yes;841463;Chrome;112.0;Windows;10;undefined;undefined;1536 x 864;1536 x 864
H003;24;Vrouwelijk;Rechts;3;125;right;yes;100;rightarrow;440;false;focus;yes;842670;Chrome;112.0;Windows;10;undefined;undefined;1536 x 864;1536 x 864
H003;24;Vrouwelijk;Rechts;3;126;left;yes;50;leftarrow;341;false;focus;yes;843767;Chrome;112.0;Windows;10;undefined;undefined;1536 x 864;1536 x 864
H003;24;Vrouwelijk;Rechts;3;127;right;no;50;rightarrow;427;true;focus;yes;844956;Chrome;112.0;Windows;10;undefined;undefined;1536 x 864;1536 x 864
H003;24;Vrouwelijk;Rechts;3;128;left;no;50;leftarrow;340;true;focus;yes;846080;Chrome;112.0;Windows;10;undefined;undefined;1536 x 864;1536 x 864
H003;24;Vrouwelijk;Rechts;4;1;right;no;50;rightarrow;470;true;focus;yes;938002;Chrome;112.0;Windows;10;undefined;undefined;1536 x 864;1536 x 864
H003;24;Vrouwelijk;Rechts;4;2;right;no;50;rightarrow;357;true;focus;yes;939137;Chrome;112.0;Windows;10;undefined;undefined;1536 x 864;1536 x 864
H003;24;Vrouwelijk;Rechts;4;3;right;yes;50;undefined;null;true;focus;yes;941190;Chrome;112.0;Windows;10;undefined;undefined;1536 x 864;1536 x 864
H003;24;Vrouwelijk;Rechts;4;4;left;no;100;leftarrow;484;true;focus;yes;942471;Chrome;112.0;Windows;10;undefined;undefined;1536 x 864;1536 x 864
H003;24;Vrouwelijk;Rechts;4;5;left;no;100;leftarrow;423;true;focus;yes;943669;Chrome;112.0;Windows;10;undefined;undefined;1536 x 864;1536 x 864
H003;24;Vrouwelijk;Rechts;4;6;right;no;100;rightarrow;392;true;focus;yes;944832;Chrome;112.0;Windows;10;undefined;undefined;1536 x 864;1536 x 864
H003;24;Vrouwelijk;Rechts;4;7;left;yes;100;leftarrow;314;false;focus;yes;945917;Chrome;112.0;Windows;10;undefined;undefined;1536 x 864;1536 x 864
H003;24;Vrouwelijk;Rechts;4;8;left;no;50;leftarrow;372;true;focus;yes;947067;Chrome;112.0;Windows;10;undefined;undefined;1536 x 864;1536 x 864
H003;24;Vrouwelijk;Rechts;4;9;left;yes;50;undefined;null;true;focus;yes;949141;Chrome;112.0;Windows;10;undefined;undefined;1536 x 864;1536 x 864
H003;24;Vrouwelijk;Rechts;4;10;right;no;100;rightarrow;324;true;focus;yes;950262;Chrome;112.0;Windows;10;undefined;undefined;1536 x 864;1536 x 864
H003;24;Vrouwelijk;Rechts;4;11;right;yes;100;undefined;null;true;focus;yes;952304;Chrome;112.0;Windows;10;undefined;undefined;1536 x 864;1536 x 864
H003;24;Vrouwelijk;Rechts;4;12;left;no;150;leftarrow;346;true;focus;yes;953431;Chrome;112.0;Windows;10;undefined;undefined;1536 x 864;1536 x 864
H003;24;Vrouwelijk;Rechts;4;13;right;no;150;rightarrow;395;true;focus;yes;954598;Chrome;112.0;Windows;10;undefined;undefined;1536 x 864;1536 x 864
H003;24;Vrouwelijk;Rechts;4;14;left;no;150;leftarrow;322;true;focus;yes;955696;Chrome;112.0;Windows;10;undefined;undefined;1536 x 864;1536 x 864
H003;24;Vrouwelijk;Rechts;4;15;right;no;150;rightarrow;358;true;focus;yes;956834;Chrome;112.0;Windows;10;undefined;undefined;1536 x 864;1536 x 864
H003;24;Vrouwelijk;Rechts;4;16;left;no;150;leftarrow;309;true;focus;yes;957923;Chrome;112.0;Windows;10;undefined;undefined;1536 x 864;1536 x 864
H003;24;Vrouwelijk;Rechts;4;17;right;no;150;rightarrow;409;true;focus;yes;959113;Chrome;112.0;Windows;10;undefined;undefined;1536 x 864;1536 x 864
H003;24;Vrouwelijk;Rechts;4;18;right;yes;150;undefined;null;true;focus;yes;961140;Chrome;112.0;Windows;10;undefined;undefined;1536 x 864;1536 x 864
H003;24;Vrouwelijk;Rechts;4;19;right;no;200;rightarrow;452;true;focus;yes;962388;Chrome;112.0;Windows;10;undefined;undefined;1536 x 864;1536 x 864
H003;24;Vrouwelijk;Rechts;4;20;left;no;200;leftarrow;328;true;focus;yes;963493;Chrome;112.0;Windows;10;undefined;undefined;1536 x 864;1536 x 864
H003;24;Vrouwelijk;Rechts;4;21;left;no;200;leftarrow;392;true;focus;yes;964663;Chrome;112.0;Windows;10;undefined;undefined;1536 x 864;1536 x 864
H003;24;Vrouwelijk;Rechts;4;22;left;no;200;leftarrow;322;true;focus;yes;965765;Chrome;112.0;Windows;10;undefined;undefined;1536 x 864;1536 x 864
H003;24;Vrouwelijk;Rechts;4;23;right;no;200;rightarrow;424;true;focus;yes;966960;Chrome;112.0;Windows;10;undefined;undefined;1536 x 864;1536 x 864
H003;24;Vrouwelijk;Rechts;4;24;left;yes;200;leftarrow;302;false;focus;yes;968052;Chrome;112.0;Windows;10;undefined;undefined;1536 x 864;1536 x 864
H003;24;Vrouwelijk;Rechts;4;25;right;no;150;rightarrow;261;true;focus;yes;969082;Chrome;112.0;Windows;10;undefined;undefined;1536 x 864;1536 x 864
H003;24;Vrouwelijk;Rechts;4;26;right;yes;150;rightarrow;304;false;focus;yes;970166;Chrome;112.0;Windows;10;undefined;undefined;1536 x 864;1536 x 864
H003;24;Vrouwelijk;Rechts;4;27;left;no;100;leftarrow;289;true;focus;yes;971229;Chrome;112.0;Windows;10;undefined;undefined;1536 x 864;1536 x 864
H003;24;Vrouwelijk;Rechts;4;28;left;yes;100;undefined;null;true;focus;yes;973288;Chrome;112.0;Windows;10;undefined;undefined;1536 x 864;1536 x 864
H003;24;Vrouwelijk;Rechts;4;29;right;no;150;rightarrow;352;true;focus;yes;974435;Chrome;112.0;Windows;10;undefined;undefined;1536 x 864;1536 x 864
H003;24;Vrouwelijk;Rechts;4;30;right;no;150;rightarrow;321;true;focus;yes;975525;Chrome;112.0;Windows;10;undefined;undefined;1536 x 864;1536 x 864
H003;24;Vrouwelijk;Rechts;4;31;left;no;150;leftarrow;424;true;focus;yes;976726;Chrome;112.0;Windows;10;undefined;undefined;1536 x 864;1536 x 864
H003;24;Vrouwelijk;Rechts;4;32;left;no;150;leftarrow;384;true;focus;yes;977876;Chrome;112.0;Windows;10;undefined;undefined;1536 x 864;1536 x 864
H003;24;Vrouwelijk;Rechts;4;33;left;yes;150;leftarrow;379;false;focus;yes;979026;Chrome;112.0;Windows;10;undefined;undefined;1536 x 864;1536 x 864
H003;24;Vrouwelijk;Rechts;4;34;right;no;100;rightarrow;384;true;focus;yes;980197;Chrome;112.0;Windows;10;undefined;undefined;1536 x 864;1536 x 864
H003;24;Vrouwelijk;Rechts;4;35;left;no;100;leftarrow;310;true;focus;yes;981263;Chrome;112.0;Windows;10;undefined;undefined;1536 x 864;1536 x 864
H003;24;Vrouwelijk;Rechts;4;36;right;yes;100;rightarrow;409;false;focus;yes;982446;Chrome;112.0;Windows;10;undefined;undefined;1536 x 864;1536 x 864
H003;24;Vrouwelijk;Rechts;4;37;left;no;50;leftarrow;264;true;focus;yes;983482;Chrome;112.0;Windows;10;undefined;undefined;1536 x 864;1536 x 864
H003;24;Vrouwelijk;Rechts;4;38;right;no;50;leftarrow;318;false;focus;yes;984577;Chrome;112.0;Windows;10;undefined;undefined;1536 x 864;1536 x 864
H003;24;Vrouwelijk;Rechts;4;39;left;no;50;leftarrow;320;true;focus;yes;985662;Chrome;112.0;Windows;10;undefined;undefined;1536 x 864;1536 x 864
H003;24;Vrouwelijk;Rechts;4;40;right;no;50;rightarrow;290;true;focus;yes;986730;Chrome;112.0;Windows;10;undefined;undefined;1536 x 864;1536 x 864
H003;24;Vrouwelijk;Rechts;4;41;right;no;50;rightarrow;388;true;focus;yes;987885;Chrome;112.0;Windows;10;undefined;undefined;1536 x 864;1536 x 864
H003;24;Vrouwelijk;Rechts;4;42;left;no;50;leftarrow;366;true;focus;yes;989027;Chrome;112.0;Windows;10;undefined;undefined;1536 x 864;1536 x 864
H003;24;Vrouwelijk;Rechts;4;43;left;yes;50;undefined;null;true;focus;yes;991089;Chrome;112.0;Windows;10;undefined;undefined;1536 x 864;1536 x 864
H003;24;Vrouwelijk;Rechts;4;44;right;yes;100;rightarrow;380;false;focus;yes;992248;Chrome;112.0;Windows;10;undefined;undefined;1536 x 864;1536 x 864
H003;24;Vrouwelijk;Rechts;4;45;right;no;50;rightarrow;443;true;focus;yes;993462;Chrome;112.0;Windows;10;undefined;undefined;1536 x 864;1536 x 864
H003;24;Vrouwelijk;Rechts;4;46;right;no;50;rightarrow;355;true;focus;yes;994591;Chrome;112.0;Windows;10;undefined;undefined;1536 x 864;1536 x 864
H003;24;Vrouwelijk;Rechts;4;47;left;no;50;leftarrow;386;true;focus;yes;995756;Chrome;112.0;Windows;10;undefined;undefined;1536 x 864;1536 x 864
H003;24;Vrouwelijk;Rechts;4;48;left;no;50;leftarrow;368;true;focus;yes;996906;Chrome;112.0;Windows;10;undefined;undefined;1536 x 864;1536 x 864
H003;24;Vrouwelijk;Rechts;4;49;left;no;50;leftarrow;342;true;focus;yes;998043;Chrome;112.0;Windows;10;undefined;undefined;1536 x 864;1536 x 864
H003;24;Vrouwelijk;Rechts;4;50;right;yes;50;undefined;null;true;focus;yes;1000074;Chrome;112.0;Windows;10;undefined;undefined;1536 x 864;1536 x 864
H003;24;Vrouwelijk;Rechts;4;51;right;no;100;rightarrow;325;true;focus;yes;1001175;Chrome;112.0;Windows;10;undefined;undefined;1536 x 864;1536 x 864
H003;24;Vrouwelijk;Rechts;4;52;right;no;100;rightarrow;319;true;focus;yes;1002273;Chrome;112.0;Windows;10;undefined;undefined;1536 x 864;1536 x 864
H003;24;Vrouwelijk;Rechts;4;53;left;no;100;leftarrow;366;true;focus;yes;1003408;Chrome;112.0;Windows;10;undefined;undefined;1536 x 864;1536 x 864
H003;24;Vrouwelijk;Rechts;4;54;left;yes;100;leftarrow;351;false;focus;yes;1004528;Chrome;112.0;Windows;10;undefined;undefined;1536 x 864;1536 x 864
H003;24;Vrouwelijk;Rechts;4;55;left;no;50;leftarrow;389;true;focus;yes;1005696;Chrome;112.0;Windows;10;undefined;undefined;1536 x 864;1536 x 864
H003;24;Vrouwelijk;Rechts;4;56;right;no;50;rightarrow;392;true;focus;yes;1006866;Chrome;112.0;Windows;10;undefined;undefined;1536 x 864;1536 x 864
H003;24;Vrouwelijk;Rechts;4;57;right;no;50;rightarrow;368;true;focus;yes;1008011;Chrome;112.0;Windows;10;undefined;undefined;1536 x 864;1536 x 864
H003;24;Vrouwelijk;Rechts;4;58;left;no;50;leftarrow;378;true;focus;yes;1009168;Chrome;112.0;Windows;10;undefined;undefined;1536 x 864;1536 x 864
H003;24;Vrouwelijk;Rechts;4;59;left;yes;50;undefined;null;true;focus;yes;1011193;Chrome;112.0;Windows;10;undefined;undefined;1536 x 864;1536 x 864
H003;24;Vrouwelijk;Rechts;4;60;left;no;100;leftarrow;333;true;focus;yes;1012305;Chrome;112.0;Windows;10;undefined;undefined;1536 x 864;1536 x 864
H003;24;Vrouwelijk;Rechts;4;61;right;yes;100;undefined;null;true;focus;yes;1014328;Chrome;112.0;Windows;10;undefined;undefined;1536 x 864;1536 x 864
H003;24;Vrouwelijk;Rechts;4;62;left;no;150;leftarrow;325;true;focus;yes;1015445;Chrome;112.0;Windows;10;undefined;undefined;1536 x 864;1536 x 864
H003;24;Vrouwelijk;Rechts;4;63;right;no;150;rightarrow;332;true;focus;yes;1016554;Chrome;112.0;Windows;10;undefined;undefined;1536 x 864;1536 x 864
H003;24;Vrouwelijk;Rechts;4;64;right;no;150;rightarrow;380;true;focus;yes;1017704;Chrome;112.0;Windows;10;undefined;undefined;1536 x 864;1536 x 864
H003;24;Vrouwelijk;Rechts;4;65;left;no;150;leftarrow;267;true;focus;yes;1018752;Chrome;112.0;Windows;10;undefined;undefined;1536 x 864;1536 x 864
H003;24;Vrouwelijk;Rechts;4;66;left;no;150;leftarrow;357;true;focus;yes;1019884;Chrome;112.0;Windows;10;undefined;undefined;1536 x 864;1536 x 864
H003;24;Vrouwelijk;Rechts;4;67;right;no;150;rightarrow;388;true;focus;yes;1021048;Chrome;112.0;Windows;10;undefined;undefined;1536 x 864;1536 x 864
H003;24;Vrouwelijk;Rechts;4;68;left;no;150;leftarrow;275;true;focus;yes;1022099;Chrome;112.0;Windows;10;undefined;undefined;1536 x 864;1536 x 864
H003;24;Vrouwelijk;Rechts;4;69;right;yes;150;rightarrow;375;false;focus;yes;1023256;Chrome;112.0;Windows;10;undefined;undefined;1536 x 864;1536 x 864
H003;24;Vrouwelijk;Rechts;4;70;right;no;100;leftarrow;233;false;focus;yes;1024269;Chrome;112.0;Windows;10;undefined;undefined;1536 x 864;1536 x 864
H003;24;Vrouwelijk;Rechts;4;71;left;yes;100;leftarrow;263;false;focus;yes;1025304;Chrome;112.0;Windows;10;undefined;undefined;1536 x 864;1536 x 864
H003;24;Vrouwelijk;Rechts;4;72;right;no;50;rightarrow;313;true;focus;yes;1026395;Chrome;112.0;Windows;10;undefined;undefined;1536 x 864;1536 x 864
H003;24;Vrouwelijk;Rechts;4;73;right;no;50;rightarrow;433;true;focus;yes;1027606;Chrome;112.0;Windows;10;undefined;undefined;1536 x 864;1536 x 864
H003;24;Vrouwelijk;Rechts;4;74;left;no;50;leftarrow;960;true;focus;yes;1029345;Chrome;112.0;Windows;10;undefined;undefined;1536 x 864;1536 x 864
H003;24;Vrouwelijk;Rechts;4;75;left;no;50;leftarrow;328;true;focus;yes;1030442;Chrome;112.0;Windows;10;undefined;undefined;1536 x 864;1536 x 864
H003;24;Vrouwelijk;Rechts;4;76;right;no;50;rightarrow;311;true;focus;yes;1031527;Chrome;112.0;Windows;10;undefined;undefined;1536 x 864;1536 x 864
H003;24;Vrouwelijk;Rechts;4;77;left;no;50;leftarrow;291;true;focus;yes;1032594;Chrome;112.0;Windows;10;undefined;undefined;1536 x 864;1536 x 864
H003;24;Vrouwelijk;Rechts;4;78;right;no;50;rightarrow;302;true;focus;yes;1033681;Chrome;112.0;Windows;10;undefined;undefined;1536 x 864;1536 x 864
H003;24;Vrouwelijk;Rechts;4;79;right;yes;50;undefined;null;true;focus;yes;1035722;Chrome;112.0;Windows;10;undefined;undefined;1536 x 864;1536 x 864
H003;24;Vrouwelijk;Rechts;4;80;left;yes;100;undefined;null;true;focus;yes;1037800;Chrome;112.0;Windows;10;undefined;undefined;1536 x 864;1536 x 864
H003;24;Vrouwelijk;Rechts;4;81;left;no;150;leftarrow;397;true;focus;yes;1038977;Chrome;112.0;Windows;10;undefined;undefined;1536 x 864;1536 x 864
H003;24;Vrouwelijk;Rechts;4;82;right;yes;150;rightarrow;357;false;focus;yes;1040119;Chrome;112.0;Windows;10;undefined;undefined;1536 x 864;1536 x 864
H003;24;Vrouwelijk;Rechts;4;83;left;no;100;leftarrow;293;true;focus;yes;1041190;Chrome;112.0;Windows;10;undefined;undefined;1536 x 864;1536 x 864
H003;24;Vrouwelijk;Rechts;4;84;left;yes;100;undefined;null;true;focus;yes;1043220;Chrome;112.0;Windows;10;undefined;undefined;1536 x 864;1536 x 864
H003;24;Vrouwelijk;Rechts;4;85;right;no;150;rightarrow;375;true;focus;yes;1044377;Chrome;112.0;Windows;10;undefined;undefined;1536 x 864;1536 x 864
H003;24;Vrouwelijk;Rechts;4;86;right;no;150;rightarrow;382;true;focus;yes;1045530;Chrome;112.0;Windows;10;undefined;undefined;1536 x 864;1536 x 864
H003;24;Vrouwelijk;Rechts;4;87;left;no;150;leftarrow;344;true;focus;yes;1046656;Chrome;112.0;Windows;10;undefined;undefined;1536 x 864;1536 x 864
H003;24;Vrouwelijk;Rechts;4;88;right;no;150;rightarrow;325;true;focus;yes;1047755;Chrome;112.0;Windows;10;undefined;undefined;1536 x 864;1536 x 864
H003;24;Vrouwelijk;Rechts;4;89;right;no;150;rightarrow;375;true;focus;yes;1048905;Chrome;112.0;Windows;10;undefined;undefined;1536 x 864;1536 x 864
H003;24;Vrouwelijk;Rechts;4;90;left;yes;150;leftarrow;321;false;focus;yes;1050001;Chrome;112.0;Windows;10;undefined;undefined;1536 x 864;1536 x 864
H003;24;Vrouwelijk;Rechts;4;91;left;no;100;rightarrow;265;false;focus;yes;1051048;Chrome;112.0;Windows;10;undefined;undefined;1536 x 864;1536 x 864
H003;24;Vrouwelijk;Rechts;4;92;right;no;100;rightarrow;309;true;focus;yes;1052133;Chrome;112.0;Windows;10;undefined;undefined;1536 x 864;1536 x 864
H003;24;Vrouwelijk;Rechts;4;93;right;no;100;rightarrow;354;true;focus;yes;1053270;Chrome;112.0;Windows;10;undefined;undefined;1536 x 864;1536 x 864
H003;24;Vrouwelijk;Rechts;4;94;left;no;100;leftarrow;432;true;focus;yes;1054478;Chrome;112.0;Windows;10;undefined;undefined;1536 x 864;1536 x 864
H003;24;Vrouwelijk;Rechts;4;95;left;no;100;leftarrow;398;true;focus;yes;1055656;Chrome;112.0;Windows;10;undefined;undefined;1536 x 864;1536 x 864
H003;24;Vrouwelijk;Rechts;4;96;right;yes;100;leftarrow;352;false;focus;yes;1056791;Chrome;112.0;Windows;10;undefined;undefined;1536 x 864;1536 x 864
H003;24;Vrouwelijk;Rechts;4;97;right;no;50;rightarrow;450;true;focus;yes;1058023;Chrome;112.0;Windows;10;undefined;undefined;1536 x 864;1536 x 864
H003;24;Vrouwelijk;Rechts;4;98;right;no;50;rightarrow;434;true;focus;yes;1059234;Chrome;112.0;Windows;10;undefined;undefined;1536 x 864;1536 x 864
H003;24;Vrouwelijk;Rechts;4;99;left;yes;50;leftarrow;417;false;focus;yes;1060428;Chrome;112.0;Windows;10;undefined;undefined;1536 x 864;1536 x 864
H003;24;Vrouwelijk;Rechts;4;100;left;no;50;leftarrow;400;true;focus;yes;1061640;Chrome;112.0;Windows;10;undefined;undefined;1536 x 864;1536 x 864
H003;24;Vrouwelijk;Rechts;4;101;right;yes;50;undefined;null;true;focus;yes;1063672;Chrome;112.0;Windows;10;undefined;undefined;1536 x 864;1536 x 864
H003;24;Vrouwelijk;Rechts;4;102;left;no;100;leftarrow;351;true;focus;yes;1064802;Chrome;112.0;Windows;10;undefined;undefined;1536 x 864;1536 x 864
H003;24;Vrouwelijk;Rechts;4;103;right;no;100;rightarrow;340;true;focus;yes;1065924;Chrome;112.0;Windows;10;undefined;undefined;1536 x 864;1536 x 864
H003;24;Vrouwelijk;Rechts;4;104;left;no;100;leftarrow;315;true;focus;yes;1067015;Chrome;112.0;Windows;10;undefined;undefined;1536 x 864;1536 x 864
H003;24;Vrouwelijk;Rechts;4;105;right;no;100;rightarrow;396;true;focus;yes;1068181;Chrome;112.0;Windows;10;undefined;undefined;1536 x 864;1536 x 864
H003;24;Vrouwelijk;Rechts;4;106;right;no;100;rightarrow;415;true;focus;yes;1069367;Chrome;112.0;Windows;10;undefined;undefined;1536 x 864;1536 x 864
H003;24;Vrouwelijk;Rechts;4;107;left;no;100;leftarrow;369;true;focus;yes;1070516;Chrome;112.0;Windows;10;undefined;undefined;1536 x 864;1536 x 864
H003;24;Vrouwelijk;Rechts;4;108;right;no;100;rightarrow;419;true;focus;yes;1071718;Chrome;112.0;Windows;10;undefined;undefined;1536 x 864;1536 x 864
H003;24;Vrouwelijk;Rechts;4;109;left;no;100;leftarrow;354;true;focus;yes;1072878;Chrome;112.0;Windows;10;undefined;undefined;1536 x 864;1536 x 864
H003;24;Vrouwelijk;Rechts;4;110;right;yes;100;rightarrow;366;false;focus;yes;1074025;Chrome;112.0;Windows;10;undefined;undefined;1536 x 864;1536 x 864
H003;24;Vrouwelijk;Rechts;4;111;left;yes;50;leftarrow;335;false;focus;yes;1075131;Chrome;112.0;Windows;10;undefined;undefined;1536 x 864;1536 x 864
H003;24;Vrouwelijk;Rechts;4;112;left;no;50;leftarrow;414;true;focus;yes;1076326;Chrome;112.0;Windows;10;undefined;undefined;1536 x 864;1536 x 864
H003;24;Vrouwelijk;Rechts;4;113;left;no;50;leftarrow;362;true;focus;yes;1077470;Chrome;112.0;Windows;10;undefined;undefined;1536 x 864;1536 x 864
H003;24;Vrouwelijk;Rechts;4;114;left;no;50;leftarrow;354;true;focus;yes;1078595;Chrome;112.0;Windows;10;undefined;undefined;1536 x 864;1536 x 864
H003;24;Vrouwelijk;Rechts;4;115;left;no;50;leftarrow;358;true;focus;yes;1079734;Chrome;112.0;Windows;10;undefined;undefined;1536 x 864;1536 x 864
H003;24;Vrouwelijk;Rechts;4;116;right;no;50;rightarrow;406;true;focus;yes;1080909;Chrome;112.0;Windows;10;undefined;undefined;1536 x 864;1536 x 864
H003;24;Vrouwelijk;Rechts;4;117;right;no;50;rightarrow;354;true;focus;yes;1082034;Chrome;112.0;Windows;10;undefined;undefined;1536 x 864;1536 x 864
H003;24;Vrouwelijk;Rechts;4;118;right;no;50;rightarrow;443;true;focus;yes;1083257;Chrome;112.0;Windows;10;undefined;undefined;1536 x 864;1536 x 864
H003;24;Vrouwelijk;Rechts;4;119;left;yes;50;leftarrow;403;false;focus;yes;1084468;Chrome;112.0;Windows;10;undefined;undefined;1536 x 864;1536 x 864
H003;24;Vrouwelijk;Rechts;4;120;right;yes;50;rightarrow;305;false;focus;yes;1085547;Chrome;112.0;Windows;10;undefined;undefined;1536 x 864;1536 x 864
H003;24;Vrouwelijk;Rechts;4;121;left;no;50;leftarrow;344;true;focus;yes;1086673;Chrome;112.0;Windows;10;undefined;undefined;1536 x 864;1536 x 864
H003;24;Vrouwelijk;Rechts;4;122;right;no;50;rightarrow;323;true;focus;yes;1087769;Chrome;112.0;Windows;10;undefined;undefined;1536 x 864;1536 x 864
H003;24;Vrouwelijk;Rechts;4;123;left;no;50;leftarrow;293;true;focus;yes;1088841;Chrome;112.0;Windows;10;undefined;undefined;1536 x 864;1536 x 864
H003;24;Vrouwelijk;Rechts;4;124;right;no;50;rightarrow;413;true;focus;yes;1090027;Chrome;112.0;Windows;10;undefined;undefined;1536 x 864;1536 x 864
H003;24;Vrouwelijk;Rechts;4;125;right;yes;50;undefined;null;true;focus;yes;1092064;Chrome;112.0;Windows;10;undefined;undefined;1536 x 864;1536 x 864
H003;24;Vrouwelijk;Rechts;4;126;left;no;100;leftarrow;357;true;focus;yes;1093201;Chrome;112.0;Windows;10;undefined;undefined;1536 x 864;1536 x 864
H003;24;Vrouwelijk;Rechts;4;127;right;no;100;rightarrow;350;true;focus;yes;1094327;Chrome;112.0;Windows;10;undefined;undefined;1536 x 864;1536 x 864
H003;24;Vrouwelijk;Rechts;4;128;left;yes;100;leftarrow;301;false;focus;yes;1095415;Chrome;112.0;Windows;10;undefined;undefined;1536 x 864;1536 x 864
H003;24;Vrouwelijk;Rechts;5;1;left;yes;50;undefined;null;true;focus;yes;1115092;Chrome;112.0;Windows;10;undefined;undefined;1536 x 864;1536 x 864
H003;24;Vrouwelijk;Rechts;5;2;right;no;100;rightarrow;325;true;focus;yes;1116197;Chrome;112.0;Windows;10;undefined;undefined;1536 x 864;1536 x 864
H003;24;Vrouwelijk;Rechts;5;3;right;yes;100;rightarrow;416;false;focus;yes;1117389;Chrome;112.0;Windows;10;undefined;undefined;1536 x 864;1536 x 864
H003;24;Vrouwelijk;Rechts;5;4;left;no;50;leftarrow;353;true;focus;yes;1118520;Chrome;112.0;Windows;10;undefined;undefined;1536 x 864;1536 x 864
H003;24;Vrouwelijk;Rechts;5;5;left;no;50;leftarrow;362;true;focus;yes;1119664;Chrome;112.0;Windows;10;undefined;undefined;1536 x 864;1536 x 864
H003;24;Vrouwelijk;Rechts;5;6;left;no;50;leftarrow;379;true;focus;yes;1120816;Chrome;112.0;Windows;10;undefined;undefined;1536 x 864;1536 x 864
H003;24;Vrouwelijk;Rechts;5;7;right;no;50;rightarrow;345;true;focus;yes;1121947;Chrome;112.0;Windows;10;undefined;undefined;1536 x 864;1536 x 864
H003;24;Vrouwelijk;Rechts;5;8;right;no;50;rightarrow;399;true;focus;yes;1123129;Chrome;112.0;Windows;10;undefined;undefined;1536 x 864;1536 x 864
H003;24;Vrouwelijk;Rechts;5;9;left;yes;50;undefined;null;true;focus;yes;1125165;Chrome;112.0;Windows;10;undefined;undefined;1536 x 864;1536 x 864
H003;24;Vrouwelijk;Rechts;5;10;right;yes;100;rightarrow;327;false;focus;yes;1126274;Chrome;112.0;Windows;10;undefined;undefined;1536 x 864;1536 x 864
H003;24;Vrouwelijk;Rechts;5;11;left;no;50;leftarrow;327;true;focus;yes;1127375;Chrome;112.0;Windows;10;undefined;undefined;1536 x 864;1536 x 864
H003;24;Vrouwelijk;Rechts;5;12;right;no;50;rightarrow;307;true;focus;yes;1128459;Chrome;112.0;Windows;10;undefined;undefined;1536 x 864;1536 x 864
H003;24;Vrouwelijk;Rechts;5;13;right;no;50;rightarrow;447;true;focus;yes;1129687;Chrome;112.0;Windows;10;undefined;undefined;1536 x 864;1536 x 864
H003;24;Vrouwelijk;Rechts;5;14;left;no;50;leftarrow;421;true;focus;yes;1130888;Chrome;112.0;Windows;10;undefined;undefined;1536 x 864;1536 x 864
H003;24;Vrouwelijk;Rechts;5;15;right;no;50;rightarrow;320;true;focus;yes;1131980;Chrome;112.0;Windows;10;undefined;undefined;1536 x 864;1536 x 864
H003;24;Vrouwelijk;Rechts;5;16;left;no;50;leftarrow;357;true;focus;yes;1133137;Chrome;112.0;Windows;10;undefined;undefined;1536 x 864;1536 x 864
H003;24;Vrouwelijk;Rechts;5;17;right;no;50;rightarrow;284;true;focus;yes;1134192;Chrome;112.0;Windows;10;undefined;undefined;1536 x 864;1536 x 864
H003;24;Vrouwelijk;Rechts;5;18;left;no;50;leftarrow;355;true;focus;yes;1135320;Chrome;112.0;Windows;10;undefined;undefined;1536 x 864;1536 x 864
H003;24;Vrouwelijk;Rechts;5;19;right;yes;50;rightarrow;289;false;focus;yes;1136385;Chrome;112.0;Windows;10;undefined;undefined;1536 x 864;1536 x 864
H003;24;Vrouwelijk;Rechts;5;20;right;no;50;leftarrow;345;false;focus;yes;1137515;Chrome;112.0;Windows;10;undefined;undefined;1536 x 864;1536 x 864
H003;24;Vrouwelijk;Rechts;5;21;left;no;50;leftarrow;315;true;focus;yes;1138603;Chrome;112.0;Windows;10;undefined;undefined;1536 x 864;1536 x 864
H003;24;Vrouwelijk;Rechts;5;22;left;yes;50;undefined;null;true;focus;yes;1140630;Chrome;112.0;Windows;10;undefined;undefined;1536 x 864;1536 x 864
H003;24;Vrouwelijk;Rechts;5;23;right;no;100;rightarrow;353;true;focus;yes;1141750;Chrome;112.0;Windows;10;undefined;undefined;1536 x 864;1536 x 864
H003;24;Vrouwelijk;Rechts;5;24;left;no;100;leftarrow;432;true;focus;yes;1142946;Chrome;112.0;Windows;10;undefined;undefined;1536 x 864;1536 x 864
H003;24;Vrouwelijk;Rechts;5;25;left;no;100;leftarrow;349;true;focus;yes;1144053;Chrome;112.0;Windows;10;undefined;undefined;1536 x 864;1536 x 864
H003;24;Vrouwelijk;Rechts;5;26;right;no;100;rightarrow;437;true;focus;yes;1145262;Chrome;112.0;Windows;10;undefined;undefined;1536 x 864;1536 x 864
H003;24;Vrouwelijk;Rechts;5;27;left;yes;100;leftarrow;287;false;focus;yes;1146310;Chrome;112.0;Windows;10;undefined;undefined;1536 x 864;1536 x 864
H003;24;Vrouwelijk;Rechts;5;28;right;no;50;rightarrow;307;true;focus;yes;1147397;Chrome;112.0;Windows;10;undefined;undefined;1536 x 864;1536 x 864
H003;24;Vrouwelijk;Rechts;5;29;left;no;50;leftarrow;489;true;focus;yes;1148664;Chrome;112.0;Windows;10;undefined;undefined;1536 x 864;1536 x 864
H003;24;Vrouwelijk;Rechts;5;30;right;yes;50;undefined;null;true;focus;yes;1150741;Chrome;112.0;Windows;10;undefined;undefined;1536 x 864;1536 x 864
H003;24;Vrouwelijk;Rechts;5;31;left;no;100;leftarrow;409;true;focus;yes;1151944;Chrome;112.0;Windows;10;undefined;undefined;1536 x 864;1536 x 864
H003;24;Vrouwelijk;Rechts;5;32;right;no;100;rightarrow;361;true;focus;yes;1153080;Chrome;112.0;Windows;10;undefined;undefined;1536 x 864;1536 x 864
H003;24;Vrouwelijk;Rechts;5;33;right;no;100;rightarrow;373;true;focus;yes;1154222;Chrome;112.0;Windows;10;undefined;undefined;1536 x 864;1536 x 864
H003;24;Vrouwelijk;Rechts;5;34;right;no;100;rightarrow;364;true;focus;yes;1155364;Chrome;112.0;Windows;10;undefined;undefined;1536 x 864;1536 x 864
H003;24;Vrouwelijk;Rechts;5;35;left;no;100;leftarrow;425;true;focus;yes;1156568;Chrome;112.0;Windows;10;undefined;undefined;1536 x 864;1536 x 864
H003;24;Vrouwelijk;Rechts;5;36;left;yes;100;leftarrow;384;false;focus;yes;1157746;Chrome;112.0;Windows;10;undefined;undefined;1536 x 864;1536 x 864
H003;24;Vrouwelijk;Rechts;5;37;left;no;50;leftarrow;429;true;focus;yes;1158958;Chrome;112.0;Windows;10;undefined;undefined;1536 x 864;1536 x 864
H003;24;Vrouwelijk;Rechts;5;38;left;no;50;leftarrow;357;true;focus;yes;1160086;Chrome;112.0;Windows;10;undefined;undefined;1536 x 864;1536 x 864
H003;24;Vrouwelijk;Rechts;5;39;right;no;50;rightarrow;394;true;focus;yes;1161259;Chrome;112.0;Windows;10;undefined;undefined;1536 x 864;1536 x 864
H003;24;Vrouwelijk;Rechts;5;40;right;yes;50;undefined;null;true;focus;yes;1163320;Chrome;112.0;Windows;10;undefined;undefined;1536 x 864;1536 x 864
H003;24;Vrouwelijk;Rechts;5;41;right;no;100;rightarrow;385;true;focus;yes;1164486;Chrome;112.0;Windows;10;undefined;undefined;1536 x 864;1536 x 864
H003;24;Vrouwelijk;Rechts;5;42;left;no;100;leftarrow;406;true;focus;yes;1165655;Chrome;112.0;Windows;10;undefined;undefined;1536 x 864;1536 x 864
H003;24;Vrouwelijk;Rechts;5;43;right;yes;100;rightarrow;377;false;focus;yes;1166808;Chrome;112.0;Windows;10;undefined;undefined;1536 x 864;1536 x 864
H003;24;Vrouwelijk;Rechts;5;44;left;yes;50;leftarrow;302;false;focus;yes;1167883;Chrome;112.0;Windows;10;undefined;undefined;1536 x 864;1536 x 864
H003;24;Vrouwelijk;Rechts;5;45;left;no;50;rightarrow;288;false;focus;yes;1168956;Chrome;112.0;Windows;10;undefined;undefined;1536 x 864;1536 x 864
H003;24;Vrouwelijk;Rechts;5;46;left;no;50;leftarrow;555;true;focus;yes;1170290;Chrome;112.0;Windows;10;undefined;undefined;1536 x 864;1536 x 864
H003;24;Vrouwelijk;Rechts;5;47;right;no;50;rightarrow;489;true;focus;yes;1171561;Chrome;112.0;Windows;10;undefined;undefined;1536 x 864;1536 x 864
H003;24;Vrouwelijk;Rechts;5;48;right;no;50;rightarrow;373;true;focus;yes;1172703;Chrome;112.0;Windows;10;undefined;undefined;1536 x 864;1536 x 864
H003;24;Vrouwelijk;Rechts;5;49;left;yes;50;undefined;null;true;focus;yes;1174735;Chrome;112.0;Windows;10;undefined;undefined;1536 x 864;1536 x 864
H003;24;Vrouwelijk;Rechts;5;50;right;no;100;rightarrow;387;true;focus;yes;1175903;Chrome;112.0;Windows;10;undefined;undefined;1536 x 864;1536 x 864
H003;24;Vrouwelijk;Rechts;5;51;left;no;100;leftarrow;406;true;focus;yes;1177087;Chrome;112.0;Windows;10;undefined;undefined;1536 x 864;1536 x 864
H003;24;Vrouwelijk;Rechts;5;52;right;no;100;rightarrow;328;true;focus;yes;1178191;Chrome;112.0;Windows;10;undefined;undefined;1536 x 864;1536 x 864
H003;24;Vrouwelijk;Rechts;5;53;right;yes;100;undefined;null;true;focus;yes;1180210;Chrome;112.0;Windows;10;undefined;undefined;1536 x 864;1536 x 864
H003;24;Vrouwelijk;Rechts;5;54;left;no;150;leftarrow;504;true;focus;yes;1181494;Chrome;112.0;Windows;10;undefined;undefined;1536 x 864;1536 x 864
H003;24;Vrouwelijk;Rechts;5;55;left;no;150;leftarrow;414;true;focus;yes;1182682;Chrome;112.0;Windows;10;undefined;undefined;1536 x 864;1536 x 864
H003;24;Vrouwelijk;Rechts;5;56;right;no;150;rightarrow;378;true;focus;yes;1183829;Chrome;112.0;Windows;10;undefined;undefined;1536 x 864;1536 x 864
H003;24;Vrouwelijk;Rechts;5;57;right;no;150;rightarrow;407;true;focus;yes;1185008;Chrome;112.0;Windows;10;undefined;undefined;1536 x 864;1536 x 864
H003;24;Vrouwelijk;Rechts;5;58;left;yes;150;leftarrow;370;false;focus;yes;1186149;Chrome;112.0;Windows;10;undefined;undefined;1536 x 864;1536 x 864
H003;24;Vrouwelijk;Rechts;5;59;left;no;100;leftarrow;397;true;focus;yes;1187339;Chrome;112.0;Windows;10;undefined;undefined;1536 x 864;1536 x 864
H003;24;Vrouwelijk;Rechts;5;60;right;yes;100;rightarrow;429;false;focus;yes;1188554;Chrome;112.0;Windows;10;undefined;undefined;1536 x 864;1536 x 864
H003;24;Vrouwelijk;Rechts;5;61;right;no;50;rightarrow;475;true;focus;yes;1189798;Chrome;112.0;Windows;10;undefined;undefined;1536 x 864;1536 x 864
H003;24;Vrouwelijk;Rechts;5;62;right;no;50;rightarrow;344;true;focus;yes;1190924;Chrome;112.0;Windows;10;undefined;undefined;1536 x 864;1536 x 864
H003;24;Vrouwelijk;Rechts;5;63;left;no;50;leftarrow;387;true;focus;yes;1192084;Chrome;112.0;Windows;10;undefined;undefined;1536 x 864;1536 x 864
H003;24;Vrouwelijk;Rechts;5;64;left;no;50;leftarrow;415;true;focus;yes;1193292;Chrome;112.0;Windows;10;undefined;undefined;1536 x 864;1536 x 864
H003;24;Vrouwelijk;Rechts;5;65;left;yes;50;leftarrow;341;false;focus;yes;1194416;Chrome;112.0;Windows;10;undefined;undefined;1536 x 864;1536 x 864
H003;24;Vrouwelijk;Rechts;5;66;right;no;50;rightarrow;422;true;focus;yes;1195612;Chrome;112.0;Windows;10;undefined;undefined;1536 x 864;1536 x 864
H003;24;Vrouwelijk;Rechts;5;67;right;no;50;rightarrow;335;true;focus;yes;1196719;Chrome;112.0;Windows;10;undefined;undefined;1536 x 864;1536 x 864
H003;24;Vrouwelijk;Rechts;5;68;left;no;50;leftarrow;399;true;focus;yes;1197899;Chrome;112.0;Windows;10;undefined;undefined;1536 x 864;1536 x 864
H003;24;Vrouwelijk;Rechts;5;69;right;yes;50;undefined;null;true;focus;yes;1199980;Chrome;112.0;Windows;10;undefined;undefined;1536 x 864;1536 x 864
H003;24;Vrouwelijk;Rechts;5;70;right;no;100;rightarrow;372;true;focus;yes;1201133;Chrome;112.0;Windows;10;undefined;undefined;1536 x 864;1536 x 864
H003;24;Vrouwelijk;Rechts;5;71;left;no;100;leftarrow;370;true;focus;yes;1202281;Chrome;112.0;Windows;10;undefined;undefined;1536 x 864;1536 x 864
H003;24;Vrouwelijk;Rechts;5;72;left;no;100;leftarrow;340;true;focus;yes;1203378;Chrome;112.0;Windows;10;undefined;undefined;1536 x 864;1536 x 864
H003;24;Vrouwelijk;Rechts;5;73;right;no;100;rightarrow;384;true;focus;yes;1204542;Chrome;112.0;Windows;10;undefined;undefined;1536 x 864;1536 x 864
H003;24;Vrouwelijk;Rechts;5;74;right;no;100;rightarrow;493;true;focus;yes;1205815;Chrome;112.0;Windows;10;undefined;undefined;1536 x 864;1536 x 864
H003;24;Vrouwelijk;Rechts;5;75;left;no;100;leftarrow;335;true;focus;yes;1206959;Chrome;112.0;Windows;10;undefined;undefined;1536 x 864;1536 x 864
H003;24;Vrouwelijk;Rechts;5;76;right;yes;100;rightarrow;305;false;focus;yes;1208046;Chrome;112.0;Windows;10;undefined;undefined;1536 x 864;1536 x 864
H003;24;Vrouwelijk;Rechts;5;77;left;no;50;leftarrow;295;true;focus;yes;1209125;Chrome;112.0;Windows;10;undefined;undefined;1536 x 864;1536 x 864
H003;24;Vrouwelijk;Rechts;5;78;left;no;50;leftarrow;389;true;focus;yes;1210292;Chrome;112.0;Windows;10;undefined;undefined;1536 x 864;1536 x 864
H003;24;Vrouwelijk;Rechts;5;79;left;yes;50;undefined;null;true;focus;yes;1212327;Chrome;112.0;Windows;10;undefined;undefined;1536 x 864;1536 x 864
H003;24;Vrouwelijk;Rechts;5;80;right;no;100;rightarrow;353;true;focus;yes;1213477;Chrome;112.0;Windows;10;undefined;undefined;1536 x 864;1536 x 864
H003;24;Vrouwelijk;Rechts;5;81;right;no;100;rightarrow;361;true;focus;yes;1214621;Chrome;112.0;Windows;10;undefined;undefined;1536 x 864;1536 x 864
H003;24;Vrouwelijk;Rechts;5;82;left;no;100;leftarrow;352;true;focus;yes;1215750;Chrome;112.0;Windows;10;undefined;undefined;1536 x 864;1536 x 864
H003;24;Vrouwelijk;Rechts;5;83;right;yes;100;rightarrow;288;false;focus;yes;1216822;Chrome;112.0;Windows;10;undefined;undefined;1536 x 864;1536 x 864
H003;24;Vrouwelijk;Rechts;5;84;left;no;50;leftarrow;318;true;focus;yes;1217923;Chrome;112.0;Windows;10;undefined;undefined;1536 x 864;1536 x 864
H003;24;Vrouwelijk;Rechts;5;85;left;no;50;leftarrow;396;true;focus;yes;1219105;Chrome;112.0;Windows;10;undefined;undefined;1536 x 864;1536 x 864
H003;24;Vrouwelijk;Rechts;5;86;right;no;50;rightarrow;371;true;focus;yes;1220249;Chrome;112.0;Windows;10;undefined;undefined;1536 x 864;1536 x 864
H003;24;Vrouwelijk;Rechts;5;87;left;yes;50;leftarrow;314;false;focus;yes;1221344;Chrome;112.0;Windows;10;undefined;undefined;1536 x 864;1536 x 864
H003;24;Vrouwelijk;Rechts;5;88;right;no;50;rightarrow;344;true;focus;yes;1222459;Chrome;112.0;Windows;10;undefined;undefined;1536 x 864;1536 x 864
H003;24;Vrouwelijk;Rechts;5;89;left;no;50;leftarrow;355;true;focus;yes;1223590;Chrome;112.0;Windows;10;undefined;undefined;1536 x 864;1536 x 864
H003;24;Vrouwelijk;Rechts;5;90;right;yes;50;rightarrow;338;false;focus;yes;1224707;Chrome;112.0;Windows;10;undefined;undefined;1536 x 864;1536 x 864
H003;24;Vrouwelijk;Rechts;5;91;left;no;50;leftarrow;333;true;focus;yes;1225820;Chrome;112.0;Windows;10;undefined;undefined;1536 x 864;1536 x 864
H003;24;Vrouwelijk;Rechts;5;92;right;no;50;rightarrow;369;true;focus;yes;1226955;Chrome;112.0;Windows;10;undefined;undefined;1536 x 864;1536 x 864
H003;24;Vrouwelijk;Rechts;5;93;left;no;50;leftarrow;357;true;focus;yes;1228096;Chrome;112.0;Windows;10;undefined;undefined;1536 x 864;1536 x 864
H003;24;Vrouwelijk;Rechts;5;94;right;no;50;rightarrow;402;true;focus;yes;1229274;Chrome;112.0;Windows;10;undefined;undefined;1536 x 864;1536 x 864
H003;24;Vrouwelijk;Rechts;5;95;right;no;50;leftarrow;357;false;focus;yes;1230440;Chrome;112.0;Windows;10;undefined;undefined;1536 x 864;1536 x 864
H003;24;Vrouwelijk;Rechts;5;96;left;yes;50;leftarrow;294;false;focus;yes;1231503;Chrome;112.0;Windows;10;undefined;undefined;1536 x 864;1536 x 864
H003;24;Vrouwelijk;Rechts;5;97;left;no;50;leftarrow;386;true;focus;yes;1232665;Chrome;112.0;Windows;10;undefined;undefined;1536 x 864;1536 x 864
H003;24;Vrouwelijk;Rechts;5;98;right;no;50;rightarrow;438;true;focus;yes;1233884;Chrome;112.0;Windows;10;undefined;undefined;1536 x 864;1536 x 864
H003;24;Vrouwelijk;Rechts;5;99;left;yes;50;leftarrow;390;false;focus;yes;1235045;Chrome;112.0;Windows;10;undefined;undefined;1536 x 864;1536 x 864
H003;24;Vrouwelijk;Rechts;5;100;right;yes;50;rightarrow;336;false;focus;yes;1236172;Chrome;112.0;Windows;10;undefined;undefined;1536 x 864;1536 x 864
H003;24;Vrouwelijk;Rechts;5;101;left;no;50;leftarrow;354;true;focus;yes;1237307;Chrome;112.0;Windows;10;undefined;undefined;1536 x 864;1536 x 864
H003;24;Vrouwelijk;Rechts;5;102;left;no;50;leftarrow;459;true;focus;yes;1238529;Chrome;112.0;Windows;10;undefined;undefined;1536 x 864;1536 x 864
H003;24;Vrouwelijk;Rechts;5;103;right;no;50;rightarrow;424;true;focus;yes;1239724;Chrome;112.0;Windows;10;undefined;undefined;1536 x 864;1536 x 864
H003;24;Vrouwelijk;Rechts;5;104;right;no;50;rightarrow;342;true;focus;yes;1240837;Chrome;112.0;Windows;10;undefined;undefined;1536 x 864;1536 x 864
H003;24;Vrouwelijk;Rechts;5;105;left;no;50;rightarrow;354;false;focus;yes;1241987;Chrome;112.0;Windows;10;undefined;undefined;1536 x 864;1536 x 864
H003;24;Vrouwelijk;Rechts;5;106;left;yes;50;leftarrow;482;false;focus;yes;1243250;Chrome;112.0;Windows;10;undefined;undefined;1536 x 864;1536 x 864
H003;24;Vrouwelijk;Rechts;5;107;left;no;50;leftarrow;367;true;focus;yes;1244391;Chrome;112.0;Windows;10;undefined;undefined;1536 x 864;1536 x 864
H003;24;Vrouwelijk;Rechts;5;108;right;no;50;rightarrow;363;true;focus;yes;1245538;Chrome;112.0;Windows;10;undefined;undefined;1536 x 864;1536 x 864
H003;24;Vrouwelijk;Rechts;5;109;left;no;50;leftarrow;385;true;focus;yes;1246698;Chrome;112.0;Windows;10;undefined;undefined;1536 x 864;1536 x 864
H003;24;Vrouwelijk;Rechts;5;110;right;no;50;rightarrow;348;true;focus;yes;1247824;Chrome;112.0;Windows;10;undefined;undefined;1536 x 864;1536 x 864
H003;24;Vrouwelijk;Rechts;5;111;right;no;50;rightarrow;347;true;focus;yes;1248941;Chrome;112.0;Windows;10;undefined;undefined;1536 x 864;1536 x 864
H003;24;Vrouwelijk;Rechts;5;112;right;yes;50;undefined;null;true;focus;yes;1250964;Chrome;112.0;Windows;10;undefined;undefined;1536 x 864;1536 x 864
H003;24;Vrouwelijk;Rechts;5;113;left;yes;100;leftarrow;384;false;focus;yes;1252124;Chrome;112.0;Windows;10;undefined;undefined;1536 x 864;1536 x 864
H003;24;Vrouwelijk;Rechts;5;114;right;yes;50;undefined;null;true;focus;yes;1254187;Chrome;112.0;Windows;10;undefined;undefined;1536 x 864;1536 x 864
H003;24;Vrouwelijk;Rechts;5;115;right;no;100;rightarrow;321;true;focus;yes;1255300;Chrome;112.0;Windows;10;undefined;undefined;1536 x 864;1536 x 864
H003;24;Vrouwelijk;Rechts;5;116;left;no;100;leftarrow;311;true;focus;yes;1256392;Chrome;112.0;Windows;10;undefined;undefined;1536 x 864;1536 x 864
H003;24;Vrouwelijk;Rechts;5;117;left;no;100;rightarrow;356;false;focus;yes;1257523;Chrome;112.0;Windows;10;undefined;undefined;1536 x 864;1536 x 864
H003;24;Vrouwelijk;Rechts;5;118;left;no;100;leftarrow;419;true;focus;yes;1258721;Chrome;112.0;Windows;10;undefined;undefined;1536 x 864;1536 x 864
H003;24;Vrouwelijk;Rechts;5;119;right;no;100;rightarrow;368;true;focus;yes;1259862;Chrome;112.0;Windows;10;undefined;undefined;1536 x 864;1536 x 864
H003;24;Vrouwelijk;Rechts;5;120;right;no;100;rightarrow;417;true;focus;yes;1261061;Chrome;112.0;Windows;10;undefined;undefined;1536 x 864;1536 x 864
H003;24;Vrouwelijk;Rechts;5;121;right;no;100;rightarrow;380;true;focus;yes;1262223;Chrome;112.0;Windows;10;undefined;undefined;1536 x 864;1536 x 864
H003;24;Vrouwelijk;Rechts;5;122;right;yes;100;undefined;null;true;focus;yes;1264255;Chrome;112.0;Windows;10;undefined;undefined;1536 x 864;1536 x 864
H003;24;Vrouwelijk;Rechts;5;123;right;no;150;rightarrow;448;true;focus;yes;1265485;Chrome;112.0;Windows;10;undefined;undefined;1536 x 864;1536 x 864
H003;24;Vrouwelijk;Rechts;5;124;left;yes;150;leftarrow;341;false;focus;yes;1266608;Chrome;112.0;Windows;10;undefined;undefined;1536 x 864;1536 x 864
H003;24;Vrouwelijk;Rechts;5;125;left;no;100;leftarrow;472;true;focus;yes;1267855;Chrome;112.0;Windows;10;undefined;undefined;1536 x 864;1536 x 864
H003;24;Vrouwelijk;Rechts;5;126;left;no;100;leftarrow;377;true;focus;yes;1269003;Chrome;112.0;Windows;10;undefined;undefined;1536 x 864;1536 x 864
H003;24;Vrouwelijk;Rechts;5;127;right;no;100;rightarrow;389;true;focus;yes;1270166;Chrome;112.0;Windows;10;undefined;undefined;1536 x 864;1536 x 864
H003;24;Vrouwelijk;Rechts;5;128;left;no;100;leftarrow;330;true;focus;yes;1271270;Chrome;112.0;Windows;10;undefined;undefined;1536 x 864;1536 x 864
H003;24;Vrouwelijk;Rechts;6;1;right;no;100;rightarrow;421;true;focus;yes;1290460;Chrome;112.0;Windows;10;undefined;undefined;1536 x 864;1536 x 864
H003;24;Vrouwelijk;Rechts;6;2;left;no;100;leftarrow;408;true;focus;yes;1291645;Chrome;112.0;Windows;10;undefined;undefined;1536 x 864;1536 x 864
H003;24;Vrouwelijk;Rechts;6;3;right;no;100;rightarrow;368;true;focus;yes;1292790;Chrome;112.0;Windows;10;undefined;undefined;1536 x 864;1536 x 864
H003;24;Vrouwelijk;Rechts;6;4;left;no;100;leftarrow;296;true;focus;yes;1293871;Chrome;112.0;Windows;10;undefined;undefined;1536 x 864;1536 x 864
H003;24;Vrouwelijk;Rechts;6;5;right;yes;100;rightarrow;335;false;focus;yes;1294982;Chrome;112.0;Windows;10;undefined;undefined;1536 x 864;1536 x 864
H003;24;Vrouwelijk;Rechts;6;6;left;yes;50;leftarrow;301;false;focus;yes;1296056;Chrome;112.0;Windows;10;undefined;undefined;1536 x 864;1536 x 864
H003;24;Vrouwelijk;Rechts;6;7;left;no;50;leftarrow;431;true;focus;yes;1297259;Chrome;112.0;Windows;10;undefined;undefined;1536 x 864;1536 x 864
H003;24;Vrouwelijk;Rechts;6;8;right;no;50;rightarrow;384;true;focus;yes;1298416;Chrome;112.0;Windows;10;undefined;undefined;1536 x 864;1536 x 864
H003;24;Vrouwelijk;Rechts;6;9;right;yes;50;undefined;null;true;focus;yes;1300458;Chrome;112.0;Windows;10;undefined;undefined;1536 x 864;1536 x 864
H003;24;Vrouwelijk;Rechts;6;10;right;no;100;rightarrow;366;true;focus;yes;1301605;Chrome;112.0;Windows;10;undefined;undefined;1536 x 864;1536 x 864
H003;24;Vrouwelijk;Rechts;6;11;right;no;100;rightarrow;429;true;focus;yes;1302804;Chrome;112.0;Windows;10;undefined;undefined;1536 x 864;1536 x 864
H003;24;Vrouwelijk;Rechts;6;12;right;no;100;rightarrow;380;true;focus;yes;1303962;Chrome;112.0;Windows;10;undefined;undefined;1536 x 864;1536 x 864
H003;24;Vrouwelijk;Rechts;6;13;left;yes;100;undefined;null;true;focus;yes;1305993;Chrome;112.0;Windows;10;undefined;undefined;1536 x 864;1536 x 864
H003;24;Vrouwelijk;Rechts;6;14;left;no;150;leftarrow;341;true;focus;yes;1307116;Chrome;112.0;Windows;10;undefined;undefined;1536 x 864;1536 x 864
H003;24;Vrouwelijk;Rechts;6;15;left;no;150;leftarrow;350;true;focus;yes;1308244;Chrome;112.0;Windows;10;undefined;undefined;1536 x 864;1536 x 864
H003;24;Vrouwelijk;Rechts;6;16;left;no;150;leftarrow;399;true;focus;yes;1309426;Chrome;112.0;Windows;10;undefined;undefined;1536 x 864;1536 x 864
H003;24;Vrouwelijk;Rechts;6;17;left;no;150;leftarrow;345;true;focus;yes;1310550;Chrome;112.0;Windows;10;undefined;undefined;1536 x 864;1536 x 864
H003;24;Vrouwelijk;Rechts;6;18;left;yes;150;leftarrow;328;false;focus;yes;1311652;Chrome;112.0;Windows;10;undefined;undefined;1536 x 864;1536 x 864
H003;24;Vrouwelijk;Rechts;6;19;right;no;100;rightarrow;283;true;focus;yes;1312712;Chrome;112.0;Windows;10;undefined;undefined;1536 x 864;1536 x 864
H003;24;Vrouwelijk;Rechts;6;20;right;no;100;rightarrow;342;true;focus;yes;1313824;Chrome;112.0;Windows;10;undefined;undefined;1536 x 864;1536 x 864
H003;24;Vrouwelijk;Rechts;6;21;left;no;100;leftarrow;445;true;focus;yes;1315048;Chrome;112.0;Windows;10;undefined;undefined;1536 x 864;1536 x 864
H003;24;Vrouwelijk;Rechts;6;22;right;no;100;rightarrow;366;true;focus;yes;1316198;Chrome;112.0;Windows;10;undefined;undefined;1536 x 864;1536 x 864
H003;24;Vrouwelijk;Rechts;6;23;right;yes;100;undefined;null;true;focus;yes;1318236;Chrome;112.0;Windows;10;undefined;undefined;1536 x 864;1536 x 864
H003;24;Vrouwelijk;Rechts;6;24;left;no;150;leftarrow;358;true;focus;yes;1319375;Chrome;112.0;Windows;10;undefined;undefined;1536 x 864;1536 x 864
H003;24;Vrouwelijk;Rechts;6;25;right;yes;150;rightarrow;335;false;focus;yes;1320487;Chrome;112.0;Windows;10;undefined;undefined;1536 x 864;1536 x 864
H003;24;Vrouwelijk;Rechts;6;26;right;no;100;leftarrow;232;false;focus;yes;1321493;Chrome;112.0;Windows;10;undefined;undefined;1536 x 864;1536 x 864
H003;24;Vrouwelijk;Rechts;6;27;right;no;100;rightarrow;409;true;focus;yes;1322679;Chrome;112.0;Windows;10;undefined;undefined;1536 x 864;1536 x 864
H003;24;Vrouwelijk;Rechts;6;28;left;no;100;leftarrow;382;true;focus;yes;1323845;Chrome;112.0;Windows;10;undefined;undefined;1536 x 864;1536 x 864
