participantID;age;gender;handedness;block_i;trial_i;stim;signal;SSD;response;rt;correct;focus;Fullscreen;time_elapsed;browser_name;browser_version;os_name;os_version;tablet;mobile;screen_resolution;window_resolution
H018;53;Mannelijk;Rechts;0;1;left;no;200;leftarrow;517;true;focus;yes;140352;Chrome;112.0;macOS;10.15.7;undefined;undefined;1440 x 900;1440 x 900
H018;53;Mannelijk;Rechts;0;2;left;no;200;leftarrow;422;true;focus;yes;142300;Chrome;112.0;macOS;10.15.7;undefined;undefined;1440 x 900;1440 x 900
H018;53;Mannelijk;Rechts;0;3;right;yes;200;rightarrow;354;false;focus;yes;144179;Chrome;112.0;macOS;10.15.7;undefined;undefined;1440 x 900;1440 x 900
H018;53;Mannelijk;Rechts;0;4;right;no;150;rightarrow;418;true;focus;yes;146125;Chrome;112.0;macOS;10.15.7;undefined;undefined;1440 x 900;1440 x 900
H018;53;Mannelijk;Rechts;0;5;left;yes;150;leftarrow;419;false;focus;yes;148081;Chrome;112.0;macOS;10.15.7;undefined;undefined;1440 x 900;1440 x 900
H018;53;Mannelijk;Rechts;0;6;right;no;100;rightarrow;754;true;focus;yes;150356;Chrome;112.0;macOS;10.15.7;undefined;undefined;1440 x 900;1440 x 900
H018;53;Mannelijk;Rechts;0;7;right;no;100;rightarrow;595;true;focus;yes;152467;Chrome;112.0;macOS;10.15.7;undefined;undefined;1440 x 900;1440 x 900
H018;53;Mannelijk;Rechts;0;8;left;no;100;leftarrow;586;true;focus;yes;154575;Chrome;112.0;macOS;10.15.7;undefined;undefined;1440 x 900;1440 x 900
H018;53;Mannelijk;Rechts;1;1;right;yes;100;undefined;null;true;focus;yes;176638;Chrome;112.0;macOS;10.15.7;undefined;undefined;1440 x 900;1440 x 900
H018;53;Mannelijk;Rechts;1;2;left;yes;150;leftarrow;415;false;focus;yes;177815;Chrome;112.0;macOS;10.15.7;undefined;undefined;1440 x 900;1440 x 900
H018;53;Mannelijk;Rechts;1;3;left;no;100;leftarrow;457;true;focus;yes;179028;Chrome;112.0;macOS;10.15.7;undefined;undefined;1440 x 900;1440 x 900
H018;53;Mannelijk;Rechts;1;4;right;no;100;rightarrow;430;true;focus;yes;180221;Chrome;112.0;macOS;10.15.7;undefined;undefined;1440 x 900;1440 x 900
H018;53;Mannelijk;Rechts;1;5;left;no;100;leftarrow;534;true;focus;yes;181517;Chrome;112.0;macOS;10.15.7;undefined;undefined;1440 x 900;1440 x 900
H018;53;Mannelijk;Rechts;1;6;right;no;100;rightarrow;376;true;focus;yes;182656;Chrome;112.0;macOS;10.15.7;undefined;undefined;1440 x 900;1440 x 900
H018;53;Mannelijk;Rechts;1;7;right;no;100;rightarrow;339;true;focus;yes;183763;Chrome;112.0;macOS;10.15.7;undefined;undefined;1440 x 900;1440 x 900
H018;53;Mannelijk;Rechts;1;8;left;no;100;leftarrow;335;true;focus;yes;184862;Chrome;112.0;macOS;10.15.7;undefined;undefined;1440 x 900;1440 x 900
H018;53;Mannelijk;Rechts;1;9;left;yes;100;rightarrow;305;false;focus;yes;185928;Chrome;112.0;macOS;10.15.7;undefined;undefined;1440 x 900;1440 x 900
H018;53;Mannelijk;Rechts;1;10;right;yes;50;undefined;null;true;focus;yes;187948;Chrome;112.0;macOS;10.15.7;undefined;undefined;1440 x 900;1440 x 900
H018;53;Mannelijk;Rechts;1;11;right;no;100;rightarrow;418;true;focus;yes;189134;Chrome;112.0;macOS;10.15.7;undefined;undefined;1440 x 900;1440 x 900
H018;53;Mannelijk;Rechts;1;12;left;no;100;leftarrow;389;true;focus;yes;190284;Chrome;112.0;macOS;10.15.7;undefined;undefined;1440 x 900;1440 x 900
H018;53;Mannelijk;Rechts;1;13;right;no;100;rightarrow;360;true;focus;yes;191404;Chrome;112.0;macOS;10.15.7;undefined;undefined;1440 x 900;1440 x 900
H018;53;Mannelijk;Rechts;1;14;left;no;100;leftarrow;354;true;focus;yes;192521;Chrome;112.0;macOS;10.15.7;undefined;undefined;1440 x 900;1440 x 900
H018;53;Mannelijk;Rechts;1;15;left;no;100;rightarrow;322;false;focus;yes;193609;Chrome;112.0;macOS;10.15.7;undefined;undefined;1440 x 900;1440 x 900
H018;53;Mannelijk;Rechts;1;16;right;no;100;rightarrow;642;true;focus;yes;195016;Chrome;112.0;macOS;10.15.7;undefined;undefined;1440 x 900;1440 x 900
H018;53;Mannelijk;Rechts;1;17;right;no;100;rightarrow;436;true;focus;yes;196222;Chrome;112.0;macOS;10.15.7;undefined;undefined;1440 x 900;1440 x 900
H018;53;Mannelijk;Rechts;1;18;left;yes;100;leftarrow;426;false;focus;yes;197405;Chrome;112.0;macOS;10.15.7;undefined;undefined;1440 x 900;1440 x 900
H018;53;Mannelijk;Rechts;1;19;right;no;50;rightarrow;799;true;focus;yes;198966;Chrome;112.0;macOS;10.15.7;undefined;undefined;1440 x 900;1440 x 900
H018;53;Mannelijk;Rechts;1;20;left;no;50;leftarrow;542;true;focus;yes;200270;Chrome;112.0;macOS;10.15.7;undefined;undefined;1440 x 900;1440 x 900
H018;53;Mannelijk;Rechts;1;21;right;no;50;rightarrow;645;true;focus;yes;201678;Chrome;112.0;macOS;10.15.7;undefined;undefined;1440 x 900;1440 x 900
H018;53;Mannelijk;Rechts;1;22;right;yes;50;undefined;null;true;focus;yes;203695;Chrome;112.0;macOS;10.15.7;undefined;undefined;1440 x 900;1440 x 900
H018;53;Mannelijk;Rechts;1;23;left;no;100;leftarrow;363;true;focus;yes;204820;Chrome;112.0;macOS;10.15.7;undefined;undefined;1440 x 900;1440 x 900
H018;53;Mannelijk;Rechts;1;24;left;no;100;leftarrow;349;true;focus;yes;205933;Chrome;112.0;macOS;10.15.7;undefined;undefined;1440 x 900;1440 x 900
H018;53;Mannelijk;Rechts;1;25;right;no;100;rightarrow;410;true;focus;yes;207105;Chrome;112.0;macOS;10.15.7;undefined;undefined;1440 x 900;1440 x 900
H018;53;Mannelijk;Rechts;1;26;left;no;100;leftarrow;373;true;focus;yes;208239;Chrome;112.0;macOS;10.15.7;undefined;undefined;1440 x 900;1440 x 900
H018;53;Mannelijk;Rechts;1;27;right;yes;100;undefined;null;true;focus;yes;210257;Chrome;112.0;macOS;10.15.7;undefined;undefined;1440 x 900;1440 x 900
H018;53;Mannelijk;Rechts;1;28;left;no;150;leftarrow;350;true;focus;yes;211375;Chrome;112.0;macOS;10.15.7;undefined;undefined;1440 x 900;1440 x 900
H018;53;Mannelijk;Rechts;1;29;right;no;150;rightarrow;390;true;focus;yes;212527;Chrome;112.0;macOS;10.15.7;undefined;undefined;1440 x 900;1440 x 900
H018;53;Mannelijk;Rechts;1;30;right;no;150;rightarrow;508;true;focus;yes;213798;Chrome;112.0;macOS;10.15.7;undefined;undefined;1440 x 900;1440 x 900
H018;53;Mannelijk;Rechts;1;31;left;no;150;leftarrow;374;true;focus;yes;214935;Chrome;112.0;macOS;10.15.7;undefined;undefined;1440 x 900;1440 x 900
H018;53;Mannelijk;Rechts;1;32;left;yes;150;leftarrow;383;false;focus;yes;216075;Chrome;112.0;macOS;10.15.7;undefined;undefined;1440 x 900;1440 x 900
H018;53;Mannelijk;Rechts;1;33;right;no;100;rightarrow;597;true;focus;yes;217438;Chrome;112.0;macOS;10.15.7;undefined;undefined;1440 x 900;1440 x 900
H018;53;Mannelijk;Rechts;1;34;left;no;100;leftarrow;476;true;focus;yes;218676;Chrome;112.0;macOS;10.15.7;undefined;undefined;1440 x 900;1440 x 900
H018;53;Mannelijk;Rechts;1;35;right;yes;100;undefined;null;true;focus;yes;220698;Chrome;112.0;macOS;10.15.7;undefined;undefined;1440 x 900;1440 x 900
H018;53;Mannelijk;Rechts;1;36;left;yes;150;leftarrow;359;false;focus;yes;221832;Chrome;112.0;macOS;10.15.7;undefined;undefined;1440 x 900;1440 x 900
H018;53;Mannelijk;Rechts;1;37;right;no;100;rightarrow;439;true;focus;yes;223031;Chrome;112.0;macOS;10.15.7;undefined;undefined;1440 x 900;1440 x 900
H018;53;Mannelijk;Rechts;1;38;right;no;100;rightarrow;324;true;focus;yes;224113;Chrome;112.0;macOS;10.15.7;undefined;undefined;1440 x 900;1440 x 900
H018;53;Mannelijk;Rechts;1;39;left;no;100;leftarrow;376;true;focus;yes;225258;Chrome;112.0;macOS;10.15.7;undefined;undefined;1440 x 900;1440 x 900
H018;53;Mannelijk;Rechts;1;40;left;no;100;leftarrow;411;true;focus;yes;226436;Chrome;112.0;macOS;10.15.7;undefined;undefined;1440 x 900;1440 x 900
H018;53;Mannelijk;Rechts;1;41;right;no;100;rightarrow;359;true;focus;yes;227562;Chrome;112.0;macOS;10.15.7;undefined;undefined;1440 x 900;1440 x 900
H018;53;Mannelijk;Rechts;1;42;right;no;100;rightarrow;479;true;focus;yes;228809;Chrome;112.0;macOS;10.15.7;undefined;undefined;1440 x 900;1440 x 900
H018;53;Mannelijk;Rechts;1;43;left;no;100;leftarrow;421;true;focus;yes;229990;Chrome;112.0;macOS;10.15.7;undefined;undefined;1440 x 900;1440 x 900
H018;53;Mannelijk;Rechts;1;44;right;yes;100;undefined;null;true;focus;yes;232010;Chrome;112.0;macOS;10.15.7;undefined;undefined;1440 x 900;1440 x 900
H018;53;Mannelijk;Rechts;1;45;right;no;150;rightarrow;420;true;focus;yes;233209;Chrome;112.0;macOS;10.15.7;undefined;undefined;1440 x 900;1440 x 900
H018;53;Mannelijk;Rechts;1;46;left;yes;150;leftarrow;376;false;focus;yes;234352;Chrome;112.0;macOS;10.15.7;undefined;undefined;1440 x 900;1440 x 900
H018;53;Mannelijk;Rechts;1;47;left;no;100;leftarrow;581;true;focus;yes;235694;Chrome;112.0;macOS;10.15.7;undefined;undefined;1440 x 900;1440 x 900
H018;53;Mannelijk;Rechts;1;48;left;no;100;leftarrow;380;true;focus;yes;236838;Chrome;112.0;macOS;10.15.7;undefined;undefined;1440 x 900;1440 x 900
H018;53;Mannelijk;Rechts;1;49;left;no;100;leftarrow;420;true;focus;yes;238022;Chrome;112.0;macOS;10.15.7;undefined;undefined;1440 x 900;1440 x 900
H018;53;Mannelijk;Rechts;1;50;left;no;100;leftarrow;519;true;focus;yes;239303;Chrome;112.0;macOS;10.15.7;undefined;undefined;1440 x 900;1440 x 900
H018;53;Mannelijk;Rechts;1;51;right;no;100;rightarrow;550;true;focus;yes;240616;Chrome;112.0;macOS;10.15.7;undefined;undefined;1440 x 900;1440 x 900
H018;53;Mannelijk;Rechts;1;52;left;yes;100;leftarrow;407;false;focus;yes;241779;Chrome;112.0;macOS;10.15.7;undefined;undefined;1440 x 900;1440 x 900
H018;53;Mannelijk;Rechts;1;53;right;yes;50;undefined;null;true;focus;yes;243816;Chrome;112.0;macOS;10.15.7;undefined;undefined;1440 x 900;1440 x 900
H018;53;Mannelijk;Rechts;1;54;right;no;100;rightarrow;581;true;focus;yes;245158;Chrome;112.0;macOS;10.15.7;undefined;undefined;1440 x 900;1440 x 900
H018;53;Mannelijk;Rechts;1;55;left;no;100;leftarrow;447;true;focus;yes;246363;Chrome;112.0;macOS;10.15.7;undefined;undefined;1440 x 900;1440 x 900
H018;53;Mannelijk;Rechts;1;56;right;no;100;rightarrow;507;true;focus;yes;247648;Chrome;112.0;macOS;10.15.7;undefined;undefined;1440 x 900;1440 x 900
H018;53;Mannelijk;Rechts;1;57;left;yes;100;leftarrow;396;false;focus;yes;248806;Chrome;112.0;macOS;10.15.7;undefined;undefined;1440 x 900;1440 x 900
H018;53;Mannelijk;Rechts;1;58;right;no;50;rightarrow;501;true;focus;yes;250071;Chrome;112.0;macOS;10.15.7;undefined;undefined;1440 x 900;1440 x 900
H018;53;Mannelijk;Rechts;1;59;right;no;50;rightarrow;383;true;focus;yes;251216;Chrome;112.0;macOS;10.15.7;undefined;undefined;1440 x 900;1440 x 900
H018;53;Mannelijk;Rechts;1;60;left;no;50;leftarrow;438;true;focus;yes;252416;Chrome;112.0;macOS;10.15.7;undefined;undefined;1440 x 900;1440 x 900
H018;53;Mannelijk;Rechts;1;61;right;no;50;rightarrow;507;true;focus;yes;253685;Chrome;112.0;macOS;10.15.7;undefined;undefined;1440 x 900;1440 x 900
H018;53;Mannelijk;Rechts;1;62;right;yes;50;undefined;null;true;focus;yes;255705;Chrome;112.0;macOS;10.15.7;undefined;undefined;1440 x 900;1440 x 900
H018;53;Mannelijk;Rechts;1;63;left;no;100;leftarrow;379;true;focus;yes;256855;Chrome;112.0;macOS;10.15.7;undefined;undefined;1440 x 900;1440 x 900
H018;53;Mannelijk;Rechts;1;64;left;no;100;leftarrow;412;true;focus;yes;258026;Chrome;112.0;macOS;10.15.7;undefined;undefined;1440 x 900;1440 x 900
H018;53;Mannelijk;Rechts;1;65;left;no;100;leftarrow;499;true;focus;yes;259294;Chrome;112.0;macOS;10.15.7;undefined;undefined;1440 x 900;1440 x 900
H018;53;Mannelijk;Rechts;1;66;right;no;100;rightarrow;513;true;focus;yes;260571;Chrome;112.0;macOS;10.15.7;undefined;undefined;1440 x 900;1440 x 900
H018;53;Mannelijk;Rechts;1;67;left;no;100;leftarrow;461;true;focus;yes;261799;Chrome;112.0;macOS;10.15.7;undefined;undefined;1440 x 900;1440 x 900
H018;53;Mannelijk;Rechts;1;68;right;yes;100;undefined;null;true;focus;yes;263818;Chrome;112.0;macOS;10.15.7;undefined;undefined;1440 x 900;1440 x 900
H018;53;Mannelijk;Rechts;1;69;left;yes;150;leftarrow;351;false;focus;yes;264939;Chrome;112.0;macOS;10.15.7;undefined;undefined;1440 x 900;1440 x 900
H018;53;Mannelijk;Rechts;1;70;right;no;100;rightarrow;496;true;focus;yes;266212;Chrome;112.0;macOS;10.15.7;undefined;undefined;1440 x 900;1440 x 900
H018;53;Mannelijk;Rechts;1;71;right;no;100;rightarrow;532;true;focus;yes;267512;Chrome;112.0;macOS;10.15.7;undefined;undefined;1440 x 900;1440 x 900
H018;53;Mannelijk;Rechts;1;72;left;no;100;leftarrow;493;true;focus;yes;268768;Chrome;112.0;macOS;10.15.7;undefined;undefined;1440 x 900;1440 x 900
H018;53;Mannelijk;Rechts;1;73;left;no;100;leftarrow;476;true;focus;yes;270002;Chrome;112.0;macOS;10.15.7;undefined;undefined;1440 x 900;1440 x 900
H018;53;Mannelijk;Rechts;1;74;left;no;100;leftarrow;491;true;focus;yes;271254;Chrome;112.0;macOS;10.15.7;undefined;undefined;1440 x 900;1440 x 900
H018;53;Mannelijk;Rechts;1;75;left;yes;100;undefined;null;true;focus;yes;273275;Chrome;112.0;macOS;10.15.7;undefined;undefined;1440 x 900;1440 x 900
H018;53;Mannelijk;Rechts;1;76;right;no;150;rightarrow;373;true;focus;yes;274419;Chrome;112.0;macOS;10.15.7;undefined;undefined;1440 x 900;1440 x 900
H018;53;Mannelijk;Rechts;1;77;left;no;150;leftarrow;560;true;focus;yes;275746;Chrome;112.0;macOS;10.15.7;undefined;undefined;1440 x 900;1440 x 900
H018;53;Mannelijk;Rechts;1;78;right;no;150;rightarrow;394;true;focus;yes;276911;Chrome;112.0;macOS;10.15.7;undefined;undefined;1440 x 900;1440 x 900
H018;53;Mannelijk;Rechts;1;79;right;yes;150;rightarrow;476;false;focus;yes;278146;Chrome;112.0;macOS;10.15.7;undefined;undefined;1440 x 900;1440 x 900
H018;53;Mannelijk;Rechts;1;80;right;no;100;rightarrow;764;true;focus;yes;279680;Chrome;112.0;macOS;10.15.7;undefined;undefined;1440 x 900;1440 x 900
H018;53;Mannelijk;Rechts;1;81;left;no;100;leftarrow;387;true;focus;yes;280831;Chrome;112.0;macOS;10.15.7;undefined;undefined;1440 x 900;1440 x 900
H018;53;Mannelijk;Rechts;1;82;right;no;100;rightarrow;478;true;focus;yes;282082;Chrome;112.0;macOS;10.15.7;undefined;undefined;1440 x 900;1440 x 900
H018;53;Mannelijk;Rechts;1;83;right;yes;100;undefined;null;true;focus;yes;284107;Chrome;112.0;macOS;10.15.7;undefined;undefined;1440 x 900;1440 x 900
H018;53;Mannelijk;Rechts;1;84;left;yes;150;leftarrow;352;false;focus;yes;285227;Chrome;112.0;macOS;10.15.7;undefined;undefined;1440 x 900;1440 x 900
H018;53;Mannelijk;Rechts;1;85;left;no;100;leftarrow;461;true;focus;yes;286456;Chrome;112.0;macOS;10.15.7;undefined;undefined;1440 x 900;1440 x 900
H018;53;Mannelijk;Rechts;1;86;right;no;100;rightarrow;662;true;focus;yes;287881;Chrome;112.0;macOS;10.15.7;undefined;undefined;1440 x 900;1440 x 900
H018;53;Mannelijk;Rechts;1;87;right;no;100;rightarrow;475;true;focus;yes;289118;Chrome;112.0;macOS;10.15.7;undefined;undefined;1440 x 900;1440 x 900
H018;53;Mannelijk;Rechts;1;88;left;no;100;leftarrow;574;true;focus;yes;290454;Chrome;112.0;macOS;10.15.7;undefined;undefined;1440 x 900;1440 x 900
H018;53;Mannelijk;Rechts;1;89;right;no;100;rightarrow;521;true;focus;yes;291735;Chrome;112.0;macOS;10.15.7;undefined;undefined;1440 x 900;1440 x 900
H018;53;Mannelijk;Rechts;1;90;left;no;100;leftarrow;390;true;focus;yes;292889;Chrome;112.0;macOS;10.15.7;undefined;undefined;1440 x 900;1440 x 900
H018;53;Mannelijk;Rechts;1;91;right;no;100;rightarrow;447;true;focus;yes;294098;Chrome;112.0;macOS;10.15.7;undefined;undefined;1440 x 900;1440 x 900
H018;53;Mannelijk;Rechts;1;92;right;yes;100;undefined;null;true;focus;yes;296129;Chrome;112.0;macOS;10.15.7;undefined;undefined;1440 x 900;1440 x 900
H018;53;Mannelijk;Rechts;1;93;left;yes;150;leftarrow;427;false;focus;yes;297317;Chrome;112.0;macOS;10.15.7;undefined;undefined;1440 x 900;1440 x 900
H018;53;Mannelijk;Rechts;1;94;right;no;100;rightarrow;361;true;focus;yes;298445;Chrome;112.0;macOS;10.15.7;undefined;undefined;1440 x 900;1440 x 900
H018;53;Mannelijk;Rechts;1;95;left;no;100;leftarrow;547;true;focus;yes;299758;Chrome;112.0;macOS;10.15.7;undefined;undefined;1440 x 900;1440 x 900
H018;53;Mannelijk;Rechts;1;96;left;no;100;leftarrow;410;true;focus;yes;300930;Chrome;112.0;macOS;10.15.7;undefined;undefined;1440 x 900;1440 x 900
H018;53;Mannelijk;Rechts;1;97;left;yes;100;leftarrow;417;false;focus;yes;302105;Chrome;112.0;macOS;10.15.7;undefined;undefined;1440 x 900;1440 x 900
H018;53;Mannelijk;Rechts;1;98;right;no;50;rightarrow;599;true;focus;yes;303463;Chrome;112.0;macOS;10.15.7;undefined;undefined;1440 x 900;1440 x 900
H018;53;Mannelijk;Rechts;1;99;right;no;50;rightarrow;373;true;focus;yes;304608;Chrome;112.0;macOS;10.15.7;undefined;undefined;1440 x 900;1440 x 900
H018;53;Mannelijk;Rechts;1;100;right;yes;50;undefined;null;true;focus;yes;306628;Chrome;112.0;macOS;10.15.7;undefined;undefined;1440 x 900;1440 x 900
H018;53;Mannelijk;Rechts;1;101;left;no;100;leftarrow;643;true;focus;yes;308042;Chrome;112.0;macOS;10.15.7;undefined;undefined;1440 x 900;1440 x 900
H018;53;Mannelijk;Rechts;1;102;left;no;100;leftarrow;529;true;focus;yes;309332;Chrome;112.0;macOS;10.15.7;undefined;undefined;1440 x 900;1440 x 900
H018;53;Mannelijk;Rechts;1;103;left;no;100;leftarrow;539;true;focus;yes;310638;Chrome;112.0;macOS;10.15.7;undefined;undefined;1440 x 900;1440 x 900
H018;53;Mannelijk;Rechts;1;104;right;no;100;rightarrow;407;true;focus;yes;311806;Chrome;112.0;macOS;10.15.7;undefined;undefined;1440 x 900;1440 x 900
H018;53;Mannelijk;Rechts;1;105;left;no;100;leftarrow;462;true;focus;yes;313033;Chrome;112.0;macOS;10.15.7;undefined;undefined;1440 x 900;1440 x 900
H018;53;Mannelijk;Rechts;1;106;left;no;100;leftarrow;490;true;focus;yes;314294;Chrome;112.0;macOS;10.15.7;undefined;undefined;1440 x 900;1440 x 900
H018;53;Mannelijk;Rechts;1;107;left;no;100;leftarrow;428;true;focus;yes;315498;Chrome;112.0;macOS;10.15.7;undefined;undefined;1440 x 900;1440 x 900
H018;53;Mannelijk;Rechts;1;108;left;yes;100;leftarrow;394;false;focus;yes;316653;Chrome;112.0;macOS;10.15.7;undefined;undefined;1440 x 900;1440 x 900
H018;53;Mannelijk;Rechts;1;109;right;no;50;rightarrow;432;true;focus;yes;317852;Chrome;112.0;macOS;10.15.7;undefined;undefined;1440 x 900;1440 x 900
H018;53;Mannelijk;Rechts;1;110;right;no;50;rightarrow;456;true;focus;yes;319075;Chrome;112.0;macOS;10.15.7;undefined;undefined;1440 x 900;1440 x 900
H018;53;Mannelijk;Rechts;1;111;right;yes;50;undefined;null;true;focus;yes;321109;Chrome;112.0;macOS;10.15.7;undefined;undefined;1440 x 900;1440 x 900
H018;53;Mannelijk;Rechts;1;112;right;no;100;rightarrow;479;true;focus;yes;322355;Chrome;112.0;macOS;10.15.7;undefined;undefined;1440 x 900;1440 x 900
H018;53;Mannelijk;Rechts;1;113;right;no;100;rightarrow;365;true;focus;yes;323480;Chrome;112.0;macOS;10.15.7;undefined;undefined;1440 x 900;1440 x 900
H018;53;Mannelijk;Rechts;1;114;right;yes;100;undefined;null;true;focus;yes;325498;Chrome;112.0;macOS;10.15.7;undefined;undefined;1440 x 900;1440 x 900
H018;53;Mannelijk;Rechts;1;115;left;yes;150;undefined;null;true;focus;yes;327522;Chrome;112.0;macOS;10.15.7;undefined;undefined;1440 x 900;1440 x 900
H018;53;Mannelijk;Rechts;1;116;left;no;200;leftarrow;428;true;focus;yes;328713;Chrome;112.0;macOS;10.15.7;undefined;undefined;1440 x 900;1440 x 900
H018;53;Mannelijk;Rechts;1;117;right;no;200;rightarrow;371;true;focus;yes;329847;Chrome;112.0;macOS;10.15.7;undefined;undefined;1440 x 900;1440 x 900
H018;53;Mannelijk;Rechts;1;118;right;no;200;rightarrow;613;true;focus;yes;331226;Chrome;112.0;macOS;10.15.7;undefined;undefined;1440 x 900;1440 x 900
H018;53;Mannelijk;Rechts;1;119;left;no;200;leftarrow;515;true;focus;yes;332503;Chrome;112.0;macOS;10.15.7;undefined;undefined;1440 x 900;1440 x 900
H018;53;Mannelijk;Rechts;1;120;left;no;200;leftarrow;421;true;focus;yes;333689;Chrome;112.0;macOS;10.15.7;undefined;undefined;1440 x 900;1440 x 900
H018;53;Mannelijk;Rechts;1;121;left;no;200;leftarrow;393;true;focus;yes;334855;Chrome;112.0;macOS;10.15.7;undefined;undefined;1440 x 900;1440 x 900
H018;53;Mannelijk;Rechts;1;122;left;yes;200;undefined;null;true;focus;yes;336872;Chrome;112.0;macOS;10.15.7;undefined;undefined;1440 x 900;1440 x 900
H018;53;Mannelijk;Rechts;1;123;left;no;250;leftarrow;414;true;focus;yes;338054;Chrome;112.0;macOS;10.15.7;undefined;undefined;1440 x 900;1440 x 900
H018;53;Mannelijk;Rechts;1;124;right;no;250;rightarrow;485;true;focus;yes;339306;Chrome;112.0;macOS;10.15.7;undefined;undefined;1440 x 900;1440 x 900
H018;53;Mannelijk;Rechts;1;125;left;no;250;leftarrow;496;true;focus;yes;340560;Chrome;112.0;macOS;10.15.7;undefined;undefined;1440 x 900;1440 x 900
H018;53;Mannelijk;Rechts;1;126;right;yes;250;undefined;null;true;focus;yes;342581;Chrome;112.0;macOS;10.15.7;undefined;undefined;1440 x 900;1440 x 900
H018;53;Mannelijk;Rechts;1;127;right;no;300;rightarrow;410;true;focus;yes;343768;Chrome;112.0;macOS;10.15.7;undefined;undefined;1440 x 900;1440 x 900
H018;53;Mannelijk;Rechts;1;128;right;no;300;rightarrow;383;true;focus;yes;344916;Chrome;112.0;macOS;10.15.7;undefined;undefined;1440 x 900;1440 x 900
H018;53;Mannelijk;Rechts;2;1;left;no;300;leftarrow;410;true;focus;yes;364698;Chrome;112.0;macOS;10.15.7;undefined;undefined;1440 x 900;1440 x 900
H018;53;Mannelijk;Rechts;2;2;right;no;300;rightarrow;494;true;focus;yes;365955;Chrome;112.0;macOS;10.15.7;undefined;undefined;1440 x 900;1440 x 900
H018;53;Mannelijk;Rechts;2;3;left;no;300;leftarrow;345;true;focus;yes;367062;Chrome;112.0;macOS;10.15.7;undefined;undefined;1440 x 900;1440 x 900
H018;53;Mannelijk;Rechts;2;4;right;no;300;rightarrow;362;true;focus;yes;368187;Chrome;112.0;macOS;10.15.7;undefined;undefined;1440 x 900;1440 x 900
H018;53;Mannelijk;Rechts;2;5;right;no;300;rightarrow;548;true;focus;yes;369493;Chrome;112.0;macOS;10.15.7;undefined;undefined;1440 x 900;1440 x 900
H018;53;Mannelijk;Rechts;2;6;left;no;300;leftarrow;446;true;focus;yes;370707;Chrome;112.0;macOS;10.15.7;undefined;undefined;1440 x 900;1440 x 900
H018;53;Mannelijk;Rechts;2;7;right;yes;300;rightarrow;510;false;focus;yes;371979;Chrome;112.0;macOS;10.15.7;undefined;undefined;1440 x 900;1440 x 900
H018;53;Mannelijk;Rechts;2;8;left;yes;250;undefined;null;true;focus;yes;374014;Chrome;112.0;macOS;10.15.7;undefined;undefined;1440 x 900;1440 x 900
H018;53;Mannelijk;Rechts;2;9;right;no;300;rightarrow;350;true;focus;yes;375135;Chrome;112.0;macOS;10.15.7;undefined;undefined;1440 x 900;1440 x 900
H018;53;Mannelijk;Rechts;2;10;left;no;300;leftarrow;377;true;focus;yes;376279;Chrome;112.0;macOS;10.15.7;undefined;undefined;1440 x 900;1440 x 900
H018;53;Mannelijk;Rechts;2;11;left;no;300;leftarrow;516;true;focus;yes;377561;Chrome;112.0;macOS;10.15.7;undefined;undefined;1440 x 900;1440 x 900
H018;53;Mannelijk;Rechts;2;12;right;no;300;rightarrow;389;true;focus;yes;378714;Chrome;112.0;macOS;10.15.7;undefined;undefined;1440 x 900;1440 x 900
H018;53;Mannelijk;Rechts;2;13;left;yes;300;leftarrow;466;false;focus;yes;379942;Chrome;112.0;macOS;10.15.7;undefined;undefined;1440 x 900;1440 x 900
H018;53;Mannelijk;Rechts;2;14;right;yes;250;undefined;null;true;focus;yes;381965;Chrome;112.0;macOS;10.15.7;undefined;undefined;1440 x 900;1440 x 900
H018;53;Mannelijk;Rechts;2;15;right;no;300;rightarrow;431;true;focus;yes;383159;Chrome;112.0;macOS;10.15.7;undefined;undefined;1440 x 900;1440 x 900
H018;53;Mannelijk;Rechts;2;16;left;no;300;leftarrow;482;true;focus;yes;384417;Chrome;112.0;macOS;10.15.7;undefined;undefined;1440 x 900;1440 x 900
H018;53;Mannelijk;Rechts;2;17;right;no;300;rightarrow;524;true;focus;yes;385707;Chrome;112.0;macOS;10.15.7;undefined;undefined;1440 x 900;1440 x 900
H018;53;Mannelijk;Rechts;2;18;right;no;300;rightarrow;603;true;focus;yes;387072;Chrome;112.0;macOS;10.15.7;undefined;undefined;1440 x 900;1440 x 900
H018;53;Mannelijk;Rechts;2;19;left;no;300;leftarrow;495;true;focus;yes;388326;Chrome;112.0;macOS;10.15.7;undefined;undefined;1440 x 900;1440 x 900
H018;53;Mannelijk;Rechts;2;20;right;yes;300;undefined;null;true;focus;yes;390351;Chrome;112.0;macOS;10.15.7;undefined;undefined;1440 x 900;1440 x 900
H018;53;Mannelijk;Rechts;2;21;left;yes;350;undefined;null;true;focus;yes;392379;Chrome;112.0;macOS;10.15.7;undefined;undefined;1440 x 900;1440 x 900
H018;53;Mannelijk;Rechts;2;22;right;no;400;rightarrow;363;true;focus;yes;393501;Chrome;112.0;macOS;10.15.7;undefined;undefined;1440 x 900;1440 x 900
H018;53;Mannelijk;Rechts;2;23;left;no;400;leftarrow;387;true;focus;yes;394669;Chrome;112.0;macOS;10.15.7;undefined;undefined;1440 x 900;1440 x 900
H018;53;Mannelijk;Rechts;2;24;left;no;400;leftarrow;456;true;focus;yes;395886;Chrome;112.0;macOS;10.15.7;undefined;undefined;1440 x 900;1440 x 900
H018;53;Mannelijk;Rechts;2;25;left;no;400;leftarrow;550;true;focus;yes;397214;Chrome;112.0;macOS;10.15.7;undefined;undefined;1440 x 900;1440 x 900
H018;53;Mannelijk;Rechts;2;26;right;no;400;rightarrow;431;true;focus;yes;398410;Chrome;112.0;macOS;10.15.7;undefined;undefined;1440 x 900;1440 x 900
H018;53;Mannelijk;Rechts;2;27;left;no;400;leftarrow;610;true;focus;yes;399786;Chrome;112.0;macOS;10.15.7;undefined;undefined;1440 x 900;1440 x 900
H018;53;Mannelijk;Rechts;2;28;left;no;400;leftarrow;496;true;focus;yes;401046;Chrome;112.0;macOS;10.15.7;undefined;undefined;1440 x 900;1440 x 900
H018;53;Mannelijk;Rechts;2;29;right;no;400;rightarrow;525;true;focus;yes;402339;Chrome;112.0;macOS;10.15.7;undefined;undefined;1440 x 900;1440 x 900
H018;53;Mannelijk;Rechts;2;30;left;yes;400;leftarrow;390;false;focus;yes;403493;Chrome;112.0;macOS;10.15.7;undefined;undefined;1440 x 900;1440 x 900
H018;53;Mannelijk;Rechts;2;31;right;no;350;rightarrow;465;true;focus;yes;404739;Chrome;112.0;macOS;10.15.7;undefined;undefined;1440 x 900;1440 x 900
H018;53;Mannelijk;Rechts;2;32;right;yes;350;rightarrow;586;false;focus;yes;406084;Chrome;112.0;macOS;10.15.7;undefined;undefined;1440 x 900;1440 x 900
H018;53;Mannelijk;Rechts;2;33;right;no;300;rightarrow;511;true;focus;yes;407353;Chrome;112.0;macOS;10.15.7;undefined;undefined;1440 x 900;1440 x 900
H018;53;Mannelijk;Rechts;2;34;right;yes;300;rightarrow;501;false;focus;yes;408612;Chrome;112.0;macOS;10.15.7;undefined;undefined;1440 x 900;1440 x 900
H018;53;Mannelijk;Rechts;2;35;left;no;250;leftarrow;770;true;focus;yes;410144;Chrome;112.0;macOS;10.15.7;undefined;undefined;1440 x 900;1440 x 900
H018;53;Mannelijk;Rechts;2;36;left;no;250;leftarrow;503;true;focus;yes;411423;Chrome;112.0;macOS;10.15.7;undefined;undefined;1440 x 900;1440 x 900
H018;53;Mannelijk;Rechts;2;37;right;no;250;rightarrow;667;true;focus;yes;412868;Chrome;112.0;macOS;10.15.7;undefined;undefined;1440 x 900;1440 x 900
H018;53;Mannelijk;Rechts;2;38;left;no;250;leftarrow;532;true;focus;yes;414171;Chrome;112.0;macOS;10.15.7;undefined;undefined;1440 x 900;1440 x 900
H018;53;Mannelijk;Rechts;2;39;left;yes;250;leftarrow;423;false;focus;yes;415353;Chrome;112.0;macOS;10.15.7;undefined;undefined;1440 x 900;1440 x 900
H018;53;Mannelijk;Rechts;2;40;right;no;200;rightarrow;673;true;focus;yes;416800;Chrome;112.0;macOS;10.15.7;undefined;undefined;1440 x 900;1440 x 900
H018;53;Mannelijk;Rechts;2;41;left;no;200;leftarrow;416;true;focus;yes;417990;Chrome;112.0;macOS;10.15.7;undefined;undefined;1440 x 900;1440 x 900
H018;53;Mannelijk;Rechts;2;42;right;no;200;rightarrow;540;true;focus;yes;419292;Chrome;112.0;macOS;10.15.7;undefined;undefined;1440 x 900;1440 x 900
H018;53;Mannelijk;Rechts;2;43;right;no;200;rightarrow;388;true;focus;yes;420451;Chrome;112.0;macOS;10.15.7;undefined;undefined;1440 x 900;1440 x 900
H018;53;Mannelijk;Rechts;2;44;right;no;200;rightarrow;599;true;focus;yes;421813;Chrome;112.0;macOS;10.15.7;undefined;undefined;1440 x 900;1440 x 900
H018;53;Mannelijk;Rechts;2;45;left;no;200;leftarrow;597;true;focus;yes;423172;Chrome;112.0;macOS;10.15.7;undefined;undefined;1440 x 900;1440 x 900
H018;53;Mannelijk;Rechts;2;46;left;yes;200;undefined;null;true;focus;yes;425190;Chrome;112.0;macOS;10.15.7;undefined;undefined;1440 x 900;1440 x 900
H018;53;Mannelijk;Rechts;2;47;left;no;250;leftarrow;421;true;focus;yes;426379;Chrome;112.0;macOS;10.15.7;undefined;undefined;1440 x 900;1440 x 900
H018;53;Mannelijk;Rechts;2;48;right;yes;250;rightarrow;412;false;focus;yes;427551;Chrome;112.0;macOS;10.15.7;undefined;undefined;1440 x 900;1440 x 900
H018;53;Mannelijk;Rechts;2;49;right;no;200;rightarrow;487;true;focus;yes;428807;Chrome;112.0;macOS;10.15.7;undefined;undefined;1440 x 900;1440 x 900
H018;53;Mannelijk;Rechts;2;50;right;no;200;rightarrow;421;true;focus;yes;429992;Chrome;112.0;macOS;10.15.7;undefined;undefined;1440 x 900;1440 x 900
H018;53;Mannelijk;Rechts;2;51;left;no;200;leftarrow;585;true;focus;yes;431344;Chrome;112.0;macOS;10.15.7;undefined;undefined;1440 x 900;1440 x 900
H018;53;Mannelijk;Rechts;2;52;right;no;200;rightarrow;628;true;focus;yes;432736;Chrome;112.0;macOS;10.15.7;undefined;undefined;1440 x 900;1440 x 900
H018;53;Mannelijk;Rechts;2;53;left;yes;200;undefined;null;true;focus;yes;434760;Chrome;112.0;macOS;10.15.7;undefined;undefined;1440 x 900;1440 x 900
H018;53;Mannelijk;Rechts;2;54;left;no;250;leftarrow;728;true;focus;yes;436251;Chrome;112.0;macOS;10.15.7;undefined;undefined;1440 x 900;1440 x 900
H018;53;Mannelijk;Rechts;2;55;left;no;250;leftarrow;406;true;focus;yes;437417;Chrome;112.0;macOS;10.15.7;undefined;undefined;1440 x 900;1440 x 900
H018;53;Mannelijk;Rechts;2;56;right;yes;250;undefined;null;true;focus;yes;439448;Chrome;112.0;macOS;10.15.7;undefined;undefined;1440 x 900;1440 x 900
H018;53;Mannelijk;Rechts;2;57;right;no;300;rightarrow;554;true;focus;yes;440781;Chrome;112.0;macOS;10.15.7;undefined;undefined;1440 x 900;1440 x 900
H018;53;Mannelijk;Rechts;2;58;left;no;300;leftarrow;513;true;focus;yes;442056;Chrome;112.0;macOS;10.15.7;undefined;undefined;1440 x 900;1440 x 900
H018;53;Mannelijk;Rechts;2;59;right;yes;300;rightarrow;417;false;focus;yes;443241;Chrome;112.0;macOS;10.15.7;undefined;undefined;1440 x 900;1440 x 900
H018;53;Mannelijk;Rechts;2;60;left;no;250;leftarrow;443;true;focus;yes;444458;Chrome;112.0;macOS;10.15.7;undefined;undefined;1440 x 900;1440 x 900
H018;53;Mannelijk;Rechts;2;61;right;no;250;rightarrow;433;true;focus;yes;445665;Chrome;112.0;macOS;10.15.7;undefined;undefined;1440 x 900;1440 x 900
H018;53;Mannelijk;Rechts;2;62;right;no;250;rightarrow;408;true;focus;yes;446850;Chrome;112.0;macOS;10.15.7;undefined;undefined;1440 x 900;1440 x 900
H018;53;Mannelijk;Rechts;2;63;left;yes;250;leftarrow;438;false;focus;yes;448054;Chrome;112.0;macOS;10.15.7;undefined;undefined;1440 x 900;1440 x 900
H018;53;Mannelijk;Rechts;2;64;left;no;200;leftarrow;767;true;focus;yes;449592;Chrome;112.0;macOS;10.15.7;undefined;undefined;1440 x 900;1440 x 900
H018;53;Mannelijk;Rechts;2;65;right;no;200;rightarrow;405;true;focus;yes;450765;Chrome;112.0;macOS;10.15.7;undefined;undefined;1440 x 900;1440 x 900
H018;53;Mannelijk;Rechts;2;66;left;no;200;leftarrow;401;true;focus;yes;451925;Chrome;112.0;macOS;10.15.7;undefined;undefined;1440 x 900;1440 x 900
H018;53;Mannelijk;Rechts;2;67;left;no;200;leftarrow;414;true;focus;yes;453102;Chrome;112.0;macOS;10.15.7;undefined;undefined;1440 x 900;1440 x 900
H018;53;Mannelijk;Rechts;2;68;left;no;200;leftarrow;521;true;focus;yes;454395;Chrome;112.0;macOS;10.15.7;undefined;undefined;1440 x 900;1440 x 900
H018;53;Mannelijk;Rechts;2;69;left;yes;200;undefined;null;true;focus;yes;456414;Chrome;112.0;macOS;10.15.7;undefined;undefined;1440 x 900;1440 x 900
H018;53;Mannelijk;Rechts;2;70;right;no;250;rightarrow;434;true;focus;yes;457618;Chrome;112.0;macOS;10.15.7;undefined;undefined;1440 x 900;1440 x 900
H018;53;Mannelijk;Rechts;2;71;right;yes;250;undefined;null;true;focus;yes;459638;Chrome;112.0;macOS;10.15.7;undefined;undefined;1440 x 900;1440 x 900
H018;53;Mannelijk;Rechts;2;72;right;no;300;rightarrow;355;true;focus;yes;460767;Chrome;112.0;macOS;10.15.7;undefined;undefined;1440 x 900;1440 x 900
H018;53;Mannelijk;Rechts;2;73;left;no;300;leftarrow;544;true;focus;yes;462082;Chrome;112.0;macOS;10.15.7;undefined;undefined;1440 x 900;1440 x 900
H018;53;Mannelijk;Rechts;2;74;right;no;300;rightarrow;549;true;focus;yes;463398;Chrome;112.0;macOS;10.15.7;undefined;undefined;1440 x 900;1440 x 900
H018;53;Mannelijk;Rechts;2;75;right;yes;300;rightarrow;420;false;focus;yes;464580;Chrome;112.0;macOS;10.15.7;undefined;undefined;1440 x 900;1440 x 900
H018;53;Mannelijk;Rechts;2;76;left;no;250;leftarrow;448;true;focus;yes;465793;Chrome;112.0;macOS;10.15.7;undefined;undefined;1440 x 900;1440 x 900
H018;53;Mannelijk;Rechts;2;77;right;no;250;rightarrow;434;true;focus;yes;467002;Chrome;112.0;macOS;10.15.7;undefined;undefined;1440 x 900;1440 x 900
H018;53;Mannelijk;Rechts;2;78;left;yes;250;leftarrow;409;false;focus;yes;468179;Chrome;112.0;macOS;10.15.7;undefined;undefined;1440 x 900;1440 x 900
H018;53;Mannelijk;Rechts;2;79;left;no;200;leftarrow;423;true;focus;yes;469367;Chrome;112.0;macOS;10.15.7;undefined;undefined;1440 x 900;1440 x 900
H018;53;Mannelijk;Rechts;2;80;right;no;200;rightarrow;600;true;focus;yes;470729;Chrome;112.0;macOS;10.15.7;undefined;undefined;1440 x 900;1440 x 900
H018;53;Mannelijk;Rechts;2;81;left;no;200;leftarrow;501;true;focus;yes;471999;Chrome;112.0;macOS;10.15.7;undefined;undefined;1440 x 900;1440 x 900
H018;53;Mannelijk;Rechts;2;82;right;no;200;rightarrow;525;true;focus;yes;473282;Chrome;112.0;macOS;10.15.7;undefined;undefined;1440 x 900;1440 x 900
H018;53;Mannelijk;Rechts;2;83;right;no;200;rightarrow;528;true;focus;yes;474585;Chrome;112.0;macOS;10.15.7;undefined;undefined;1440 x 900;1440 x 900
H018;53;Mannelijk;Rechts;2;84;left;no;200;leftarrow;392;true;focus;yes;475756;Chrome;112.0;macOS;10.15.7;undefined;undefined;1440 x 900;1440 x 900
H018;53;Mannelijk;Rechts;2;85;right;yes;200;undefined;null;true;focus;yes;477785;Chrome;112.0;macOS;10.15.7;undefined;undefined;1440 x 900;1440 x 900
H018;53;Mannelijk;Rechts;2;86;left;no;250;leftarrow;528;true;focus;yes;479085;Chrome;112.0;macOS;10.15.7;undefined;undefined;1440 x 900;1440 x 900
H018;53;Mannelijk;Rechts;2;87;right;no;250;rightarrow;422;true;focus;yes;480271;Chrome;112.0;macOS;10.15.7;undefined;undefined;1440 x 900;1440 x 900
H018;53;Mannelijk;Rechts;2;88;left;yes;250;undefined;null;true;focus;yes;482292;Chrome;112.0;macOS;10.15.7;undefined;undefined;1440 x 900;1440 x 900
H018;53;Mannelijk;Rechts;2;89;right;yes;300;rightarrow;348;false;focus;yes;483407;Chrome;112.0;macOS;10.15.7;undefined;undefined;1440 x 900;1440 x 900
H018;53;Mannelijk;Rechts;2;90;left;no;250;leftarrow;404;true;focus;yes;484569;Chrome;112.0;macOS;10.15.7;undefined;undefined;1440 x 900;1440 x 900
H018;53;Mannelijk;Rechts;2;91;left;no;250;leftarrow;357;true;focus;yes;485694;Chrome;112.0;macOS;10.15.7;undefined;undefined;1440 x 900;1440 x 900
H018;53;Mannelijk;Rechts;2;92;right;no;250;rightarrow;437;true;focus;yes;486902;Chrome;112.0;macOS;10.15.7;undefined;undefined;1440 x 900;1440 x 900
H018;53;Mannelijk;Rechts;2;93;left;yes;250;leftarrow;404;false;focus;yes;488069;Chrome;112.0;macOS;10.15.7;undefined;undefined;1440 x 900;1440 x 900
H018;53;Mannelijk;Rechts;2;94;right;no;200;rightarrow;408;true;focus;yes;489250;Chrome;112.0;macOS;10.15.7;undefined;undefined;1440 x 900;1440 x 900
H018;53;Mannelijk;Rechts;2;95;left;no;200;leftarrow;542;true;focus;yes;490559;Chrome;112.0;macOS;10.15.7;undefined;undefined;1440 x 900;1440 x 900
H018;53;Mannelijk;Rechts;2;96;right;no;200;rightarrow;454;true;focus;yes;491775;Chrome;112.0;macOS;10.15.7;undefined;undefined;1440 x 900;1440 x 900
H018;53;Mannelijk;Rechts;2;97;left;yes;200;undefined;null;true;focus;yes;493810;Chrome;112.0;macOS;10.15.7;undefined;undefined;1440 x 900;1440 x 900
H018;53;Mannelijk;Rechts;2;98;right;no;250;rightarrow;387;true;focus;yes;494972;Chrome;112.0;macOS;10.15.7;undefined;undefined;1440 x 900;1440 x 900
H018;53;Mannelijk;Rechts;2;99;left;no;250;leftarrow;390;true;focus;yes;496126;Chrome;112.0;macOS;10.15.7;undefined;undefined;1440 x 900;1440 x 900
H018;53;Mannelijk;Rechts;2;100;left;no;250;leftarrow;410;true;focus;yes;497309;Chrome;112.0;macOS;10.15.7;undefined;undefined;1440 x 900;1440 x 900
H018;53;Mannelijk;Rechts;2;101;left;no;250;leftarrow;552;true;focus;yes;498636;Chrome;112.0;macOS;10.15.7;undefined;undefined;1440 x 900;1440 x 900
H018;53;Mannelijk;Rechts;2;102;right;no;250;rightarrow;568;true;focus;yes;499978;Chrome;112.0;macOS;10.15.7;undefined;undefined;1440 x 900;1440 x 900
H018;53;Mannelijk;Rechts;2;103;right;no;250;rightarrow;508;true;focus;yes;501249;Chrome;112.0;macOS;10.15.7;undefined;undefined;1440 x 900;1440 x 900
H018;53;Mannelijk;Rechts;2;104;right;yes;250;undefined;null;true;focus;yes;503282;Chrome;112.0;macOS;10.15.7;undefined;undefined;1440 x 900;1440 x 900
H018;53;Mannelijk;Rechts;2;105;right;no;300;rightarrow;463;true;focus;yes;504514;Chrome;112.0;macOS;10.15.7;undefined;undefined;1440 x 900;1440 x 900
H018;53;Mannelijk;Rechts;2;106;left;no;300;leftarrow;535;true;focus;yes;505818;Chrome;112.0;macOS;10.15.7;undefined;undefined;1440 x 900;1440 x 900
H018;53;Mannelijk;Rechts;2;107;right;yes;300;undefined;null;true;focus;yes;507838;Chrome;112.0;macOS;10.15.7;undefined;undefined;1440 x 900;1440 x 900
H018;53;Mannelijk;Rechts;2;108;left;no;350;leftarrow;381;true;focus;yes;508992;Chrome;112.0;macOS;10.15.7;undefined;undefined;1440 x 900;1440 x 900
H018;53;Mannelijk;Rechts;2;109;left;yes;350;leftarrow;479;false;focus;yes;510228;Chrome;112.0;macOS;10.15.7;undefined;undefined;1440 x 900;1440 x 900
H018;53;Mannelijk;Rechts;2;110;right;no;300;rightarrow;398;true;focus;yes;511402;Chrome;112.0;macOS;10.15.7;undefined;undefined;1440 x 900;1440 x 900
H018;53;Mannelijk;Rechts;2;111;left;no;300;leftarrow;410;true;focus;yes;512580;Chrome;112.0;macOS;10.15.7;undefined;undefined;1440 x 900;1440 x 900
H018;53;Mannelijk;Rechts;2;112;right;no;300;rightarrow;464;true;focus;yes;513819;Chrome;112.0;macOS;10.15.7;undefined;undefined;1440 x 900;1440 x 900
H018;53;Mannelijk;Rechts;2;113;right;no;300;rightarrow;385;true;focus;yes;514971;Chrome;112.0;macOS;10.15.7;undefined;undefined;1440 x 900;1440 x 900
H018;53;Mannelijk;Rechts;2;114;left;no;300;leftarrow;594;true;focus;yes;516340;Chrome;112.0;macOS;10.15.7;undefined;undefined;1440 x 900;1440 x 900
H018;53;Mannelijk;Rechts;2;115;left;yes;300;leftarrow;398;false;focus;yes;517514;Chrome;112.0;macOS;10.15.7;undefined;undefined;1440 x 900;1440 x 900
H018;53;Mannelijk;Rechts;2;116;right;no;250;rightarrow;377;true;focus;yes;518666;Chrome;112.0;macOS;10.15.7;undefined;undefined;1440 x 900;1440 x 900
H018;53;Mannelijk;Rechts;2;117;right;no;250;rightarrow;359;true;focus;yes;519789;Chrome;112.0;macOS;10.15.7;undefined;undefined;1440 x 900;1440 x 900
H018;53;Mannelijk;Rechts;2;118;left;no;250;leftarrow;429;true;focus;yes;520983;Chrome;112.0;macOS;10.15.7;undefined;undefined;1440 x 900;1440 x 900
H018;53;Mannelijk;Rechts;2;119;left;no;250;leftarrow;401;true;focus;yes;522147;Chrome;112.0;macOS;10.15.7;undefined;undefined;1440 x 900;1440 x 900
H018;53;Mannelijk;Rechts;2;120;right;yes;250;undefined;null;true;focus;yes;524171;Chrome;112.0;macOS;10.15.7;undefined;undefined;1440 x 900;1440 x 900
H018;53;Mannelijk;Rechts;2;121;left;no;300;leftarrow;462;true;focus;yes;525412;Chrome;112.0;macOS;10.15.7;undefined;undefined;1440 x 900;1440 x 900
H018;53;Mannelijk;Rechts;2;122;right;no;300;rightarrow;403;true;focus;yes;526591;Chrome;112.0;macOS;10.15.7;undefined;undefined;1440 x 900;1440 x 900
H018;53;Mannelijk;Rechts;2;123;right;no;300;rightarrow;483;true;focus;yes;527838;Chrome;112.0;macOS;10.15.7;undefined;undefined;1440 x 900;1440 x 900
H018;53;Mannelijk;Rechts;2;124;right;no;300;rightarrow;571;true;focus;yes;529173;Chrome;112.0;macOS;10.15.7;undefined;undefined;1440 x 900;1440 x 900
H018;53;Mannelijk;Rechts;2;125;left;yes;300;leftarrow;434;false;focus;yes;530369;Chrome;112.0;macOS;10.15.7;undefined;undefined;1440 x 900;1440 x 900
H018;53;Mannelijk;Rechts;2;126;left;no;250;leftarrow;402;true;focus;yes;531540;Chrome;112.0;macOS;10.15.7;undefined;undefined;1440 x 900;1440 x 900
H018;53;Mannelijk;Rechts;2;127;left;no;250;leftarrow;406;true;focus;yes;532709;Chrome;112.0;macOS;10.15.7;undefined;undefined;1440 x 900;1440 x 900
H018;53;Mannelijk;Rechts;2;128;right;yes;250;rightarrow;554;false;focus;yes;534028;Chrome;112.0;macOS;10.15.7;undefined;undefined;1440 x 900;1440 x 900
H018;53;Mannelijk;Rechts;3;1;right;no;200;rightarrow;610;true;focus;yes;554106;Chrome;112.0;macOS;10.15.7;undefined;undefined;1440 x 900;1440 x 900
H018;53;Mannelijk;Rechts;3;2;left;yes;200;undefined;null;true;focus;yes;556148;Chrome;112.0;macOS;10.15.7;undefined;undefined;1440 x 900;1440 x 900
H018;53;Mannelijk;Rechts;3;3;right;yes;250;rightarrow;444;false;focus;yes;557363;Chrome;112.0;macOS;10.15.7;undefined;undefined;1440 x 900;1440 x 900
H018;53;Mannelijk;Rechts;3;4;left;no;200;leftarrow;513;true;focus;yes;558645;Chrome;112.0;macOS;10.15.7;undefined;undefined;1440 x 900;1440 x 900
H018;53;Mannelijk;Rechts;3;5;left;no;200;leftarrow;415;true;focus;yes;559827;Chrome;112.0;macOS;10.15.7;undefined;undefined;1440 x 900;1440 x 900
H018;53;Mannelijk;Rechts;3;6;left;no;200;leftarrow;407;true;focus;yes;561011;Chrome;112.0;macOS;10.15.7;undefined;undefined;1440 x 900;1440 x 900
H018;53;Mannelijk;Rechts;3;7;right;no;200;rightarrow;634;true;focus;yes;562421;Chrome;112.0;macOS;10.15.7;undefined;undefined;1440 x 900;1440 x 900
H018;53;Mannelijk;Rechts;3;8;right;no;200;rightarrow;565;true;focus;yes;563764;Chrome;112.0;macOS;10.15.7;undefined;undefined;1440 x 900;1440 x 900
H018;53;Mannelijk;Rechts;3;9;right;yes;200;undefined;null;true;focus;yes;565785;Chrome;112.0;macOS;10.15.7;undefined;undefined;1440 x 900;1440 x 900
H018;53;Mannelijk;Rechts;3;10;right;no;250;rightarrow;444;true;focus;yes;567002;Chrome;112.0;macOS;10.15.7;undefined;undefined;1440 x 900;1440 x 900
H018;53;Mannelijk;Rechts;3;11;right;no;250;rightarrow;461;true;focus;yes;568234;Chrome;112.0;macOS;10.15.7;undefined;undefined;1440 x 900;1440 x 900
H018;53;Mannelijk;Rechts;3;12;right;no;250;rightarrow;522;true;focus;yes;569528;Chrome;112.0;macOS;10.15.7;undefined;undefined;1440 x 900;1440 x 900
H018;53;Mannelijk;Rechts;3;13;left;no;250;leftarrow;527;true;focus;yes;570818;Chrome;112.0;macOS;10.15.7;undefined;undefined;1440 x 900;1440 x 900
H018;53;Mannelijk;Rechts;3;14;left;no;250;leftarrow;357;true;focus;yes;571945;Chrome;112.0;macOS;10.15.7;undefined;undefined;1440 x 900;1440 x 900
H018;53;Mannelijk;Rechts;3;15;left;yes;250;leftarrow;430;false;focus;yes;573137;Chrome;112.0;macOS;10.15.7;undefined;undefined;1440 x 900;1440 x 900
H018;53;Mannelijk;Rechts;3;16;left;no;200;leftarrow;584;true;focus;yes;574478;Chrome;112.0;macOS;10.15.7;undefined;undefined;1440 x 900;1440 x 900
H018;53;Mannelijk;Rechts;3;17;right;no;200;rightarrow;603;true;focus;yes;575846;Chrome;112.0;macOS;10.15.7;undefined;undefined;1440 x 900;1440 x 900
H018;53;Mannelijk;Rechts;3;18;right;no;200;rightarrow;493;true;focus;yes;577101;Chrome;112.0;macOS;10.15.7;undefined;undefined;1440 x 900;1440 x 900
H018;53;Mannelijk;Rechts;3;19;left;no;200;leftarrow;397;true;focus;yes;578275;Chrome;112.0;macOS;10.15.7;undefined;undefined;1440 x 900;1440 x 900
H018;53;Mannelijk;Rechts;3;20;left;yes;200;leftarrow;444;false;focus;yes;579488;Chrome;112.0;macOS;10.15.7;undefined;undefined;1440 x 900;1440 x 900
H018;53;Mannelijk;Rechts;3;21;left;no;150;leftarrow;439;true;focus;yes;580692;Chrome;112.0;macOS;10.15.7;undefined;undefined;1440 x 900;1440 x 900
H018;53;Mannelijk;Rechts;3;22;left;no;150;leftarrow;485;true;focus;yes;581953;Chrome;112.0;macOS;10.15.7;undefined;undefined;1440 x 900;1440 x 900
H018;53;Mannelijk;Rechts;3;23;right;yes;150;undefined;null;true;focus;yes;583977;Chrome;112.0;macOS;10.15.7;undefined;undefined;1440 x 900;1440 x 900
H018;53;Mannelijk;Rechts;3;24;right;no;200;rightarrow;479;true;focus;yes;585221;Chrome;112.0;macOS;10.15.7;undefined;undefined;1440 x 900;1440 x 900
H018;53;Mannelijk;Rechts;3;25;right;no;200;rightarrow;357;true;focus;yes;586342;Chrome;112.0;macOS;10.15.7;undefined;undefined;1440 x 900;1440 x 900
H018;53;Mannelijk;Rechts;3;26;left;no;200;leftarrow;413;true;focus;yes;587532;Chrome;112.0;macOS;10.15.7;undefined;undefined;1440 x 900;1440 x 900
H018;53;Mannelijk;Rechts;3;27;right;no;200;rightarrow;526;true;focus;yes;588834;Chrome;112.0;macOS;10.15.7;undefined;undefined;1440 x 900;1440 x 900
H018;53;Mannelijk;Rechts;3;28;right;no;200;rightarrow;461;true;focus;yes;590057;Chrome;112.0;macOS;10.15.7;undefined;undefined;1440 x 900;1440 x 900
H018;53;Mannelijk;Rechts;3;29;left;yes;200;undefined;null;true;focus;yes;592074;Chrome;112.0;macOS;10.15.7;undefined;undefined;1440 x 900;1440 x 900
H018;53;Mannelijk;Rechts;3;30;left;no;250;leftarrow;414;true;focus;yes;593253;Chrome;112.0;macOS;10.15.7;undefined;undefined;1440 x 900;1440 x 900
H018;53;Mannelijk;Rechts;3;31;left;no;250;leftarrow;439;true;focus;yes;594455;Chrome;112.0;macOS;10.15.7;undefined;undefined;1440 x 900;1440 x 900
H018;53;Mannelijk;Rechts;3;32;right;yes;250;undefined;null;true;focus;yes;596477;Chrome;112.0;macOS;10.15.7;undefined;undefined;1440 x 900;1440 x 900
H018;53;Mannelijk;Rechts;3;33;right;yes;300;rightarrow;386;false;focus;yes;597640;Chrome;112.0;macOS;10.15.7;undefined;undefined;1440 x 900;1440 x 900
H018;53;Mannelijk;Rechts;3;34;right;no;250;rightarrow;460;true;focus;yes;598860;Chrome;112.0;macOS;10.15.7;undefined;undefined;1440 x 900;1440 x 900
H018;53;Mannelijk;Rechts;3;35;left;yes;250;leftarrow;413;false;focus;yes;600041;Chrome;112.0;macOS;10.15.7;undefined;undefined;1440 x 900;1440 x 900
H018;53;Mannelijk;Rechts;3;36;left;no;200;leftarrow;602;true;focus;yes;601414;Chrome;112.0;macOS;10.15.7;undefined;undefined;1440 x 900;1440 x 900
H018;53;Mannelijk;Rechts;3;37;right;no;200;rightarrow;519;true;focus;yes;602700;Chrome;112.0;macOS;10.15.7;undefined;undefined;1440 x 900;1440 x 900
H018;53;Mannelijk;Rechts;3;38;left;no;200;leftarrow;527;true;focus;yes;603991;Chrome;112.0;macOS;10.15.7;undefined;undefined;1440 x 900;1440 x 900
H018;53;Mannelijk;Rechts;3;39;right;no;200;rightarrow;650;true;focus;yes;605407;Chrome;112.0;macOS;10.15.7;undefined;undefined;1440 x 900;1440 x 900
H018;53;Mannelijk;Rechts;3;40;left;no;200;leftarrow;582;true;focus;yes;606755;Chrome;112.0;macOS;10.15.7;undefined;undefined;1440 x 900;1440 x 900
H018;53;Mannelijk;Rechts;3;41;right;no;200;rightarrow;348;true;focus;yes;607874;Chrome;112.0;macOS;10.15.7;undefined;undefined;1440 x 900;1440 x 900
H018;53;Mannelijk;Rechts;3;42;right;yes;200;rightarrow;460;false;focus;yes;609107;Chrome;112.0;macOS;10.15.7;undefined;undefined;1440 x 900;1440 x 900
H018;53;Mannelijk;Rechts;3;43;left;no;150;leftarrow;400;true;focus;yes;610278;Chrome;112.0;macOS;10.15.7;undefined;undefined;1440 x 900;1440 x 900
H018;53;Mannelijk;Rechts;3;44;right;no;150;rightarrow;438;true;focus;yes;611480;Chrome;112.0;macOS;10.15.7;undefined;undefined;1440 x 900;1440 x 900
H018;53;Mannelijk;Rechts;3;45;left;no;150;leftarrow;398;true;focus;yes;612643;Chrome;112.0;macOS;10.15.7;undefined;undefined;1440 x 900;1440 x 900
H018;53;Mannelijk;Rechts;3;46;right;no;150;rightarrow;439;true;focus;yes;613845;Chrome;112.0;macOS;10.15.7;undefined;undefined;1440 x 900;1440 x 900
H018;53;Mannelijk;Rechts;3;47;left;yes;150;undefined;null;true;focus;yes;615869;Chrome;112.0;macOS;10.15.7;undefined;undefined;1440 x 900;1440 x 900
H018;53;Mannelijk;Rechts;3;48;left;no;200;leftarrow;423;true;focus;yes;617063;Chrome;112.0;macOS;10.15.7;undefined;undefined;1440 x 900;1440 x 900
H018;53;Mannelijk;Rechts;3;49;right;no;200;rightarrow;646;true;focus;yes;618471;Chrome;112.0;macOS;10.15.7;undefined;undefined;1440 x 900;1440 x 900
H018;53;Mannelijk;Rechts;3;50;left;yes;200;undefined;null;true;focus;yes;620505;Chrome;112.0;macOS;10.15.7;undefined;undefined;1440 x 900;1440 x 900
H018;53;Mannelijk;Rechts;3;51;left;no;250;leftarrow;414;true;focus;yes;621688;Chrome;112.0;macOS;10.15.7;undefined;undefined;1440 x 900;1440 x 900
H018;53;Mannelijk;Rechts;3;52;right;no;250;rightarrow;478;true;focus;yes;622942;Chrome;112.0;macOS;10.15.7;undefined;undefined;1440 x 900;1440 x 900
H018;53;Mannelijk;Rechts;3;53;right;yes;250;undefined;null;true;focus;yes;624973;Chrome;112.0;macOS;10.15.7;undefined;undefined;1440 x 900;1440 x 900
H018;53;Mannelijk;Rechts;3;54;right;no;300;rightarrow;361;true;focus;yes;626101;Chrome;112.0;macOS;10.15.7;undefined;undefined;1440 x 900;1440 x 900
H018;53;Mannelijk;Rechts;3;55;left;no;300;leftarrow;375;true;focus;yes;627244;Chrome;112.0;macOS;10.15.7;undefined;undefined;1440 x 900;1440 x 900
H018;53;Mannelijk;Rechts;3;56;left;no;300;leftarrow;361;true;focus;yes;628381;Chrome;112.0;macOS;10.15.7;undefined;undefined;1440 x 900;1440 x 900
H018;53;Mannelijk;Rechts;3;57;right;no;300;rightarrow;391;true;focus;yes;629541;Chrome;112.0;macOS;10.15.7;undefined;undefined;1440 x 900;1440 x 900
H018;53;Mannelijk;Rechts;3;58;left;yes;300;undefined;null;true;focus;yes;631570;Chrome;112.0;macOS;10.15.7;undefined;undefined;1440 x 900;1440 x 900
H018;53;Mannelijk;Rechts;3;59;left;no;350;leftarrow;345;true;focus;yes;632682;Chrome;112.0;macOS;10.15.7;undefined;undefined;1440 x 900;1440 x 900
H018;53;Mannelijk;Rechts;3;60;right;no;350;rightarrow;342;true;focus;yes;633788;Chrome;112.0;macOS;10.15.7;undefined;undefined;1440 x 900;1440 x 900
H018;53;Mannelijk;Rechts;3;61;right;no;350;rightarrow;604;true;focus;yes;635163;Chrome;112.0;macOS;10.15.7;undefined;undefined;1440 x 900;1440 x 900
H018;53;Mannelijk;Rechts;3;62;left;no;350;leftarrow;620;true;focus;yes;636541;Chrome;112.0;macOS;10.15.7;undefined;undefined;1440 x 900;1440 x 900
H018;53;Mannelijk;Rechts;3;63;left;no;350;leftarrow;452;true;focus;yes;637769;Chrome;112.0;macOS;10.15.7;undefined;undefined;1440 x 900;1440 x 900
H018;53;Mannelijk;Rechts;3;64;right;yes;350;undefined;null;true;focus;yes;639788;Chrome;112.0;macOS;10.15.7;undefined;undefined;1440 x 900;1440 x 900
H018;53;Mannelijk;Rechts;3;65;right;yes;400;rightarrow;440;false;focus;yes;640994;Chrome;112.0;macOS;10.15.7;undefined;undefined;1440 x 900;1440 x 900
H018;53;Mannelijk;Rechts;3;66;left;no;350;leftarrow;387;true;focus;yes;642145;Chrome;112.0;macOS;10.15.7;undefined;undefined;1440 x 900;1440 x 900
H018;53;Mannelijk;Rechts;3;67;right;no;350;rightarrow;363;true;focus;yes;643283;Chrome;112.0;macOS;10.15.7;undefined;undefined;1440 x 900;1440 x 900
H018;53;Mannelijk;Rechts;3;68;left;no;350;leftarrow;504;true;focus;yes;644561;Chrome;112.0;macOS;10.15.7;undefined;undefined;1440 x 900;1440 x 900
H018;53;Mannelijk;Rechts;3;69;right;no;350;rightarrow;360;true;focus;yes;645696;Chrome;112.0;macOS;10.15.7;undefined;undefined;1440 x 900;1440 x 900
H018;53;Mannelijk;Rechts;3;70;right;no;350;rightarrow;426;true;focus;yes;646884;Chrome;112.0;macOS;10.15.7;undefined;undefined;1440 x 900;1440 x 900
H018;53;Mannelijk;Rechts;3;71;left;no;350;leftarrow;411;true;focus;yes;648076;Chrome;112.0;macOS;10.15.7;undefined;undefined;1440 x 900;1440 x 900
H018;53;Mannelijk;Rechts;3;72;left;yes;350;leftarrow;369;false;focus;yes;649217;Chrome;112.0;macOS;10.15.7;undefined;undefined;1440 x 900;1440 x 900
H018;53;Mannelijk;Rechts;3;73;right;yes;300;rightarrow;495;false;focus;yes;650478;Chrome;112.0;macOS;10.15.7;undefined;undefined;1440 x 900;1440 x 900
H018;53;Mannelijk;Rechts;3;74;right;no;250;rightarrow;546;true;focus;yes;651791;Chrome;112.0;macOS;10.15.7;undefined;undefined;1440 x 900;1440 x 900
H018;53;Mannelijk;Rechts;3;75;left;no;250;leftarrow;426;true;focus;yes;652991;Chrome;112.0;macOS;10.15.7;undefined;undefined;1440 x 900;1440 x 900
H018;53;Mannelijk;Rechts;3;76;right;no;250;rightarrow;558;true;focus;yes;654317;Chrome;112.0;macOS;10.15.7;undefined;undefined;1440 x 900;1440 x 900
H018;53;Mannelijk;Rechts;3;77;left;no;250;leftarrow;498;true;focus;yes;655593;Chrome;112.0;macOS;10.15.7;undefined;undefined;1440 x 900;1440 x 900
H018;53;Mannelijk;Rechts;3;78;left;no;250;leftarrow;596;true;focus;yes;656955;Chrome;112.0;macOS;10.15.7;undefined;undefined;1440 x 900;1440 x 900
H018;53;Mannelijk;Rechts;3;79;left;yes;250;undefined;null;true;focus;yes;658973;Chrome;112.0;macOS;10.15.7;undefined;undefined;1440 x 900;1440 x 900
H018;53;Mannelijk;Rechts;3;80;right;no;300;rightarrow;356;true;focus;yes;660107;Chrome;112.0;macOS;10.15.7;undefined;undefined;1440 x 900;1440 x 900
H018;53;Mannelijk;Rechts;3;81;left;yes;300;undefined;null;true;focus;yes;662125;Chrome;112.0;macOS;10.15.7;undefined;undefined;1440 x 900;1440 x 900
H018;53;Mannelijk;Rechts;3;82;right;no;350;rightarrow;365;true;focus;yes;663260;Chrome;112.0;macOS;10.15.7;undefined;undefined;1440 x 900;1440 x 900
H018;53;Mannelijk;Rechts;3;83;left;no;350;leftarrow;373;true;focus;yes;664397;Chrome;112.0;macOS;10.15.7;undefined;undefined;1440 x 900;1440 x 900
H018;53;Mannelijk;Rechts;3;84;right;yes;350;rightarrow;529;false;focus;yes;665689;Chrome;112.0;macOS;10.15.7;undefined;undefined;1440 x 900;1440 x 900
H018;53;Mannelijk;Rechts;3;85;right;no;300;rightarrow;709;true;focus;yes;667173;Chrome;112.0;macOS;10.15.7;undefined;undefined;1440 x 900;1440 x 900
H018;53;Mannelijk;Rechts;3;86;left;no;300;leftarrow;436;true;focus;yes;668380;Chrome;112.0;macOS;10.15.7;undefined;undefined;1440 x 900;1440 x 900
H018;53;Mannelijk;Rechts;3;87;left;no;300;leftarrow;622;true;focus;yes;669775;Chrome;112.0;macOS;10.15.7;undefined;undefined;1440 x 900;1440 x 900
H018;53;Mannelijk;Rechts;3;88;right;no;300;rightarrow;521;true;focus;yes;671061;Chrome;112.0;macOS;10.15.7;undefined;undefined;1440 x 900;1440 x 900
H018;53;Mannelijk;Rechts;3;89;left;no;300;leftarrow;578;true;focus;yes;672397;Chrome;112.0;macOS;10.15.7;undefined;undefined;1440 x 900;1440 x 900
H018;53;Mannelijk;Rechts;3;90;left;no;300;leftarrow;549;true;focus;yes;673719;Chrome;112.0;macOS;10.15.7;undefined;undefined;1440 x 900;1440 x 900
H018;53;Mannelijk;Rechts;3;91;right;no;300;rightarrow;464;true;focus;yes;674951;Chrome;112.0;macOS;10.15.7;undefined;undefined;1440 x 900;1440 x 900
H018;53;Mannelijk;Rechts;3;92;left;no;300;leftarrow;476;true;focus;yes;676204;Chrome;112.0;macOS;10.15.7;undefined;undefined;1440 x 900;1440 x 900
H018;53;Mannelijk;Rechts;3;93;left;yes;300;undefined;null;true;focus;yes;678235;Chrome;112.0;macOS;10.15.7;undefined;undefined;1440 x 900;1440 x 900
H018;53;Mannelijk;Rechts;3;94;right;no;350;rightarrow;416;true;focus;yes;679419;Chrome;112.0;macOS;10.15.7;undefined;undefined;1440 x 900;1440 x 900
H018;53;Mannelijk;Rechts;3;95;right;yes;350;rightarrow;594;false;focus;yes;680785;Chrome;112.0;macOS;10.15.7;undefined;undefined;1440 x 900;1440 x 900
H018;53;Mannelijk;Rechts;3;96;right;no;300;rightarrow;424;true;focus;yes;681986;Chrome;112.0;macOS;10.15.7;undefined;undefined;1440 x 900;1440 x 900
H018;53;Mannelijk;Rechts;3;97;left;no;300;leftarrow;489;true;focus;yes;683251;Chrome;112.0;macOS;10.15.7;undefined;undefined;1440 x 900;1440 x 900
H018;53;Mannelijk;Rechts;3;98;left;yes;300;undefined;null;true;focus;yes;685271;Chrome;112.0;macOS;10.15.7;undefined;undefined;1440 x 900;1440 x 900
H018;53;Mannelijk;Rechts;3;99;right;no;350;rightarrow;375;true;focus;yes;686417;Chrome;112.0;macOS;10.15.7;undefined;undefined;1440 x 900;1440 x 900
H018;53;Mannelijk;Rechts;3;100;left;no;350;leftarrow;552;true;focus;yes;687735;Chrome;112.0;macOS;10.15.7;undefined;undefined;1440 x 900;1440 x 900
H018;53;Mannelijk;Rechts;3;101;left;no;350;leftarrow;394;true;focus;yes;688906;Chrome;112.0;macOS;10.15.7;undefined;undefined;1440 x 900;1440 x 900
H018;53;Mannelijk;Rechts;3;102;right;yes;350;rightarrow;454;false;focus;yes;690126;Chrome;112.0;macOS;10.15.7;undefined;undefined;1440 x 900;1440 x 900
H018;53;Mannelijk;Rechts;3;103;right;no;300;rightarrow;658;true;focus;yes;691546;Chrome;112.0;macOS;10.15.7;undefined;undefined;1440 x 900;1440 x 900
H018;53;Mannelijk;Rechts;3;104;right;no;300;rightarrow;349;true;focus;yes;692661;Chrome;112.0;macOS;10.15.7;undefined;undefined;1440 x 900;1440 x 900
H018;53;Mannelijk;Rechts;3;105;left;no;300;leftarrow;655;true;focus;yes;694078;Chrome;112.0;macOS;10.15.7;undefined;undefined;1440 x 900;1440 x 900
H018;53;Mannelijk;Rechts;3;106;left;yes;300;leftarrow;430;false;focus;yes;695278;Chrome;112.0;macOS;10.15.7;undefined;undefined;1440 x 900;1440 x 900
H018;53;Mannelijk;Rechts;3;107;right;no;250;rightarrow;423;true;focus;yes;696472;Chrome;112.0;macOS;10.15.7;undefined;undefined;1440 x 900;1440 x 900
H018;53;Mannelijk;Rechts;3;108;right;no;250;rightarrow;418;true;focus;yes;697657;Chrome;112.0;macOS;10.15.7;undefined;undefined;1440 x 900;1440 x 900
H018;53;Mannelijk;Rechts;3;109;left;no;250;leftarrow;556;true;focus;yes;698991;Chrome;112.0;macOS;10.15.7;undefined;undefined;1440 x 900;1440 x 900
H018;53;Mannelijk;Rechts;3;110;right;yes;250;rightarrow;434;false;focus;yes;700194;Chrome;112.0;macOS;10.15.7;undefined;undefined;1440 x 900;1440 x 900
H018;53;Mannelijk;Rechts;3;111;left;no;200;leftarrow;711;true;focus;yes;701679;Chrome;112.0;macOS;10.15.7;undefined;undefined;1440 x 900;1440 x 900
H018;53;Mannelijk;Rechts;3;112;right;no;200;rightarrow;397;true;focus;yes;702844;Chrome;112.0;macOS;10.15.7;undefined;undefined;1440 x 900;1440 x 900
H018;53;Mannelijk;Rechts;3;113;left;no;200;leftarrow;405;true;focus;yes;704023;Chrome;112.0;macOS;10.15.7;undefined;undefined;1440 x 900;1440 x 900
H018;53;Mannelijk;Rechts;3;114;right;yes;200;undefined;null;true;focus;yes;706062;Chrome;112.0;macOS;10.15.7;undefined;undefined;1440 x 900;1440 x 900
H018;53;Mannelijk;Rechts;3;115;right;no;250;rightarrow;395;true;focus;yes;707231;Chrome;112.0;macOS;10.15.7;undefined;undefined;1440 x 900;1440 x 900
H018;53;Mannelijk;Rechts;3;116;left;no;250;leftarrow;621;true;focus;yes;708631;Chrome;112.0;macOS;10.15.7;undefined;undefined;1440 x 900;1440 x 900
H018;53;Mannelijk;Rechts;3;117;left;no;250;leftarrow;386;true;focus;yes;709793;Chrome;112.0;macOS;10.15.7;undefined;undefined;1440 x 900;1440 x 900
H018;53;Mannelijk;Rechts;3;118;right;no;250;rightarrow;395;true;focus;yes;710965;Chrome;112.0;macOS;10.15.7;undefined;undefined;1440 x 900;1440 x 900
H018;53;Mannelijk;Rechts;3;119;left;yes;250;undefined;null;true;focus;yes;712984;Chrome;112.0;macOS;10.15.7;undefined;undefined;1440 x 900;1440 x 900
H018;53;Mannelijk;Rechts;3;120;right;no;300;rightarrow;387;true;focus;yes;714141;Chrome;112.0;macOS;10.15.7;undefined;undefined;1440 x 900;1440 x 900
H018;53;Mannelijk;Rechts;3;121;left;no;300;leftarrow;658;true;focus;yes;715562;Chrome;112.0;macOS;10.15.7;undefined;undefined;1440 x 900;1440 x 900
H018;53;Mannelijk;Rechts;3;122;right;yes;300;rightarrow;403;false;focus;yes;716733;Chrome;112.0;macOS;10.15.7;undefined;undefined;1440 x 900;1440 x 900
H018;53;Mannelijk;Rechts;3;123;right;no;250;rightarrow;611;true;focus;yes;718115;Chrome;112.0;macOS;10.15.7;undefined;undefined;1440 x 900;1440 x 900
H018;53;Mannelijk;Rechts;3;124;right;no;250;rightarrow;395;true;focus;yes;719272;Chrome;112.0;macOS;10.15.7;undefined;undefined;1440 x 900;1440 x 900
H018;53;Mannelijk;Rechts;3;125;right;no;250;rightarrow;531;true;focus;yes;720566;Chrome;112.0;macOS;10.15.7;undefined;undefined;1440 x 900;1440 x 900
H018;53;Mannelijk;Rechts;3;126;left;no;250;leftarrow;552;true;focus;yes;721890;Chrome;112.0;macOS;10.15.7;undefined;undefined;1440 x 900;1440 x 900
H018;53;Mannelijk;Rechts;3;127;left;no;250;leftarrow;398;true;focus;yes;723054;Chrome;112.0;macOS;10.15.7;undefined;undefined;1440 x 900;1440 x 900
H018;53;Mannelijk;Rechts;3;128;left;yes;250;leftarrow;455;false;focus;yes;724271;Chrome;112.0;macOS;10.15.7;undefined;undefined;1440 x 900;1440 x 900
H018;53;Mannelijk;Rechts;4;1;left;yes;200;leftarrow;474;false;focus;yes;743126;Chrome;112.0;macOS;10.15.7;undefined;undefined;1440 x 900;1440 x 900
H018;53;Mannelijk;Rechts;4;2;right;no;150;rightarrow;396;true;focus;yes;744296;Chrome;112.0;macOS;10.15.7;undefined;undefined;1440 x 900;1440 x 900
H018;53;Mannelijk;Rechts;4;3;right;yes;150;undefined;null;true;focus;yes;746317;Chrome;112.0;macOS;10.15.7;undefined;undefined;1440 x 900;1440 x 900
H018;53;Mannelijk;Rechts;4;4;left;no;200;leftarrow;456;true;focus;yes;747541;Chrome;112.0;macOS;10.15.7;undefined;undefined;1440 x 900;1440 x 900
H018;53;Mannelijk;Rechts;4;5;left;no;200;leftarrow;426;true;focus;yes;748739;Chrome;112.0;macOS;10.15.7;undefined;undefined;1440 x 900;1440 x 900
H018;53;Mannelijk;Rechts;4;6;right;no;200;rightarrow;422;true;focus;yes;749938;Chrome;112.0;macOS;10.15.7;undefined;undefined;1440 x 900;1440 x 900
H018;53;Mannelijk;Rechts;4;7;left;no;200;leftarrow;413;true;focus;yes;751119;Chrome;112.0;macOS;10.15.7;undefined;undefined;1440 x 900;1440 x 900
H018;53;Mannelijk;Rechts;4;8;right;no;200;rightarrow;586;true;focus;yes;752477;Chrome;112.0;macOS;10.15.7;undefined;undefined;1440 x 900;1440 x 900
H018;53;Mannelijk;Rechts;4;9;right;no;200;rightarrow;431;true;focus;yes;753671;Chrome;112.0;macOS;10.15.7;undefined;undefined;1440 x 900;1440 x 900
H018;53;Mannelijk;Rechts;4;10;right;no;200;rightarrow;403;true;focus;yes;754845;Chrome;112.0;macOS;10.15.7;undefined;undefined;1440 x 900;1440 x 900
H018;53;Mannelijk;Rechts;4;11;right;no;200;rightarrow;462;true;focus;yes;756072;Chrome;112.0;macOS;10.15.7;undefined;undefined;1440 x 900;1440 x 900
H018;53;Mannelijk;Rechts;4;12;left;no;200;leftarrow;653;true;focus;yes;757502;Chrome;112.0;macOS;10.15.7;undefined;undefined;1440 x 900;1440 x 900
H018;53;Mannelijk;Rechts;4;13;right;yes;200;undefined;null;true;focus;yes;759528;Chrome;112.0;macOS;10.15.7;undefined;undefined;1440 x 900;1440 x 900
H018;53;Mannelijk;Rechts;4;14;left;no;250;leftarrow;434;true;focus;yes;760727;Chrome;112.0;macOS;10.15.7;undefined;undefined;1440 x 900;1440 x 900
H018;53;Mannelijk;Rechts;4;15;left;yes;250;leftarrow;453;false;focus;yes;761951;Chrome;112.0;macOS;10.15.7;undefined;undefined;1440 x 900;1440 x 900
H018;53;Mannelijk;Rechts;4;16;left;no;200;leftarrow;758;true;focus;yes;763480;Chrome;112.0;macOS;10.15.7;undefined;undefined;1440 x 900;1440 x 900
H018;53;Mannelijk;Rechts;4;17;right;no;200;rightarrow;423;true;focus;yes;764675;Chrome;112.0;macOS;10.15.7;undefined;undefined;1440 x 900;1440 x 900
H018;53;Mannelijk;Rechts;4;18;left;yes;200;undefined;null;true;focus;yes;766701;Chrome;112.0;macOS;10.15.7;undefined;undefined;1440 x 900;1440 x 900
H018;53;Mannelijk;Rechts;4;19;left;no;250;leftarrow;438;true;focus;yes;767913;Chrome;112.0;macOS;10.15.7;undefined;undefined;1440 x 900;1440 x 900
H018;53;Mannelijk;Rechts;4;20;right;yes;250;undefined;null;true;focus;yes;769943;Chrome;112.0;macOS;10.15.7;undefined;undefined;1440 x 900;1440 x 900
H018;53;Mannelijk;Rechts;4;21;left;no;300;leftarrow;343;true;focus;yes;771058;Chrome;112.0;macOS;10.15.7;undefined;undefined;1440 x 900;1440 x 900
H018;53;Mannelijk;Rechts;4;22;right;no;300;rightarrow;360;true;focus;yes;772182;Chrome;112.0;macOS;10.15.7;undefined;undefined;1440 x 900;1440 x 900
H018;53;Mannelijk;Rechts;4;23;left;no;300;leftarrow;521;true;focus;yes;773468;Chrome;112.0;macOS;10.15.7;undefined;undefined;1440 x 900;1440 x 900
H018;53;Mannelijk;Rechts;4;24;right;no;300;rightarrow;570;true;focus;yes;774800;Chrome;112.0;macOS;10.15.7;undefined;undefined;1440 x 900;1440 x 900
H018;53;Mannelijk;Rechts;4;25;right;no;300;rightarrow;464;true;focus;yes;776034;Chrome;112.0;macOS;10.15.7;undefined;undefined;1440 x 900;1440 x 900
H018;53;Mannelijk;Rechts;4;26;right;no;300;leftarrow;397;false;focus;yes;777210;Chrome;112.0;macOS;10.15.7;undefined;undefined;1440 x 900;1440 x 900
H018;53;Mannelijk;Rechts;4;27;right;yes;300;rightarrow;371;false;focus;yes;778350;Chrome;112.0;macOS;10.15.7;undefined;undefined;1440 x 900;1440 x 900
H018;53;Mannelijk;Rechts;4;28;left;no;250;leftarrow;426;true;focus;yes;779542;Chrome;112.0;macOS;10.15.7;undefined;undefined;1440 x 900;1440 x 900
H018;53;Mannelijk;Rechts;4;29;left;no;250;leftarrow;382;true;focus;yes;780696;Chrome;112.0;macOS;10.15.7;undefined;undefined;1440 x 900;1440 x 900
H018;53;Mannelijk;Rechts;4;30;left;yes;250;leftarrow;413;false;focus;yes;781880;Chrome;112.0;macOS;10.15.7;undefined;undefined;1440 x 900;1440 x 900
H018;53;Mannelijk;Rechts;4;31;right;no;200;rightarrow;443;true;focus;yes;783095;Chrome;112.0;macOS;10.15.7;undefined;undefined;1440 x 900;1440 x 900
H018;53;Mannelijk;Rechts;4;32;left;no;200;leftarrow;580;true;focus;yes;784439;Chrome;112.0;macOS;10.15.7;undefined;undefined;1440 x 900;1440 x 900
H018;53;Mannelijk;Rechts;4;33;left;no;200;leftarrow;467;true;focus;yes;785669;Chrome;112.0;macOS;10.15.7;undefined;undefined;1440 x 900;1440 x 900
H018;53;Mannelijk;Rechts;4;34;right;no;200;rightarrow;614;true;focus;yes;787056;Chrome;112.0;macOS;10.15.7;undefined;undefined;1440 x 900;1440 x 900
H018;53;Mannelijk;Rechts;4;35;left;no;200;leftarrow;461;true;focus;yes;788280;Chrome;112.0;macOS;10.15.7;undefined;undefined;1440 x 900;1440 x 900
H018;53;Mannelijk;Rechts;4;36;right;no;200;rightarrow;422;true;focus;yes;789464;Chrome;112.0;macOS;10.15.7;undefined;undefined;1440 x 900;1440 x 900
H018;53;Mannelijk;Rechts;4;37;left;yes;200;undefined;null;true;focus;yes;791483;Chrome;112.0;macOS;10.15.7;undefined;undefined;1440 x 900;1440 x 900
H018;53;Mannelijk;Rechts;4;38;right;yes;250;rightarrow;354;false;focus;yes;792612;Chrome;112.0;macOS;10.15.7;undefined;undefined;1440 x 900;1440 x 900
H018;53;Mannelijk;Rechts;4;39;right;no;200;leftarrow;458;false;focus;yes;793832;Chrome;112.0;macOS;10.15.7;undefined;undefined;1440 x 900;1440 x 900
H018;53;Mannelijk;Rechts;4;40;left;no;200;leftarrow;559;true;focus;yes;795163;Chrome;112.0;macOS;10.15.7;undefined;undefined;1440 x 900;1440 x 900
H018;53;Mannelijk;Rechts;4;41;right;yes;200;rightarrow;408;false;focus;yes;796339;Chrome;112.0;macOS;10.15.7;undefined;undefined;1440 x 900;1440 x 900
H018;53;Mannelijk;Rechts;4;42;left;no;150;leftarrow;525;true;focus;yes;797625;Chrome;112.0;macOS;10.15.7;undefined;undefined;1440 x 900;1440 x 900
H018;53;Mannelijk;Rechts;4;43;left;yes;150;leftarrow;518;false;focus;yes;798920;Chrome;112.0;macOS;10.15.7;undefined;undefined;1440 x 900;1440 x 900
H018;53;Mannelijk;Rechts;4;44;right;no;100;rightarrow;571;true;focus;yes;800262;Chrome;112.0;macOS;10.15.7;undefined;undefined;1440 x 900;1440 x 900
H018;53;Mannelijk;Rechts;4;45;right;no;100;rightarrow;416;true;focus;yes;801440;Chrome;112.0;macOS;10.15.7;undefined;undefined;1440 x 900;1440 x 900
H018;53;Mannelijk;Rechts;4;46;left;no;100;leftarrow;541;true;focus;yes;802742;Chrome;112.0;macOS;10.15.7;undefined;undefined;1440 x 900;1440 x 900
H018;53;Mannelijk;Rechts;4;47;left;no;100;leftarrow;438;true;focus;yes;803946;Chrome;112.0;macOS;10.15.7;undefined;undefined;1440 x 900;1440 x 900
H018;53;Mannelijk;Rechts;4;48;right;no;100;rightarrow;647;true;focus;yes;805364;Chrome;112.0;macOS;10.15.7;undefined;undefined;1440 x 900;1440 x 900
H018;53;Mannelijk;Rechts;4;49;left;no;100;leftarrow;433;true;focus;yes;806560;Chrome;112.0;macOS;10.15.7;undefined;undefined;1440 x 900;1440 x 900
H018;53;Mannelijk;Rechts;4;50;left;no;100;leftarrow;493;true;focus;yes;807817;Chrome;112.0;macOS;10.15.7;undefined;undefined;1440 x 900;1440 x 900
H018;53;Mannelijk;Rechts;4;51;right;no;100;rightarrow;611;true;focus;yes;809201;Chrome;112.0;macOS;10.15.7;undefined;undefined;1440 x 900;1440 x 900
H018;53;Mannelijk;Rechts;4;52;right;no;100;rightarrow;429;true;focus;yes;810393;Chrome;112.0;macOS;10.15.7;undefined;undefined;1440 x 900;1440 x 900
H018;53;Mannelijk;Rechts;4;53;right;no;100;rightarrow;397;true;focus;yes;811552;Chrome;112.0;macOS;10.15.7;undefined;undefined;1440 x 900;1440 x 900
H018;53;Mannelijk;Rechts;4;54;left;yes;100;undefined;null;true;focus;yes;813569;Chrome;112.0;macOS;10.15.7;undefined;undefined;1440 x 900;1440 x 900
H018;53;Mannelijk;Rechts;4;55;right;yes;150;undefined;null;true;focus;yes;815609;Chrome;112.0;macOS;10.15.7;undefined;undefined;1440 x 900;1440 x 900
H018;53;Mannelijk;Rechts;4;56;left;no;200;leftarrow;429;true;focus;yes;816803;Chrome;112.0;macOS;10.15.7;undefined;undefined;1440 x 900;1440 x 900
H018;53;Mannelijk;Rechts;4;57;right;no;200;rightarrow;586;true;focus;yes;818157;Chrome;112.0;macOS;10.15.7;undefined;undefined;1440 x 900;1440 x 900
H018;53;Mannelijk;Rechts;4;58;left;no;200;leftarrow;506;true;focus;yes;819423;Chrome;112.0;macOS;10.15.7;undefined;undefined;1440 x 900;1440 x 900
H018;53;Mannelijk;Rechts;4;59;right;no;200;rightarrow;413;true;focus;yes;820610;Chrome;112.0;macOS;10.15.7;undefined;undefined;1440 x 900;1440 x 900
H018;53;Mannelijk;Rechts;4;60;right;yes;200;rightarrow;431;false;focus;yes;821822;Chrome;112.0;macOS;10.15.7;undefined;undefined;1440 x 900;1440 x 900
H018;53;Mannelijk;Rechts;4;61;left;no;150;leftarrow;575;true;focus;yes;823162;Chrome;112.0;macOS;10.15.7;undefined;undefined;1440 x 900;1440 x 900
H018;53;Mannelijk;Rechts;4;62;right;no;150;rightarrow;469;true;focus;yes;824412;Chrome;112.0;macOS;10.15.7;undefined;undefined;1440 x 900;1440 x 900
H018;53;Mannelijk;Rechts;4;63;left;no;150;leftarrow;638;true;focus;yes;825818;Chrome;112.0;macOS;10.15.7;undefined;undefined;1440 x 900;1440 x 900
H018;53;Mannelijk;Rechts;4;64;left;yes;150;undefined;null;true;focus;yes;827852;Chrome;112.0;macOS;10.15.7;undefined;undefined;1440 x 900;1440 x 900
H018;53;Mannelijk;Rechts;4;65;right;no;200;rightarrow;491;true;focus;yes;829107;Chrome;112.0;macOS;10.15.7;undefined;undefined;1440 x 900;1440 x 900
H018;53;Mannelijk;Rechts;4;66;left;yes;200;undefined;null;true;focus;yes;831143;Chrome;112.0;macOS;10.15.7;undefined;undefined;1440 x 900;1440 x 900
H018;53;Mannelijk;Rechts;4;67;right;yes;250;rightarrow;450;false;focus;yes;832362;Chrome;112.0;macOS;10.15.7;undefined;undefined;1440 x 900;1440 x 900
H018;53;Mannelijk;Rechts;4;68;left;no;200;leftarrow;534;true;focus;yes;833668;Chrome;112.0;macOS;10.15.7;undefined;undefined;1440 x 900;1440 x 900
H018;53;Mannelijk;Rechts;4;69;left;no;200;leftarrow;544;true;focus;yes;834980;Chrome;112.0;macOS;10.15.7;undefined;undefined;1440 x 900;1440 x 900
H018;53;Mannelijk;Rechts;4;70;left;no;200;leftarrow;433;true;focus;yes;836192;Chrome;112.0;macOS;10.15.7;undefined;undefined;1440 x 900;1440 x 900
H018;53;Mannelijk;Rechts;4;71;right;no;200;rightarrow;622;true;focus;yes;837589;Chrome;112.0;macOS;10.15.7;undefined;undefined;1440 x 900;1440 x 900
H018;53;Mannelijk;Rechts;4;72;right;no;200;rightarrow;553;true;focus;yes;838919;Chrome;112.0;macOS;10.15.7;undefined;undefined;1440 x 900;1440 x 900
H018;53;Mannelijk;Rechts;4;73;left;no;200;leftarrow;577;true;focus;yes;840261;Chrome;112.0;macOS;10.15.7;undefined;undefined;1440 x 900;1440 x 900
H018;53;Mannelijk;Rechts;4;74;left;no;200;leftarrow;549;true;focus;yes;841573;Chrome;112.0;macOS;10.15.7;undefined;undefined;1440 x 900;1440 x 900
H018;53;Mannelijk;Rechts;4;75;right;yes;200;undefined;null;true;focus;yes;843592;Chrome;112.0;macOS;10.15.7;undefined;undefined;1440 x 900;1440 x 900
H018;53;Mannelijk;Rechts;4;76;right;no;250;rightarrow;524;true;focus;yes;844890;Chrome;112.0;macOS;10.15.7;undefined;undefined;1440 x 900;1440 x 900
H018;53;Mannelijk;Rechts;4;77;right;no;250;rightarrow;411;true;focus;yes;846073;Chrome;112.0;macOS;10.15.7;undefined;undefined;1440 x 900;1440 x 900
H018;53;Mannelijk;Rechts;4;78;left;no;250;leftarrow;564;true;focus;yes;847411;Chrome;112.0;macOS;10.15.7;undefined;undefined;1440 x 900;1440 x 900
H018;53;Mannelijk;Rechts;4;79;right;no;250;rightarrow;644;true;focus;yes;848826;Chrome;112.0;macOS;10.15.7;undefined;undefined;1440 x 900;1440 x 900
H018;53;Mannelijk;Rechts;4;80;left;yes;250;leftarrow;525;false;focus;yes;850132;Chrome;112.0;macOS;10.15.7;undefined;undefined;1440 x 900;1440 x 900
H018;53;Mannelijk;Rechts;4;81;left;no;200;leftarrow;647;true;focus;yes;851543;Chrome;112.0;macOS;10.15.7;undefined;undefined;1440 x 900;1440 x 900
H018;53;Mannelijk;Rechts;4;82;right;no;200;rightarrow;652;true;focus;yes;852969;Chrome;112.0;macOS;10.15.7;undefined;undefined;1440 x 900;1440 x 900
H018;53;Mannelijk;Rechts;4;83;left;no;200;leftarrow;402;true;focus;yes;854134;Chrome;112.0;macOS;10.15.7;undefined;undefined;1440 x 900;1440 x 900
H018;53;Mannelijk;Rechts;4;84;left;yes;200;leftarrow;406;false;focus;yes;855316;Chrome;112.0;macOS;10.15.7;undefined;undefined;1440 x 900;1440 x 900
H018;53;Mannelijk;Rechts;4;85;right;no;150;rightarrow;453;true;focus;yes;856547;Chrome;112.0;macOS;10.15.7;undefined;undefined;1440 x 900;1440 x 900
H018;53;Mannelijk;Rechts;4;86;left;no;150;leftarrow;733;true;focus;yes;858050;Chrome;112.0;macOS;10.15.7;undefined;undefined;1440 x 900;1440 x 900
H018;53;Mannelijk;Rechts;4;87;right;no;150;rightarrow;699;true;focus;yes;859511;Chrome;112.0;macOS;10.15.7;undefined;undefined;1440 x 900;1440 x 900
H018;53;Mannelijk;Rechts;4;88;right;yes;150;undefined;null;true;focus;yes;861545;Chrome;112.0;macOS;10.15.7;undefined;undefined;1440 x 900;1440 x 900
H018;53;Mannelijk;Rechts;4;89;left;no;200;leftarrow;571;true;focus;yes;862892;Chrome;112.0;macOS;10.15.7;undefined;undefined;1440 x 900;1440 x 900
H018;53;Mannelijk;Rechts;4;90;left;yes;200;undefined;null;true;focus;yes;864929;Chrome;112.0;macOS;10.15.7;undefined;undefined;1440 x 900;1440 x 900
H018;53;Mannelijk;Rechts;4;91;right;yes;250;rightarrow;456;false;focus;yes;866149;Chrome;112.0;macOS;10.15.7;undefined;undefined;1440 x 900;1440 x 900
H018;53;Mannelijk;Rechts;4;92;left;no;200;undefined;null;false;focus;yes;868173;Chrome;112.0;macOS;10.15.7;undefined;undefined;1440 x 900;1440 x 900
H018;53;Mannelijk;Rechts;4;93;right;no;200;rightarrow;430;true;focus;yes;869371;Chrome;112.0;macOS;10.15.7;undefined;undefined;1440 x 900;1440 x 900
H018;53;Mannelijk;Rechts;4;94;right;no;200;rightarrow;439;true;focus;yes;870588;Chrome;112.0;macOS;10.15.7;undefined;undefined;1440 x 900;1440 x 900
H018;53;Mannelijk;Rechts;4;95;right;no;200;rightarrow;453;true;focus;yes;871820;Chrome;112.0;macOS;10.15.7;undefined;undefined;1440 x 900;1440 x 900
H018;53;Mannelijk;Rechts;4;96;left;no;200;leftarrow;553;true;focus;yes;873143;Chrome;112.0;macOS;10.15.7;undefined;undefined;1440 x 900;1440 x 900
H018;53;Mannelijk;Rechts;4;97;left;no;200;leftarrow;629;true;focus;yes;874548;Chrome;112.0;macOS;10.15.7;undefined;undefined;1440 x 900;1440 x 900
H018;53;Mannelijk;Rechts;4;98;right;no;200;rightarrow;645;true;focus;yes;875965;Chrome;112.0;macOS;10.15.7;undefined;undefined;1440 x 900;1440 x 900
H018;53;Mannelijk;Rechts;4;99;left;no;200;leftarrow;381;true;focus;yes;877124;Chrome;112.0;macOS;10.15.7;undefined;undefined;1440 x 900;1440 x 900
H018;53;Mannelijk;Rechts;4;100;right;no;200;rightarrow;605;true;focus;yes;878501;Chrome;112.0;macOS;10.15.7;undefined;undefined;1440 x 900;1440 x 900
H018;53;Mannelijk;Rechts;4;101;right;no;200;rightarrow;602;true;focus;yes;879883;Chrome;112.0;macOS;10.15.7;undefined;undefined;1440 x 900;1440 x 900
H018;53;Mannelijk;Rechts;4;102;left;no;200;leftarrow;634;true;focus;yes;881280;Chrome;112.0;macOS;10.15.7;undefined;undefined;1440 x 900;1440 x 900
H018;53;Mannelijk;Rechts;4;103;left;yes;200;undefined;null;true;focus;yes;883306;Chrome;112.0;macOS;10.15.7;undefined;undefined;1440 x 900;1440 x 900
H018;53;Mannelijk;Rechts;4;104;right;yes;250;undefined;null;true;focus;yes;885320;Chrome;112.0;macOS;10.15.7;undefined;undefined;1440 x 900;1440 x 900
H018;53;Mannelijk;Rechts;4;105;left;yes;300;leftarrow;441;false;focus;yes;886527;Chrome;112.0;macOS;10.15.7;undefined;undefined;1440 x 900;1440 x 900
H018;53;Mannelijk;Rechts;4;106;right;yes;250;rightarrow;409;false;focus;yes;887712;Chrome;112.0;macOS;10.15.7;undefined;undefined;1440 x 900;1440 x 900
H018;53;Mannelijk;Rechts;4;107;left;no;200;leftarrow;460;true;focus;yes;888938;Chrome;112.0;macOS;10.15.7;undefined;undefined;1440 x 900;1440 x 900
H018;53;Mannelijk;Rechts;4;108;right;no;200;rightarrow;410;true;focus;yes;890111;Chrome;112.0;macOS;10.15.7;undefined;undefined;1440 x 900;1440 x 900
H018;53;Mannelijk;Rechts;4;109;left;no;200;leftarrow;440;true;focus;yes;891329;Chrome;112.0;macOS;10.15.7;undefined;undefined;1440 x 900;1440 x 900
H018;53;Mannelijk;Rechts;4;110;left;no;200;leftarrow;428;true;focus;yes;892532;Chrome;112.0;macOS;10.15.7;undefined;undefined;1440 x 900;1440 x 900
H018;53;Mannelijk;Rechts;4;111;right;no;200;rightarrow;616;true;focus;yes;893918;Chrome;112.0;macOS;10.15.7;undefined;undefined;1440 x 900;1440 x 900
H018;53;Mannelijk;Rechts;4;112;right;no;200;rightarrow;468;true;focus;yes;895151;Chrome;112.0;macOS;10.15.7;undefined;undefined;1440 x 900;1440 x 900
H018;53;Mannelijk;Rechts;4;113;right;no;200;rightarrow;582;true;focus;yes;896511;Chrome;112.0;macOS;10.15.7;undefined;undefined;1440 x 900;1440 x 900
H018;53;Mannelijk;Rechts;4;114;left;no;200;leftarrow;553;true;focus;yes;897831;Chrome;112.0;macOS;10.15.7;undefined;undefined;1440 x 900;1440 x 900
H018;53;Mannelijk;Rechts;4;115;right;no;200;rightarrow;492;true;focus;yes;899100;Chrome;112.0;macOS;10.15.7;undefined;undefined;1440 x 900;1440 x 900
H018;53;Mannelijk;Rechts;4;116;right;yes;200;undefined;null;true;focus;yes;901130;Chrome;112.0;macOS;10.15.7;undefined;undefined;1440 x 900;1440 x 900
H018;53;Mannelijk;Rechts;4;117;left;no;250;leftarrow;622;true;focus;yes;902528;Chrome;112.0;macOS;10.15.7;undefined;undefined;1440 x 900;1440 x 900
H018;53;Mannelijk;Rechts;4;118;left;yes;250;leftarrow;423;false;focus;yes;903713;Chrome;112.0;macOS;10.15.7;undefined;undefined;1440 x 900;1440 x 900
H018;53;Mannelijk;Rechts;4;119;left;no;200;leftarrow;503;true;focus;yes;904981;Chrome;112.0;macOS;10.15.7;undefined;undefined;1440 x 900;1440 x 900
H018;53;Mannelijk;Rechts;4;120;right;no;200;rightarrow;569;true;focus;yes;906329;Chrome;112.0;macOS;10.15.7;undefined;undefined;1440 x 900;1440 x 900
H018;53;Mannelijk;Rechts;4;121;right;no;200;rightarrow;534;true;focus;yes;907624;Chrome;112.0;macOS;10.15.7;undefined;undefined;1440 x 900;1440 x 900
H018;53;Mannelijk;Rechts;4;122;right;no;200;rightarrow;557;true;focus;yes;908947;Chrome;112.0;macOS;10.15.7;undefined;undefined;1440 x 900;1440 x 900
H018;53;Mannelijk;Rechts;4;123;left;yes;200;undefined;null;true;focus;yes;910970;Chrome;112.0;macOS;10.15.7;undefined;undefined;1440 x 900;1440 x 900
H018;53;Mannelijk;Rechts;4;124;right;yes;250;rightarrow;432;false;focus;yes;912178;Chrome;112.0;macOS;10.15.7;undefined;undefined;1440 x 900;1440 x 900
H018;53;Mannelijk;Rechts;4;125;left;no;200;leftarrow;464;true;focus;yes;913406;Chrome;112.0;macOS;10.15.7;undefined;undefined;1440 x 900;1440 x 900
H018;53;Mannelijk;Rechts;4;126;left;no;200;leftarrow;337;true;focus;yes;914521;Chrome;112.0;macOS;10.15.7;undefined;undefined;1440 x 900;1440 x 900
H018;53;Mannelijk;Rechts;4;127;left;no;200;leftarrow;551;true;focus;yes;915837;Chrome;112.0;macOS;10.15.7;undefined;undefined;1440 x 900;1440 x 900
H018;53;Mannelijk;Rechts;4;128;right;no;200;rightarrow;534;true;focus;yes;917153;Chrome;112.0;macOS;10.15.7;undefined;undefined;1440 x 900;1440 x 900
H018;53;Mannelijk;Rechts;5;1;left;yes;200;leftarrow;458;false;focus;yes;936934;Chrome;112.0;macOS;10.15.7;undefined;undefined;1440 x 900;1440 x 900
H018;53;Mannelijk;Rechts;5;2;right;no;150;rightarrow;583;true;focus;yes;938288;Chrome;112.0;macOS;10.15.7;undefined;undefined;1440 x 900;1440 x 900
H018;53;Mannelijk;Rechts;5;3;left;no;150;leftarrow;425;true;focus;yes;939480;Chrome;112.0;macOS;10.15.7;undefined;undefined;1440 x 900;1440 x 900
H018;53;Mannelijk;Rechts;5;4;right;no;150;rightarrow;374;true;focus;yes;940632;Chrome;112.0;macOS;10.15.7;undefined;undefined;1440 x 900;1440 x 900
H018;53;Mannelijk;Rechts;5;5;right;yes;150;rightarrow;413;false;focus;yes;941813;Chrome;112.0;macOS;10.15.7;undefined;undefined;1440 x 900;1440 x 900
H018;53;Mannelijk;Rechts;5;6;right;no;100;rightarrow;652;true;focus;yes;943238;Chrome;112.0;macOS;10.15.7;undefined;undefined;1440 x 900;1440 x 900
H018;53;Mannelijk;Rechts;5;7;left;no;100;leftarrow;401;true;focus;yes;944411;Chrome;112.0;macOS;10.15.7;undefined;undefined;1440 x 900;1440 x 900
H018;53;Mannelijk;Rechts;5;8;left;no;100;leftarrow;567;true;focus;yes;945753;Chrome;112.0;macOS;10.15.7;undefined;undefined;1440 x 900;1440 x 900
H018;53;Mannelijk;Rechts;5;9;right;yes;100;undefined;null;true;focus;yes;947775;Chrome;112.0;macOS;10.15.7;undefined;undefined;1440 x 900;1440 x 900
H018;53;Mannelijk;Rechts;5;10;left;no;150;leftarrow;412;true;focus;yes;948967;Chrome;112.0;macOS;10.15.7;undefined;undefined;1440 x 900;1440 x 900
H018;53;Mannelijk;Rechts;5;11;left;no;150;leftarrow;504;true;focus;yes;950239;Chrome;112.0;macOS;10.15.7;undefined;undefined;1440 x 900;1440 x 900
H018;53;Mannelijk;Rechts;5;12;right;no;150;rightarrow;560;true;focus;yes;951563;Chrome;112.0;macOS;10.15.7;undefined;undefined;1440 x 900;1440 x 900
H018;53;Mannelijk;Rechts;5;13;left;yes;150;undefined;null;true;focus;yes;953584;Chrome;112.0;macOS;10.15.7;undefined;undefined;1440 x 900;1440 x 900
H018;53;Mannelijk;Rechts;5;14;right;no;200;rightarrow;433;true;focus;yes;954784;Chrome;112.0;macOS;10.15.7;undefined;undefined;1440 x 900;1440 x 900
H018;53;Mannelijk;Rechts;5;15;right;no;200;rightarrow;641;true;focus;yes;956189;Chrome;112.0;macOS;10.15.7;undefined;undefined;1440 x 900;1440 x 900
H018;53;Mannelijk;Rechts;5;16;left;no;200;leftarrow;465;true;focus;yes;957427;Chrome;112.0;macOS;10.15.7;undefined;undefined;1440 x 900;1440 x 900
H018;53;Mannelijk;Rechts;5;17;left;yes;200;undefined;null;true;focus;yes;959461;Chrome;112.0;macOS;10.15.7;undefined;undefined;1440 x 900;1440 x 900
H018;53;Mannelijk;Rechts;5;18;left;no;250;leftarrow;491;true;focus;yes;960727;Chrome;112.0;macOS;10.15.7;undefined;undefined;1440 x 900;1440 x 900
H018;53;Mannelijk;Rechts;5;19;left;no;250;leftarrow;497;true;focus;yes;961989;Chrome;112.0;macOS;10.15.7;undefined;undefined;1440 x 900;1440 x 900
H018;53;Mannelijk;Rechts;5;20;right;no;250;rightarrow;591;true;focus;yes;963353;Chrome;112.0;macOS;10.15.7;undefined;undefined;1440 x 900;1440 x 900
H018;53;Mannelijk;Rechts;5;21;right;no;250;rightarrow;444;true;focus;yes;964565;Chrome;112.0;macOS;10.15.7;undefined;undefined;1440 x 900;1440 x 900
H018;53;Mannelijk;Rechts;5;22;right;yes;250;rightarrow;422;false;focus;yes;965759;Chrome;112.0;macOS;10.15.7;undefined;undefined;1440 x 900;1440 x 900
H018;53;Mannelijk;Rechts;5;23;left;no;200;leftarrow;427;true;focus;yes;966955;Chrome;112.0;macOS;10.15.7;undefined;undefined;1440 x 900;1440 x 900
H018;53;Mannelijk;Rechts;5;24;right;no;200;rightarrow;563;true;focus;yes;968293;Chrome;112.0;macOS;10.15.7;undefined;undefined;1440 x 900;1440 x 900
H018;53;Mannelijk;Rechts;5;25;left;yes;200;undefined;null;true;focus;yes;970327;Chrome;112.0;macOS;10.15.7;undefined;undefined;1440 x 900;1440 x 900
H018;53;Mannelijk;Rechts;5;26;left;no;250;leftarrow;434;true;focus;yes;971532;Chrome;112.0;macOS;10.15.7;undefined;undefined;1440 x 900;1440 x 900
H018;53;Mannelijk;Rechts;5;27;right;no;250;rightarrow;419;true;focus;yes;972715;Chrome;112.0;macOS;10.15.7;undefined;undefined;1440 x 900;1440 x 900
H018;53;Mannelijk;Rechts;5;28;left;no;250;leftarrow;442;true;focus;yes;973918;Chrome;112.0;macOS;10.15.7;undefined;undefined;1440 x 900;1440 x 900
H018;53;Mannelijk;Rechts;5;29;right;no;250;rightarrow;454;true;focus;yes;975149;Chrome;112.0;macOS;10.15.7;undefined;undefined;1440 x 900;1440 x 900
H018;53;Mannelijk;Rechts;5;30;right;yes;250;rightarrow;421;false;focus;yes;976352;Chrome;112.0;macOS;10.15.7;undefined;undefined;1440 x 900;1440 x 900
H018;53;Mannelijk;Rechts;5;31;right;no;200;rightarrow;426;true;focus;yes;977542;Chrome;112.0;macOS;10.15.7;undefined;undefined;1440 x 900;1440 x 900
H018;53;Mannelijk;Rechts;5;32;left;no;200;leftarrow;600;true;focus;yes;978925;Chrome;112.0;macOS;10.15.7;undefined;undefined;1440 x 900;1440 x 900
H018;53;Mannelijk;Rechts;5;33;right;yes;200;rightarrow;478;false;focus;yes;980177;Chrome;112.0;macOS;10.15.7;undefined;undefined;1440 x 900;1440 x 900
H018;53;Mannelijk;Rechts;5;34;left;no;150;leftarrow;639;true;focus;yes;981593;Chrome;112.0;macOS;10.15.7;undefined;undefined;1440 x 900;1440 x 900
H018;53;Mannelijk;Rechts;5;35;left;yes;150;leftarrow;361;false;focus;yes;982729;Chrome;112.0;macOS;10.15.7;undefined;undefined;1440 x 900;1440 x 900
H018;53;Mannelijk;Rechts;5;36;right;no;100;rightarrow;403;true;focus;yes;983909;Chrome;112.0;macOS;10.15.7;undefined;undefined;1440 x 900;1440 x 900
H018;53;Mannelijk;Rechts;5;37;left;no;100;leftarrow;441;true;focus;yes;985114;Chrome;112.0;macOS;10.15.7;undefined;undefined;1440 x 900;1440 x 900
H018;53;Mannelijk;Rechts;5;38;right;no;100;rightarrow;528;true;focus;yes;986406;Chrome;112.0;macOS;10.15.7;undefined;undefined;1440 x 900;1440 x 900
H018;53;Mannelijk;Rechts;5;39;left;no;100;leftarrow;559;true;focus;yes;987746;Chrome;112.0;macOS;10.15.7;undefined;undefined;1440 x 900;1440 x 900
H018;53;Mannelijk;Rechts;5;40;right;no;100;rightarrow;472;true;focus;yes;988985;Chrome;112.0;macOS;10.15.7;undefined;undefined;1440 x 900;1440 x 900
H018;53;Mannelijk;Rechts;5;41;left;yes;100;undefined;null;true;focus;yes;991001;Chrome;112.0;macOS;10.15.7;undefined;undefined;1440 x 900;1440 x 900
H018;53;Mannelijk;Rechts;5;42;right;yes;150;rightarrow;403;false;focus;yes;992176;Chrome;112.0;macOS;10.15.7;undefined;undefined;1440 x 900;1440 x 900
H018;53;Mannelijk;Rechts;5;43;left;no;100;leftarrow;619;true;focus;yes;993559;Chrome;112.0;macOS;10.15.7;undefined;undefined;1440 x 900;1440 x 900
H018;53;Mannelijk;Rechts;5;44;right;no;100;rightarrow;452;true;focus;yes;994792;Chrome;112.0;macOS;10.15.7;undefined;undefined;1440 x 900;1440 x 900
H018;53;Mannelijk;Rechts;5;45;right;no;100;rightarrow;467;true;focus;yes;996029;Chrome;112.0;macOS;10.15.7;undefined;undefined;1440 x 900;1440 x 900
H018;53;Mannelijk;Rechts;5;46;left;no;100;leftarrow;443;true;focus;yes;997245;Chrome;112.0;macOS;10.15.7;undefined;undefined;1440 x 900;1440 x 900
H018;53;Mannelijk;Rechts;5;47;right;no;100;rightarrow;453;true;focus;yes;998463;Chrome;112.0;macOS;10.15.7;undefined;undefined;1440 x 900;1440 x 900
H018;53;Mannelijk;Rechts;5;48;left;no;100;leftarrow;446;true;focus;yes;999687;Chrome;112.0;macOS;10.15.7;undefined;undefined;1440 x 900;1440 x 900
H018;53;Mannelijk;Rechts;5;49;right;yes;100;undefined;null;true;focus;yes;1001725;Chrome;112.0;macOS;10.15.7;undefined;undefined;1440 x 900;1440 x 900
H018;53;Mannelijk;Rechts;5;50;right;no;150;rightarrow;448;true;focus;yes;1002938;Chrome;112.0;macOS;10.15.7;undefined;undefined;1440 x 900;1440 x 900
H018;53;Mannelijk;Rechts;5;51;left;no;150;leftarrow;540;true;focus;yes;1004256;Chrome;112.0;macOS;10.15.7;undefined;undefined;1440 x 900;1440 x 900
H018;53;Mannelijk;Rechts;5;52;right;no;150;rightarrow;609;true;focus;yes;1005635;Chrome;112.0;macOS;10.15.7;undefined;undefined;1440 x 900;1440 x 900
H018;53;Mannelijk;Rechts;5;53;left;yes;150;undefined;null;true;focus;yes;1007673;Chrome;112.0;macOS;10.15.7;undefined;undefined;1440 x 900;1440 x 900
H018;53;Mannelijk;Rechts;5;54;right;no;200;rightarrow;415;true;focus;yes;1008861;Chrome;112.0;macOS;10.15.7;undefined;undefined;1440 x 900;1440 x 900
H018;53;Mannelijk;Rechts;5;55;left;no;200;leftarrow;457;true;focus;yes;1010083;Chrome;112.0;macOS;10.15.7;undefined;undefined;1440 x 900;1440 x 900
H018;53;Mannelijk;Rechts;5;56;left;no;200;leftarrow;465;true;focus;yes;1011314;Chrome;112.0;macOS;10.15.7;undefined;undefined;1440 x 900;1440 x 900
H018;53;Mannelijk;Rechts;5;57;right;no;200;rightarrow;539;true;focus;yes;1012620;Chrome;112.0;macOS;10.15.7;undefined;undefined;1440 x 900;1440 x 900
H018;53;Mannelijk;Rechts;5;58;left;yes;200;undefined;null;true;focus;yes;1014641;Chrome;112.0;macOS;10.15.7;undefined;undefined;1440 x 900;1440 x 900
H018;53;Mannelijk;Rechts;5;59;left;no;250;leftarrow;436;true;focus;yes;1015857;Chrome;112.0;macOS;10.15.7;undefined;undefined;1440 x 900;1440 x 900
H018;53;Mannelijk;Rechts;5;60;left;no;250;leftarrow;558;true;focus;yes;1017184;Chrome;112.0;macOS;10.15.7;undefined;undefined;1440 x 900;1440 x 900
H018;53;Mannelijk;Rechts;5;61;right;yes;250;undefined;null;true;focus;yes;1019225;Chrome;112.0;macOS;10.15.7;undefined;undefined;1440 x 900;1440 x 900
H018;53;Mannelijk;Rechts;5;62;right;no;300;rightarrow;475;true;focus;yes;1020472;Chrome;112.0;macOS;10.15.7;undefined;undefined;1440 x 900;1440 x 900
H018;53;Mannelijk;Rechts;5;63;left;no;300;leftarrow;459;true;focus;yes;1021704;Chrome;112.0;macOS;10.15.7;undefined;undefined;1440 x 900;1440 x 900
H018;53;Mannelijk;Rechts;5;64;right;no;300;rightarrow;569;true;focus;yes;1023044;Chrome;112.0;macOS;10.15.7;undefined;undefined;1440 x 900;1440 x 900
H018;53;Mannelijk;Rechts;5;65;left;no;300;leftarrow;401;true;focus;yes;1024211;Chrome;112.0;macOS;10.15.7;undefined;undefined;1440 x 900;1440 x 900
H018;53;Mannelijk;Rechts;5;66;right;yes;300;undefined;null;true;focus;yes;1026250;Chrome;112.0;macOS;10.15.7;undefined;undefined;1440 x 900;1440 x 900
H018;53;Mannelijk;Rechts;5;67;left;no;350;leftarrow;435;true;focus;yes;1027461;Chrome;112.0;macOS;10.15.7;undefined;undefined;1440 x 900;1440 x 900
H018;53;Mannelijk;Rechts;5;68;right;no;350;rightarrow;572;true;focus;yes;1028799;Chrome;112.0;macOS;10.15.7;undefined;undefined;1440 x 900;1440 x 900
H018;53;Mannelijk;Rechts;5;69;left;yes;350;leftarrow;574;false;focus;yes;1030153;Chrome;112.0;macOS;10.15.7;undefined;undefined;1440 x 900;1440 x 900
H018;53;Mannelijk;Rechts;5;70;right;no;300;rightarrow;460;true;focus;yes;1031389;Chrome;112.0;macOS;10.15.7;undefined;undefined;1440 x 900;1440 x 900
H018;53;Mannelijk;Rechts;5;71;left;no;300;leftarrow;609;true;focus;yes;1032774;Chrome;112.0;macOS;10.15.7;undefined;undefined;1440 x 900;1440 x 900
H018;53;Mannelijk;Rechts;5;72;right;no;300;rightarrow;460;true;focus;yes;1033998;Chrome;112.0;macOS;10.15.7;undefined;undefined;1440 x 900;1440 x 900
H018;53;Mannelijk;Rechts;5;73;right;no;300;rightarrow;605;true;focus;yes;1035367;Chrome;112.0;macOS;10.15.7;undefined;undefined;1440 x 900;1440 x 900
H018;53;Mannelijk;Rechts;5;74;left;no;300;leftarrow;515;true;focus;yes;1036645;Chrome;112.0;macOS;10.15.7;undefined;undefined;1440 x 900;1440 x 900
H018;53;Mannelijk;Rechts;5;75;right;no;300;rightarrow;528;true;focus;yes;1037940;Chrome;112.0;macOS;10.15.7;undefined;undefined;1440 x 900;1440 x 900
H018;53;Mannelijk;Rechts;5;76;left;yes;300;leftarrow;394;false;focus;yes;1039102;Chrome;112.0;macOS;10.15.7;undefined;undefined;1440 x 900;1440 x 900
H018;53;Mannelijk;Rechts;5;77;right;yes;250;rightarrow;431;false;focus;yes;1040306;Chrome;112.0;macOS;10.15.7;undefined;undefined;1440 x 900;1440 x 900
H018;53;Mannelijk;Rechts;5;78;left;no;200;leftarrow;359;true;focus;yes;1041435;Chrome;112.0;macOS;10.15.7;undefined;undefined;1440 x 900;1440 x 900
H018;53;Mannelijk;Rechts;5;79;left;no;200;leftarrow;569;true;focus;yes;1042783;Chrome;112.0;macOS;10.15.7;undefined;undefined;1440 x 900;1440 x 900
H018;53;Mannelijk;Rechts;5;80;right;no;200;rightarrow;586;true;focus;yes;1044144;Chrome;112.0;macOS;10.15.7;undefined;undefined;1440 x 900;1440 x 900
H018;53;Mannelijk;Rechts;5;81;left;no;200;leftarrow;393;true;focus;yes;1045302;Chrome;112.0;macOS;10.15.7;undefined;undefined;1440 x 900;1440 x 900
H018;53;Mannelijk;Rechts;5;82;left;no;200;leftarrow;439;true;focus;yes;1046518;Chrome;112.0;macOS;10.15.7;undefined;undefined;1440 x 900;1440 x 900
H018;53;Mannelijk;Rechts;5;83;right;no;200;rightarrow;478;true;focus;yes;1047773;Chrome;112.0;macOS;10.15.7;undefined;undefined;1440 x 900;1440 x 900
H018;53;Mannelijk;Rechts;5;84;left;no;200;leftarrow;406;true;focus;yes;1048955;Chrome;112.0;macOS;10.15.7;undefined;undefined;1440 x 900;1440 x 900
H018;53;Mannelijk;Rechts;5;85;right;yes;200;undefined;null;true;focus;yes;1050989;Chrome;112.0;macOS;10.15.7;undefined;undefined;1440 x 900;1440 x 900
H018;53;Mannelijk;Rechts;5;86;right;no;250;rightarrow;445;true;focus;yes;1052206;Chrome;112.0;macOS;10.15.7;undefined;undefined;1440 x 900;1440 x 900
H018;53;Mannelijk;Rechts;5;87;right;no;250;rightarrow;483;true;focus;yes;1053456;Chrome;112.0;macOS;10.15.7;undefined;undefined;1440 x 900;1440 x 900
H018;53;Mannelijk;Rechts;5;88;left;yes;250;undefined;null;true;focus;yes;1055477;Chrome;112.0;macOS;10.15.7;undefined;undefined;1440 x 900;1440 x 900
H018;53;Mannelijk;Rechts;5;89;right;no;300;rightarrow;427;true;focus;yes;1056675;Chrome;112.0;macOS;10.15.7;undefined;undefined;1440 x 900;1440 x 900
H018;53;Mannelijk;Rechts;5;90;left;no;300;leftarrow;445;true;focus;yes;1057890;Chrome;112.0;macOS;10.15.7;undefined;undefined;1440 x 900;1440 x 900
H018;53;Mannelijk;Rechts;5;91;left;yes;300;undefined;null;true;focus;yes;1059907;Chrome;112.0;macOS;10.15.7;undefined;undefined;1440 x 900;1440 x 900
H018;53;Mannelijk;Rechts;5;92;right;no;350;rightarrow;451;true;focus;yes;1061142;Chrome;112.0;macOS;10.15.7;undefined;undefined;1440 x 900;1440 x 900
H018;53;Mannelijk;Rechts;5;93;left;no;350;leftarrow;474;true;focus;yes;1062392;Chrome;112.0;macOS;10.15.7;undefined;undefined;1440 x 900;1440 x 900
H018;53;Mannelijk;Rechts;5;94;right;no;350;rightarrow;474;true;focus;yes;1063632;Chrome;112.0;macOS;10.15.7;undefined;undefined;1440 x 900;1440 x 900
H018;53;Mannelijk;Rechts;5;95;left;no;350;leftarrow;415;true;focus;yes;1064813;Chrome;112.0;macOS;10.15.7;undefined;undefined;1440 x 900;1440 x 900
H018;53;Mannelijk;Rechts;5;96;right;yes;350;rightarrow;539;false;focus;yes;1066131;Chrome;112.0;macOS;10.15.7;undefined;undefined;1440 x 900;1440 x 900
H018;53;Mannelijk;Rechts;5;97;left;yes;300;leftarrow;387;false;focus;yes;1067298;Chrome;112.0;macOS;10.15.7;undefined;undefined;1440 x 900;1440 x 900
H018;53;Mannelijk;Rechts;5;98;left;no;250;leftarrow;482;true;focus;yes;1068543;Chrome;112.0;macOS;10.15.7;undefined;undefined;1440 x 900;1440 x 900
H018;53;Mannelijk;Rechts;5;99;right;yes;250;rightarrow;403;false;focus;yes;1069723;Chrome;112.0;macOS;10.15.7;undefined;undefined;1440 x 900;1440 x 900
H018;53;Mannelijk;Rechts;5;100;left;no;200;leftarrow;518;true;focus;yes;1071006;Chrome;112.0;macOS;10.15.7;undefined;undefined;1440 x 900;1440 x 900
H018;53;Mannelijk;Rechts;5;101;left;no;200;leftarrow;371;true;focus;yes;1072146;Chrome;112.0;macOS;10.15.7;undefined;undefined;1440 x 900;1440 x 900
H018;53;Mannelijk;Rechts;5;102;right;no;200;rightarrow;435;true;focus;yes;1073347;Chrome;112.0;macOS;10.15.7;undefined;undefined;1440 x 900;1440 x 900
H018;53;Mannelijk;Rechts;5;103;right;no;200;rightarrow;423;true;focus;yes;1074533;Chrome;112.0;macOS;10.15.7;undefined;undefined;1440 x 900;1440 x 900
H018;53;Mannelijk;Rechts;5;104;right;no;200;rightarrow;423;true;focus;yes;1075736;Chrome;112.0;macOS;10.15.7;undefined;undefined;1440 x 900;1440 x 900
H018;53;Mannelijk;Rechts;5;105;left;no;200;leftarrow;427;true;focus;yes;1076930;Chrome;112.0;macOS;10.15.7;undefined;undefined;1440 x 900;1440 x 900
H018;53;Mannelijk;Rechts;5;106;left;no;200;leftarrow;528;true;focus;yes;1078223;Chrome;112.0;macOS;10.15.7;undefined;undefined;1440 x 900;1440 x 900
H018;53;Mannelijk;Rechts;5;107;right;no;200;rightarrow;462;true;focus;yes;1079453;Chrome;112.0;macOS;10.15.7;undefined;undefined;1440 x 900;1440 x 900
H018;53;Mannelijk;Rechts;5;108;left;yes;200;leftarrow;404;false;focus;yes;1080636;Chrome;112.0;macOS;10.15.7;undefined;undefined;1440 x 900;1440 x 900
H018;53;Mannelijk;Rechts;5;109;right;no;150;rightarrow;714;true;focus;yes;1082133;Chrome;112.0;macOS;10.15.7;undefined;undefined;1440 x 900;1440 x 900
H018;53;Mannelijk;Rechts;5;110;left;no;150;leftarrow;404;true;focus;yes;1083309;Chrome;112.0;macOS;10.15.7;undefined;undefined;1440 x 900;1440 x 900
H018;53;Mannelijk;Rechts;5;111;right;yes;150;leftarrow;468;false;focus;yes;1084550;Chrome;112.0;macOS;10.15.7;undefined;undefined;1440 x 900;1440 x 900
H018;53;Mannelijk;Rechts;5;112;right;no;100;rightarrow;584;true;focus;yes;1085903;Chrome;112.0;macOS;10.15.7;undefined;undefined;1440 x 900;1440 x 900
H018;53;Mannelijk;Rechts;5;113;left;no;100;leftarrow;366;true;focus;yes;1087037;Chrome;112.0;macOS;10.15.7;undefined;undefined;1440 x 900;1440 x 900
H018;53;Mannelijk;Rechts;5;114;left;yes;100;undefined;null;true;focus;yes;1089071;Chrome;112.0;macOS;10.15.7;undefined;undefined;1440 x 900;1440 x 900
H018;53;Mannelijk;Rechts;5;115;right;no;150;rightarrow;413;true;focus;yes;1090257;Chrome;112.0;macOS;10.15.7;undefined;undefined;1440 x 900;1440 x 900
H018;53;Mannelijk;Rechts;5;116;right;no;150;rightarrow;484;true;focus;yes;1091518;Chrome;112.0;macOS;10.15.7;undefined;undefined;1440 x 900;1440 x 900
H018;53;Mannelijk;Rechts;5;117;left;no;150;leftarrow;570;true;focus;yes;1092858;Chrome;112.0;macOS;10.15.7;undefined;undefined;1440 x 900;1440 x 900
H018;53;Mannelijk;Rechts;5;118;right;no;150;rightarrow;617;true;focus;yes;1094237;Chrome;112.0;macOS;10.15.7;undefined;undefined;1440 x 900;1440 x 900
H018;53;Mannelijk;Rechts;5;119;left;no;150;leftarrow;462;true;focus;yes;1095481;Chrome;112.0;macOS;10.15.7;undefined;undefined;1440 x 900;1440 x 900
H018;53;Mannelijk;Rechts;5;120;right;yes;150;rightarrow;458;false;focus;yes;1096717;Chrome;112.0;macOS;10.15.7;undefined;undefined;1440 x 900;1440 x 900
H018;53;Mannelijk;Rechts;5;121;left;no;100;leftarrow;591;true;focus;yes;1098091;Chrome;112.0;macOS;10.15.7;undefined;undefined;1440 x 900;1440 x 900
H018;53;Mannelijk;Rechts;5;122;left;no;100;leftarrow;524;true;focus;yes;1099381;Chrome;112.0;macOS;10.15.7;undefined;undefined;1440 x 900;1440 x 900
H018;53;Mannelijk;Rechts;5;123;left;no;100;leftarrow;608;true;focus;yes;1100772;Chrome;112.0;macOS;10.15.7;undefined;undefined;1440 x 900;1440 x 900
H018;53;Mannelijk;Rechts;5;124;right;no;100;rightarrow;573;true;focus;yes;1102119;Chrome;112.0;macOS;10.15.7;undefined;undefined;1440 x 900;1440 x 900
H018;53;Mannelijk;Rechts;5;125;right;no;100;rightarrow;541;true;focus;yes;1103429;Chrome;112.0;macOS;10.15.7;undefined;undefined;1440 x 900;1440 x 900
H018;53;Mannelijk;Rechts;5;126;left;yes;100;undefined;null;true;focus;yes;1105463;Chrome;112.0;macOS;10.15.7;undefined;undefined;1440 x 900;1440 x 900
H018;53;Mannelijk;Rechts;5;127;right;yes;150;rightarrow;510;false;focus;yes;1106746;Chrome;112.0;macOS;10.15.7;undefined;undefined;1440 x 900;1440 x 900
H018;53;Mannelijk;Rechts;5;128;right;no;100;rightarrow;662;true;focus;yes;1108174;Chrome;112.0;macOS;10.15.7;undefined;undefined;1440 x 900;1440 x 900
H018;53;Mannelijk;Rechts;6;1;left;no;100;leftarrow;500;true;focus;yes;1127312;Chrome;112.0;macOS;10.15.7;undefined;undefined;1440 x 900;1440 x 900
H018;53;Mannelijk;Rechts;6;2;right;no;100;rightarrow;511;true;focus;yes;1128592;Chrome;112.0;macOS;10.15.7;undefined;undefined;1440 x 900;1440 x 900
H018;53;Mannelijk;Rechts;6;3;left;yes;100;undefined;null;true;focus;yes;1130629;Chrome;112.0;macOS;10.15.7;undefined;undefined;1440 x 900;1440 x 900
H018;53;Mannelijk;Rechts;6;4;right;yes;150;rightarrow;406;false;focus;yes;1131799;Chrome;112.0;macOS;10.15.7;undefined;undefined;1440 x 900;1440 x 900
H018;53;Mannelijk;Rechts;6;5;right;no;100;rightarrow;472;true;focus;yes;1133043;Chrome;112.0;macOS;10.15.7;undefined;undefined;1440 x 900;1440 x 900
H018;53;Mannelijk;Rechts;6;6;right;no;100;rightarrow;455;true;focus;yes;1134264;Chrome;112.0;macOS;10.15.7;undefined;undefined;1440 x 900;1440 x 900
H018;53;Mannelijk;Rechts;6;7;left;no;100;leftarrow;521;true;focus;yes;1135551;Chrome;112.0;macOS;10.15.7;undefined;undefined;1440 x 900;1440 x 900
H018;53;Mannelijk;Rechts;6;8;left;no;100;leftarrow;535;true;focus;yes;1136849;Chrome;112.0;macOS;10.15.7;undefined;undefined;1440 x 900;1440 x 900
H018;53;Mannelijk;Rechts;6;9;left;yes;100;undefined;null;true;focus;yes;1138861;Chrome;112.0;macOS;10.15.7;undefined;undefined;1440 x 900;1440 x 900
H018;53;Mannelijk;Rechts;6;10;right;yes;150;rightarrow;487;false;focus;yes;1140119;Chrome;112.0;macOS;10.15.7;undefined;undefined;1440 x 900;1440 x 900
H018;53;Mannelijk;Rechts;6;11;right;no;100;rightarrow;543;true;focus;yes;1141434;Chrome;112.0;macOS;10.15.7;undefined;undefined;1440 x 900;1440 x 900
H018;53;Mannelijk;Rechts;6;12;left;no;100;leftarrow;591;true;focus;yes;1142785;Chrome;112.0;macOS;10.15.7;undefined;undefined;1440 x 900;1440 x 900
H018;53;Mannelijk;Rechts;6;13;left;no;100;leftarrow;582;true;focus;yes;1144146;Chrome;112.0;macOS;10.15.7;undefined;undefined;1440 x 900;1440 x 900
H018;53;Mannelijk;Rechts;6;14;right;no;100;rightarrow;512;true;focus;yes;1145433;Chrome;112.0;macOS;10.15.7;undefined;undefined;1440 x 900;1440 x 900
H018;53;Mannelijk;Rechts;6;15;right;no;100;rightarrow;461;true;focus;yes;1146672;Chrome;112.0;macOS;10.15.7;undefined;undefined;1440 x 900;1440 x 900
H018;53;Mannelijk;Rechts;6;16;left;no;100;leftarrow;462;true;focus;yes;1147903;Chrome;112.0;macOS;10.15.7;undefined;undefined;1440 x 900;1440 x 900
H018;53;Mannelijk;Rechts;6;17;left;no;100;leftarrow;525;true;focus;yes;1149211;Chrome;112.0;macOS;10.15.7;undefined;undefined;1440 x 900;1440 x 900
H018;53;Mannelijk;Rechts;6;18;right;no;100;rightarrow;453;true;focus;yes;1150431;Chrome;112.0;macOS;10.15.7;undefined;undefined;1440 x 900;1440 x 900
