participantID;age;gender;handedness;block_i;trial_i;stim;signal;SSD;response;rt;correct;focus;Fullscreen;time_elapsed;browser_name;browser_version;os_name;os_version;tablet;mobile;screen_resolution;window_resolution
H010;21;Vrouwelijk;Rechts;0;1;right;no;200;rightarrow;748;true;focus;yes;108079;Chrome;112.0;Windows;10;undefined;undefined;1280 x 720;1600 x 900
H010;21;Vrouwelijk;Rechts;0;2;right;yes;200;undefined;null;true;focus;yes;110871;Chrome;112.0;Windows;10;undefined;undefined;1280 x 720;1600 x 900
H010;21;Vrouwelijk;Rechts;0;3;right;no;250;rightarrow;437;true;focus;yes;112850;Chrome;112.0;Windows;10;undefined;undefined;1280 x 720;1600 x 900
H010;21;Vrouwelijk;Rechts;0;4;right;no;250;rightarrow;352;true;focus;yes;114730;Chrome;112.0;Windows;10;undefined;undefined;1280 x 720;1600 x 900
H010;21;Vrouwelijk;Rechts;0;5;left;no;250;leftarrow;388;true;focus;yes;116665;Chrome;112.0;Windows;10;undefined;undefined;1280 x 720;1600 x 900
H010;21;Vrouwelijk;Rechts;0;6;left;no;250;leftarrow;381;true;focus;yes;118573;Chrome;112.0;Windows;10;undefined;undefined;1280 x 720;1600 x 900
H010;21;Vrouwelijk;Rechts;0;7;left;no;250;leftarrow;369;true;focus;yes;120468;Chrome;112.0;Windows;10;undefined;undefined;1280 x 720;1600 x 900
H010;21;Vrouwelijk;Rechts;0;8;left;yes;250;leftarrow;418;false;focus;yes;122415;Chrome;112.0;Windows;10;undefined;undefined;1280 x 720;1600 x 900
H010;21;Vrouwelijk;Rechts;1;1;left;yes;200;leftarrow;422;false;focus;yes;142743;Chrome;112.0;Windows;10;undefined;undefined;1280 x 720;1600 x 900
H010;21;Vrouwelijk;Rechts;1;2;right;no;150;rightarrow;328;true;focus;yes;143839;Chrome;112.0;Windows;10;undefined;undefined;1280 x 720;1600 x 900
H010;21;Vrouwelijk;Rechts;1;3;right;no;150;rightarrow;601;true;focus;yes;145214;Chrome;112.0;Windows;10;undefined;undefined;1280 x 720;1600 x 900
H010;21;Vrouwelijk;Rechts;1;4;right;yes;150;undefined;null;true;focus;yes;147251;Chrome;112.0;Windows;10;undefined;undefined;1280 x 720;1600 x 900
H010;21;Vrouwelijk;Rechts;1;5;right;no;200;leftarrow;268;false;focus;yes;148278;Chrome;112.0;Windows;10;undefined;undefined;1280 x 720;1600 x 900
H010;21;Vrouwelijk;Rechts;1;6;left;no;200;leftarrow;372;true;focus;yes;149425;Chrome;112.0;Windows;10;undefined;undefined;1280 x 720;1600 x 900
H010;21;Vrouwelijk;Rechts;1;7;left;no;200;leftarrow;436;true;focus;yes;150639;Chrome;112.0;Windows;10;undefined;undefined;1280 x 720;1600 x 900
H010;21;Vrouwelijk;Rechts;1;8;left;no;200;leftarrow;370;true;focus;yes;151783;Chrome;112.0;Windows;10;undefined;undefined;1280 x 720;1600 x 900
H010;21;Vrouwelijk;Rechts;1;9;right;no;200;rightarrow;380;true;focus;yes;152931;Chrome;112.0;Windows;10;undefined;undefined;1280 x 720;1600 x 900
H010;21;Vrouwelijk;Rechts;1;10;right;no;200;rightarrow;340;true;focus;yes;154042;Chrome;112.0;Windows;10;undefined;undefined;1280 x 720;1600 x 900
H010;21;Vrouwelijk;Rechts;1;11;left;yes;200;leftarrow;391;false;focus;yes;155218;Chrome;112.0;Windows;10;undefined;undefined;1280 x 720;1600 x 900
H010;21;Vrouwelijk;Rechts;1;12;left;no;150;leftarrow;385;true;focus;yes;156378;Chrome;112.0;Windows;10;undefined;undefined;1280 x 720;1600 x 900
H010;21;Vrouwelijk;Rechts;1;13;left;no;150;leftarrow;404;true;focus;yes;157562;Chrome;112.0;Windows;10;undefined;undefined;1280 x 720;1600 x 900
H010;21;Vrouwelijk;Rechts;1;14;left;no;150;leftarrow;301;true;focus;yes;158643;Chrome;112.0;Windows;10;undefined;undefined;1280 x 720;1600 x 900
H010;21;Vrouwelijk;Rechts;1;15;right;yes;150;rightarrow;303;false;focus;yes;159726;Chrome;112.0;Windows;10;undefined;undefined;1280 x 720;1600 x 900
H010;21;Vrouwelijk;Rechts;1;16;right;no;100;rightarrow;456;true;focus;yes;160949;Chrome;112.0;Windows;10;undefined;undefined;1280 x 720;1600 x 900
H010;21;Vrouwelijk;Rechts;1;17;left;no;100;leftarrow;404;true;focus;yes;162129;Chrome;112.0;Windows;10;undefined;undefined;1280 x 720;1600 x 900
H010;21;Vrouwelijk;Rechts;1;18;left;no;100;leftarrow;328;true;focus;yes;163220;Chrome;112.0;Windows;10;undefined;undefined;1280 x 720;1600 x 900
H010;21;Vrouwelijk;Rechts;1;19;right;yes;100;undefined;null;true;focus;yes;165236;Chrome;112.0;Windows;10;undefined;undefined;1280 x 720;1600 x 900
H010;21;Vrouwelijk;Rechts;1;20;right;no;150;rightarrow;424;true;focus;yes;166425;Chrome;112.0;Windows;10;undefined;undefined;1280 x 720;1600 x 900
H010;21;Vrouwelijk;Rechts;1;21;right;no;150;rightarrow;386;true;focus;yes;167578;Chrome;112.0;Windows;10;undefined;undefined;1280 x 720;1600 x 900
H010;21;Vrouwelijk;Rechts;1;22;right;no;150;rightarrow;381;true;focus;yes;168722;Chrome;112.0;Windows;10;undefined;undefined;1280 x 720;1600 x 900
H010;21;Vrouwelijk;Rechts;1;23;left;yes;150;leftarrow;392;false;focus;yes;169890;Chrome;112.0;Windows;10;undefined;undefined;1280 x 720;1600 x 900
H010;21;Vrouwelijk;Rechts;1;24;left;no;100;leftarrow;365;true;focus;yes;171025;Chrome;112.0;Windows;10;undefined;undefined;1280 x 720;1600 x 900
H010;21;Vrouwelijk;Rechts;1;25;right;no;100;rightarrow;399;true;focus;yes;172199;Chrome;112.0;Windows;10;undefined;undefined;1280 x 720;1600 x 900
H010;21;Vrouwelijk;Rechts;1;26;left;yes;100;leftarrow;358;false;focus;yes;173330;Chrome;112.0;Windows;10;undefined;undefined;1280 x 720;1600 x 900
H010;21;Vrouwelijk;Rechts;1;27;right;no;50;rightarrow;308;true;focus;yes;174411;Chrome;112.0;Windows;10;undefined;undefined;1280 x 720;1600 x 900
H010;21;Vrouwelijk;Rechts;1;28;left;no;50;leftarrow;395;true;focus;yes;175584;Chrome;112.0;Windows;10;undefined;undefined;1280 x 720;1600 x 900
H010;21;Vrouwelijk;Rechts;1;29;left;no;50;leftarrow;357;true;focus;yes;176714;Chrome;112.0;Windows;10;undefined;undefined;1280 x 720;1600 x 900
H010;21;Vrouwelijk;Rechts;1;30;right;no;50;rightarrow;362;true;focus;yes;177852;Chrome;112.0;Windows;10;undefined;undefined;1280 x 720;1600 x 900
H010;21;Vrouwelijk;Rechts;1;31;right;yes;50;undefined;null;true;focus;yes;179867;Chrome;112.0;Windows;10;undefined;undefined;1280 x 720;1600 x 900
H010;21;Vrouwelijk;Rechts;1;32;left;no;100;leftarrow;280;true;focus;yes;180921;Chrome;112.0;Windows;10;undefined;undefined;1280 x 720;1600 x 900
H010;21;Vrouwelijk;Rechts;1;33;right;no;100;rightarrow;342;true;focus;yes;182039;Chrome;112.0;Windows;10;undefined;undefined;1280 x 720;1600 x 900
H010;21;Vrouwelijk;Rechts;1;34;right;yes;100;rightarrow;385;false;focus;yes;183194;Chrome;112.0;Windows;10;undefined;undefined;1280 x 720;1600 x 900
H010;21;Vrouwelijk;Rechts;1;35;left;no;50;leftarrow;372;true;focus;yes;184337;Chrome;112.0;Windows;10;undefined;undefined;1280 x 720;1600 x 900
H010;21;Vrouwelijk;Rechts;1;36;right;no;50;rightarrow;386;true;focus;yes;185493;Chrome;112.0;Windows;10;undefined;undefined;1280 x 720;1600 x 900
H010;21;Vrouwelijk;Rechts;1;37;right;no;50;rightarrow;381;true;focus;yes;186641;Chrome;112.0;Windows;10;undefined;undefined;1280 x 720;1600 x 900
H010;21;Vrouwelijk;Rechts;1;38;left;no;50;leftarrow;529;true;focus;yes;187943;Chrome;112.0;Windows;10;undefined;undefined;1280 x 720;1600 x 900
H010;21;Vrouwelijk;Rechts;1;39;left;no;50;leftarrow;588;true;focus;yes;189301;Chrome;112.0;Windows;10;undefined;undefined;1280 x 720;1600 x 900
H010;21;Vrouwelijk;Rechts;1;40;left;yes;50;leftarrow;348;false;focus;yes;190424;Chrome;112.0;Windows;10;undefined;undefined;1280 x 720;1600 x 900
H010;21;Vrouwelijk;Rechts;1;41;right;no;50;rightarrow;424;true;focus;yes;191614;Chrome;112.0;Windows;10;undefined;undefined;1280 x 720;1600 x 900
H010;21;Vrouwelijk;Rechts;1;42;left;no;50;leftarrow;384;true;focus;yes;192773;Chrome;112.0;Windows;10;undefined;undefined;1280 x 720;1600 x 900
H010;21;Vrouwelijk;Rechts;1;43;right;yes;50;undefined;null;true;focus;yes;194803;Chrome;112.0;Windows;10;undefined;undefined;1280 x 720;1600 x 900
H010;21;Vrouwelijk;Rechts;1;44;right;no;100;rightarrow;346;true;focus;yes;195922;Chrome;112.0;Windows;10;undefined;undefined;1280 x 720;1600 x 900
H010;21;Vrouwelijk;Rechts;1;45;left;no;100;leftarrow;327;true;focus;yes;197017;Chrome;112.0;Windows;10;undefined;undefined;1280 x 720;1600 x 900
H010;21;Vrouwelijk;Rechts;1;46;right;no;100;rightarrow;371;true;focus;yes;198160;Chrome;112.0;Windows;10;undefined;undefined;1280 x 720;1600 x 900
H010;21;Vrouwelijk;Rechts;1;47;left;yes;100;leftarrow;385;false;focus;yes;199317;Chrome;112.0;Windows;10;undefined;undefined;1280 x 720;1600 x 900
H010;21;Vrouwelijk;Rechts;1;48;left;no;50;leftarrow;412;true;focus;yes;200494;Chrome;112.0;Windows;10;undefined;undefined;1280 x 720;1600 x 900
H010;21;Vrouwelijk;Rechts;1;49;right;no;50;rightarrow;308;true;focus;yes;201568;Chrome;112.0;Windows;10;undefined;undefined;1280 x 720;1600 x 900
H010;21;Vrouwelijk;Rechts;1;50;left;no;50;leftarrow;312;true;focus;yes;202639;Chrome;112.0;Windows;10;undefined;undefined;1280 x 720;1600 x 900
H010;21;Vrouwelijk;Rechts;1;51;right;yes;50;rightarrow;335;false;focus;yes;203748;Chrome;112.0;Windows;10;undefined;undefined;1280 x 720;1600 x 900
H010;21;Vrouwelijk;Rechts;1;52;right;no;50;rightarrow;393;true;focus;yes;204919;Chrome;112.0;Windows;10;undefined;undefined;1280 x 720;1600 x 900
H010;21;Vrouwelijk;Rechts;1;53;right;no;50;leftarrow;268;false;focus;yes;205964;Chrome;112.0;Windows;10;undefined;undefined;1280 x 720;1600 x 900
H010;21;Vrouwelijk;Rechts;1;54;left;no;50;leftarrow;358;true;focus;yes;207096;Chrome;112.0;Windows;10;undefined;undefined;1280 x 720;1600 x 900
H010;21;Vrouwelijk;Rechts;1;55;left;no;50;leftarrow;388;true;focus;yes;208262;Chrome;112.0;Windows;10;undefined;undefined;1280 x 720;1600 x 900
H010;21;Vrouwelijk;Rechts;1;56;left;yes;50;undefined;null;true;focus;yes;210282;Chrome;112.0;Windows;10;undefined;undefined;1280 x 720;1600 x 900
H010;21;Vrouwelijk;Rechts;1;57;right;yes;100;rightarrow;282;false;focus;yes;211336;Chrome;112.0;Windows;10;undefined;undefined;1280 x 720;1600 x 900
H010;21;Vrouwelijk;Rechts;1;58;left;no;50;leftarrow;339;true;focus;yes;212453;Chrome;112.0;Windows;10;undefined;undefined;1280 x 720;1600 x 900
H010;21;Vrouwelijk;Rechts;1;59;right;no;50;rightarrow;386;true;focus;yes;213608;Chrome;112.0;Windows;10;undefined;undefined;1280 x 720;1600 x 900
H010;21;Vrouwelijk;Rechts;1;60;right;no;50;rightarrow;381;true;focus;yes;214756;Chrome;112.0;Windows;10;undefined;undefined;1280 x 720;1600 x 900
H010;21;Vrouwelijk;Rechts;1;61;right;no;50;rightarrow;366;true;focus;yes;215894;Chrome;112.0;Windows;10;undefined;undefined;1280 x 720;1600 x 900
H010;21;Vrouwelijk;Rechts;1;62;left;no;50;leftarrow;319;true;focus;yes;216988;Chrome;112.0;Windows;10;undefined;undefined;1280 x 720;1600 x 900
H010;21;Vrouwelijk;Rechts;1;63;left;no;50;leftarrow;349;true;focus;yes;218104;Chrome;112.0;Windows;10;undefined;undefined;1280 x 720;1600 x 900
H010;21;Vrouwelijk;Rechts;1;64;left;yes;50;undefined;null;true;focus;yes;220137;Chrome;112.0;Windows;10;undefined;undefined;1280 x 720;1600 x 900
H010;21;Vrouwelijk;Rechts;1;65;right;no;100;rightarrow;338;true;focus;yes;221248;Chrome;112.0;Windows;10;undefined;undefined;1280 x 720;1600 x 900
H010;21;Vrouwelijk;Rechts;1;66;left;no;100;leftarrow;486;true;focus;yes;222497;Chrome;112.0;Windows;10;undefined;undefined;1280 x 720;1600 x 900
H010;21;Vrouwelijk;Rechts;1;67;left;no;100;leftarrow;628;true;focus;yes;223888;Chrome;112.0;Windows;10;undefined;undefined;1280 x 720;1600 x 900
H010;21;Vrouwelijk;Rechts;1;68;right;no;100;rightarrow;320;true;focus;yes;224979;Chrome;112.0;Windows;10;undefined;undefined;1280 x 720;1600 x 900
H010;21;Vrouwelijk;Rechts;1;69;left;yes;100;undefined;null;true;focus;yes;227023;Chrome;112.0;Windows;10;undefined;undefined;1280 x 720;1600 x 900
H010;21;Vrouwelijk;Rechts;1;70;left;no;150;leftarrow;392;true;focus;yes;228186;Chrome;112.0;Windows;10;undefined;undefined;1280 x 720;1600 x 900
H010;21;Vrouwelijk;Rechts;1;71;right;no;150;rightarrow;320;true;focus;yes;229278;Chrome;112.0;Windows;10;undefined;undefined;1280 x 720;1600 x 900
H010;21;Vrouwelijk;Rechts;1;72;right;yes;150;rightarrow;340;false;focus;yes;230400;Chrome;112.0;Windows;10;undefined;undefined;1280 x 720;1600 x 900
H010;21;Vrouwelijk;Rechts;1;73;right;no;100;rightarrow;497;true;focus;yes;231680;Chrome;112.0;Windows;10;undefined;undefined;1280 x 720;1600 x 900
H010;21;Vrouwelijk;Rechts;1;74;left;no;100;leftarrow;363;true;focus;yes;232822;Chrome;112.0;Windows;10;undefined;undefined;1280 x 720;1600 x 900
H010;21;Vrouwelijk;Rechts;1;75;left;no;100;leftarrow;436;true;focus;yes;234027;Chrome;112.0;Windows;10;undefined;undefined;1280 x 720;1600 x 900
H010;21;Vrouwelijk;Rechts;1;76;right;no;100;rightarrow;429;true;focus;yes;235218;Chrome;112.0;Windows;10;undefined;undefined;1280 x 720;1600 x 900
H010;21;Vrouwelijk;Rechts;1;77;right;no;100;rightarrow;323;true;focus;yes;236315;Chrome;112.0;Windows;10;undefined;undefined;1280 x 720;1600 x 900
H010;21;Vrouwelijk;Rechts;1;78;right;yes;100;undefined;null;true;focus;yes;238356;Chrome;112.0;Windows;10;undefined;undefined;1280 x 720;1600 x 900
H010;21;Vrouwelijk;Rechts;1;79;left;no;150;leftarrow;292;true;focus;yes;239414;Chrome;112.0;Windows;10;undefined;undefined;1280 x 720;1600 x 900
H010;21;Vrouwelijk;Rechts;1;80;left;yes;150;leftarrow;384;false;focus;yes;240566;Chrome;112.0;Windows;10;undefined;undefined;1280 x 720;1600 x 900
H010;21;Vrouwelijk;Rechts;1;81;right;no;100;rightarrow;342;true;focus;yes;241692;Chrome;112.0;Windows;10;undefined;undefined;1280 x 720;1600 x 900
H010;21;Vrouwelijk;Rechts;1;82;right;no;100;rightarrow;408;true;focus;yes;242865;Chrome;112.0;Windows;10;undefined;undefined;1280 x 720;1600 x 900
H010;21;Vrouwelijk;Rechts;1;83;left;no;100;leftarrow;429;true;focus;yes;244060;Chrome;112.0;Windows;10;undefined;undefined;1280 x 720;1600 x 900
H010;21;Vrouwelijk;Rechts;1;84;left;no;100;leftarrow;362;true;focus;yes;245194;Chrome;112.0;Windows;10;undefined;undefined;1280 x 720;1600 x 900
H010;21;Vrouwelijk;Rechts;1;85;right;no;100;rightarrow;553;true;focus;yes;246516;Chrome;112.0;Windows;10;undefined;undefined;1280 x 720;1600 x 900
H010;21;Vrouwelijk;Rechts;1;86;left;yes;100;undefined;null;true;focus;yes;248544;Chrome;112.0;Windows;10;undefined;undefined;1280 x 720;1600 x 900
H010;21;Vrouwelijk;Rechts;1;87;right;yes;150;rightarrow;368;false;focus;yes;249697;Chrome;112.0;Windows;10;undefined;undefined;1280 x 720;1600 x 900
H010;21;Vrouwelijk;Rechts;1;88;left;no;100;leftarrow;545;true;focus;yes;251024;Chrome;112.0;Windows;10;undefined;undefined;1280 x 720;1600 x 900
H010;21;Vrouwelijk;Rechts;1;89;right;no;100;rightarrow;557;true;focus;yes;252365;Chrome;112.0;Windows;10;undefined;undefined;1280 x 720;1600 x 900
H010;21;Vrouwelijk;Rechts;1;90;left;no;100;leftarrow;385;true;focus;yes;253517;Chrome;112.0;Windows;10;undefined;undefined;1280 x 720;1600 x 900
H010;21;Vrouwelijk;Rechts;1;91;right;no;100;rightarrow;658;true;focus;yes;254935;Chrome;112.0;Windows;10;undefined;undefined;1280 x 720;1600 x 900
H010;21;Vrouwelijk;Rechts;1;92;right;yes;100;undefined;null;true;focus;yes;256976;Chrome;112.0;Windows;10;undefined;undefined;1280 x 720;1600 x 900
H010;21;Vrouwelijk;Rechts;1;93;left;no;150;leftarrow;275;true;focus;yes;258034;Chrome;112.0;Windows;10;undefined;undefined;1280 x 720;1600 x 900
H010;21;Vrouwelijk;Rechts;1;94;right;no;150;rightarrow;330;true;focus;yes;259135;Chrome;112.0;Windows;10;undefined;undefined;1280 x 720;1600 x 900
H010;21;Vrouwelijk;Rechts;1;95;left;no;150;leftarrow;370;true;focus;yes;260282;Chrome;112.0;Windows;10;undefined;undefined;1280 x 720;1600 x 900
H010;21;Vrouwelijk;Rechts;1;96;left;yes;150;undefined;null;true;focus;yes;262327;Chrome;112.0;Windows;10;undefined;undefined;1280 x 720;1600 x 900
H010;21;Vrouwelijk;Rechts;1;97;left;no;200;leftarrow;359;true;focus;yes;263450;Chrome;112.0;Windows;10;undefined;undefined;1280 x 720;1600 x 900
H010;21;Vrouwelijk;Rechts;1;98;left;no;200;leftarrow;418;true;focus;yes;264645;Chrome;112.0;Windows;10;undefined;undefined;1280 x 720;1600 x 900
H010;21;Vrouwelijk;Rechts;1;99;right;no;200;rightarrow;403;true;focus;yes;265820;Chrome;112.0;Windows;10;undefined;undefined;1280 x 720;1600 x 900
H010;21;Vrouwelijk;Rechts;1;100;left;yes;200;leftarrow;399;false;focus;yes;266994;Chrome;112.0;Windows;10;undefined;undefined;1280 x 720;1600 x 900
H010;21;Vrouwelijk;Rechts;1;101;left;no;150;leftarrow;362;true;focus;yes;268125;Chrome;112.0;Windows;10;undefined;undefined;1280 x 720;1600 x 900
H010;21;Vrouwelijk;Rechts;1;102;right;yes;150;undefined;null;true;focus;yes;270149;Chrome;112.0;Windows;10;undefined;undefined;1280 x 720;1600 x 900
H010;21;Vrouwelijk;Rechts;1;103;right;no;200;rightarrow;402;true;focus;yes;271321;Chrome;112.0;Windows;10;undefined;undefined;1280 x 720;1600 x 900
H010;21;Vrouwelijk;Rechts;1;104;right;no;200;rightarrow;664;true;focus;yes;272752;Chrome;112.0;Windows;10;undefined;undefined;1280 x 720;1600 x 900
H010;21;Vrouwelijk;Rechts;1;105;right;no;200;rightarrow;547;true;focus;yes;274068;Chrome;112.0;Windows;10;undefined;undefined;1280 x 720;1600 x 900
H010;21;Vrouwelijk;Rechts;1;106;left;no;200;leftarrow;389;true;focus;yes;275232;Chrome;112.0;Windows;10;undefined;undefined;1280 x 720;1600 x 900
H010;21;Vrouwelijk;Rechts;1;107;left;yes;200;leftarrow;338;false;focus;yes;276341;Chrome;112.0;Windows;10;undefined;undefined;1280 x 720;1600 x 900
H010;21;Vrouwelijk;Rechts;1;108;left;no;150;leftarrow;396;true;focus;yes;277517;Chrome;112.0;Windows;10;undefined;undefined;1280 x 720;1600 x 900
H010;21;Vrouwelijk;Rechts;1;109;right;yes;150;rightarrow;453;false;focus;yes;278744;Chrome;112.0;Windows;10;undefined;undefined;1280 x 720;1600 x 900
H010;21;Vrouwelijk;Rechts;1;110;right;no;100;rightarrow;436;true;focus;yes;279954;Chrome;112.0;Windows;10;undefined;undefined;1280 x 720;1600 x 900
H010;21;Vrouwelijk;Rechts;1;111;left;no;100;leftarrow;423;true;focus;yes;281151;Chrome;112.0;Windows;10;undefined;undefined;1280 x 720;1600 x 900
H010;21;Vrouwelijk;Rechts;1;112;right;no;100;rightarrow;494;true;focus;yes;282419;Chrome;112.0;Windows;10;undefined;undefined;1280 x 720;1600 x 900
H010;21;Vrouwelijk;Rechts;1;113;left;no;100;leftarrow;559;true;focus;yes;283749;Chrome;112.0;Windows;10;undefined;undefined;1280 x 720;1600 x 900
H010;21;Vrouwelijk;Rechts;1;114;left;no;100;leftarrow;574;true;focus;yes;285095;Chrome;112.0;Windows;10;undefined;undefined;1280 x 720;1600 x 900
H010;21;Vrouwelijk;Rechts;1;115;left;yes;100;undefined;null;true;focus;yes;287124;Chrome;112.0;Windows;10;undefined;undefined;1280 x 720;1600 x 900
H010;21;Vrouwelijk;Rechts;1;116;right;yes;150;rightarrow;351;false;focus;yes;288246;Chrome;112.0;Windows;10;undefined;undefined;1280 x 720;1600 x 900
H010;21;Vrouwelijk;Rechts;1;117;right;no;100;rightarrow;380;true;focus;yes;289396;Chrome;112.0;Windows;10;undefined;undefined;1280 x 720;1600 x 900
H010;21;Vrouwelijk;Rechts;1;118;right;no;100;rightarrow;401;true;focus;yes;290578;Chrome;112.0;Windows;10;undefined;undefined;1280 x 720;1600 x 900
H010;21;Vrouwelijk;Rechts;1;119;right;no;100;rightarrow;389;true;focus;yes;291730;Chrome;112.0;Windows;10;undefined;undefined;1280 x 720;1600 x 900
H010;21;Vrouwelijk;Rechts;1;120;left;no;100;leftarrow;433;true;focus;yes;292943;Chrome;112.0;Windows;10;undefined;undefined;1280 x 720;1600 x 900
H010;21;Vrouwelijk;Rechts;1;121;left;yes;100;undefined;null;true;focus;yes;294967;Chrome;112.0;Windows;10;undefined;undefined;1280 x 720;1600 x 900
H010;21;Vrouwelijk;Rechts;1;122;right;no;150;rightarrow;397;true;focus;yes;296138;Chrome;112.0;Windows;10;undefined;undefined;1280 x 720;1600 x 900
H010;21;Vrouwelijk;Rechts;1;123;left;no;150;leftarrow;617;true;focus;yes;297516;Chrome;112.0;Windows;10;undefined;undefined;1280 x 720;1600 x 900
H010;21;Vrouwelijk;Rechts;1;124;left;no;150;leftarrow;521;true;focus;yes;298805;Chrome;112.0;Windows;10;undefined;undefined;1280 x 720;1600 x 900
H010;21;Vrouwelijk;Rechts;1;125;left;no;150;leftarrow;359;true;focus;yes;299925;Chrome;112.0;Windows;10;undefined;undefined;1280 x 720;1600 x 900
H010;21;Vrouwelijk;Rechts;1;126;right;no;150;rightarrow;416;true;focus;yes;301112;Chrome;112.0;Windows;10;undefined;undefined;1280 x 720;1600 x 900
H010;21;Vrouwelijk;Rechts;1;127;right;no;150;rightarrow;405;true;focus;yes;302293;Chrome;112.0;Windows;10;undefined;undefined;1280 x 720;1600 x 900
H010;21;Vrouwelijk;Rechts;1;128;right;yes;150;rightarrow;345;false;focus;yes;303409;Chrome;112.0;Windows;10;undefined;undefined;1280 x 720;1600 x 900
H010;21;Vrouwelijk;Rechts;2;1;left;yes;100;leftarrow;413;false;focus;yes;323098;Chrome;112.0;Windows;10;undefined;undefined;1280 x 720;1600 x 900
H010;21;Vrouwelijk;Rechts;2;2;left;no;50;leftarrow;474;true;focus;yes;324343;Chrome;112.0;Windows;10;undefined;undefined;1280 x 720;1600 x 900
H010;21;Vrouwelijk;Rechts;2;3;right;no;50;rightarrow;394;true;focus;yes;325503;Chrome;112.0;Windows;10;undefined;undefined;1280 x 720;1600 x 900
H010;21;Vrouwelijk;Rechts;2;4;right;no;50;rightarrow;324;true;focus;yes;326592;Chrome;112.0;Windows;10;undefined;undefined;1280 x 720;1600 x 900
H010;21;Vrouwelijk;Rechts;2;5;left;no;50;leftarrow;366;true;focus;yes;327732;Chrome;112.0;Windows;10;undefined;undefined;1280 x 720;1600 x 900
H010;21;Vrouwelijk;Rechts;2;6;right;yes;50;undefined;null;true;focus;yes;329751;Chrome;112.0;Windows;10;undefined;undefined;1280 x 720;1600 x 900
H010;21;Vrouwelijk;Rechts;2;7;right;no;100;rightarrow;618;true;focus;yes;331149;Chrome;112.0;Windows;10;undefined;undefined;1280 x 720;1600 x 900
H010;21;Vrouwelijk;Rechts;2;8;left;no;100;leftarrow;399;true;focus;yes;332320;Chrome;112.0;Windows;10;undefined;undefined;1280 x 720;1600 x 900
H010;21;Vrouwelijk;Rechts;2;9;right;yes;100;rightarrow;337;false;focus;yes;333444;Chrome;112.0;Windows;10;undefined;undefined;1280 x 720;1600 x 900
H010;21;Vrouwelijk;Rechts;2;10;left;no;50;leftarrow;387;true;focus;yes;334595;Chrome;112.0;Windows;10;undefined;undefined;1280 x 720;1600 x 900
H010;21;Vrouwelijk;Rechts;2;11;right;no;50;rightarrow;394;true;focus;yes;335766;Chrome;112.0;Windows;10;undefined;undefined;1280 x 720;1600 x 900
H010;21;Vrouwelijk;Rechts;2;12;left;no;50;leftarrow;425;true;focus;yes;336965;Chrome;112.0;Windows;10;undefined;undefined;1280 x 720;1600 x 900
H010;21;Vrouwelijk;Rechts;2;13;left;no;50;leftarrow;551;true;focus;yes;338284;Chrome;112.0;Windows;10;undefined;undefined;1280 x 720;1600 x 900
H010;21;Vrouwelijk;Rechts;2;14;right;no;50;rightarrow;347;true;focus;yes;339404;Chrome;112.0;Windows;10;undefined;undefined;1280 x 720;1600 x 900
H010;21;Vrouwelijk;Rechts;2;15;right;no;50;rightarrow;352;true;focus;yes;340533;Chrome;112.0;Windows;10;undefined;undefined;1280 x 720;1600 x 900
H010;21;Vrouwelijk;Rechts;2;16;left;yes;50;undefined;null;true;focus;yes;342554;Chrome;112.0;Windows;10;undefined;undefined;1280 x 720;1600 x 900
H010;21;Vrouwelijk;Rechts;2;17;right;yes;100;undefined;null;true;focus;yes;344578;Chrome;112.0;Windows;10;undefined;undefined;1280 x 720;1600 x 900
H010;21;Vrouwelijk;Rechts;2;18;left;yes;150;undefined;null;true;focus;yes;346607;Chrome;112.0;Windows;10;undefined;undefined;1280 x 720;1600 x 900
H010;21;Vrouwelijk;Rechts;2;19;left;no;200;leftarrow;523;true;focus;yes;347902;Chrome;112.0;Windows;10;undefined;undefined;1280 x 720;1600 x 900
H010;21;Vrouwelijk;Rechts;2;20;right;no;200;rightarrow;360;true;focus;yes;349048;Chrome;112.0;Windows;10;undefined;undefined;1280 x 720;1600 x 900
H010;21;Vrouwelijk;Rechts;2;21;left;no;200;leftarrow;368;true;focus;yes;350201;Chrome;112.0;Windows;10;undefined;undefined;1280 x 720;1600 x 900
H010;21;Vrouwelijk;Rechts;2;22;right;no;200;rightarrow;341;true;focus;yes;351313;Chrome;112.0;Windows;10;undefined;undefined;1280 x 720;1600 x 900
H010;21;Vrouwelijk;Rechts;2;23;right;no;200;rightarrow;378;true;focus;yes;352463;Chrome;112.0;Windows;10;undefined;undefined;1280 x 720;1600 x 900
H010;21;Vrouwelijk;Rechts;2;24;left;no;200;leftarrow;366;true;focus;yes;353601;Chrome;112.0;Windows;10;undefined;undefined;1280 x 720;1600 x 900
H010;21;Vrouwelijk;Rechts;2;25;right;yes;200;rightarrow;315;false;focus;yes;354686;Chrome;112.0;Windows;10;undefined;undefined;1280 x 720;1600 x 900
H010;21;Vrouwelijk;Rechts;2;26;left;yes;150;leftarrow;288;false;focus;yes;355748;Chrome;112.0;Windows;10;undefined;undefined;1280 x 720;1600 x 900
H010;21;Vrouwelijk;Rechts;2;27;left;no;100;leftarrow;452;true;focus;yes;356973;Chrome;112.0;Windows;10;undefined;undefined;1280 x 720;1600 x 900
H010;21;Vrouwelijk;Rechts;2;28;left;no;100;leftarrow;618;true;focus;yes;358364;Chrome;112.0;Windows;10;undefined;undefined;1280 x 720;1600 x 900
H010;21;Vrouwelijk;Rechts;2;29;right;no;100;rightarrow;553;true;focus;yes;359697;Chrome;112.0;Windows;10;undefined;undefined;1280 x 720;1600 x 900
H010;21;Vrouwelijk;Rechts;2;30;left;no;100;leftarrow;449;true;focus;yes;360915;Chrome;112.0;Windows;10;undefined;undefined;1280 x 720;1600 x 900
H010;21;Vrouwelijk;Rechts;2;31;right;no;100;rightarrow;509;true;focus;yes;362205;Chrome;112.0;Windows;10;undefined;undefined;1280 x 720;1600 x 900
H010;21;Vrouwelijk;Rechts;2;32;right;no;100;rightarrow;564;true;focus;yes;363547;Chrome;112.0;Windows;10;undefined;undefined;1280 x 720;1600 x 900
H010;21;Vrouwelijk;Rechts;2;33;left;no;100;leftarrow;382;true;focus;yes;364706;Chrome;112.0;Windows;10;undefined;undefined;1280 x 720;1600 x 900
H010;21;Vrouwelijk;Rechts;2;34;right;no;100;rightarrow;394;true;focus;yes;365871;Chrome;112.0;Windows;10;undefined;undefined;1280 x 720;1600 x 900
H010;21;Vrouwelijk;Rechts;2;35;left;no;100;leftarrow;365;true;focus;yes;367012;Chrome;112.0;Windows;10;undefined;undefined;1280 x 720;1600 x 900
H010;21;Vrouwelijk;Rechts;2;36;right;yes;100;undefined;null;true;focus;yes;369047;Chrome;112.0;Windows;10;undefined;undefined;1280 x 720;1600 x 900
H010;21;Vrouwelijk;Rechts;2;37;left;no;150;leftarrow;639;true;focus;yes;370471;Chrome;112.0;Windows;10;undefined;undefined;1280 x 720;1600 x 900
H010;21;Vrouwelijk;Rechts;2;38;right;no;150;rightarrow;431;true;focus;yes;371677;Chrome;112.0;Windows;10;undefined;undefined;1280 x 720;1600 x 900
H010;21;Vrouwelijk;Rechts;2;39;left;yes;150;undefined;null;true;focus;yes;373721;Chrome;112.0;Windows;10;undefined;undefined;1280 x 720;1600 x 900
H010;21;Vrouwelijk;Rechts;2;40;right;no;200;rightarrow;450;true;focus;yes;374941;Chrome;112.0;Windows;10;undefined;undefined;1280 x 720;1600 x 900
H010;21;Vrouwelijk;Rechts;2;41;left;no;200;leftarrow;463;true;focus;yes;376172;Chrome;112.0;Windows;10;undefined;undefined;1280 x 720;1600 x 900
H010;21;Vrouwelijk;Rechts;2;42;right;no;200;rightarrow;436;true;focus;yes;377385;Chrome;112.0;Windows;10;undefined;undefined;1280 x 720;1600 x 900
H010;21;Vrouwelijk;Rechts;2;43;left;no;200;leftarrow;333;true;focus;yes;378480;Chrome;112.0;Windows;10;undefined;undefined;1280 x 720;1600 x 900
H010;21;Vrouwelijk;Rechts;2;44;left;yes;200;undefined;null;true;focus;yes;380507;Chrome;112.0;Windows;10;undefined;undefined;1280 x 720;1600 x 900
H010;21;Vrouwelijk;Rechts;2;45;right;no;250;rightarrow;340;true;focus;yes;381623;Chrome;112.0;Windows;10;undefined;undefined;1280 x 720;1600 x 900
H010;21;Vrouwelijk;Rechts;2;46;right;no;250;rightarrow;402;true;focus;yes;382791;Chrome;112.0;Windows;10;undefined;undefined;1280 x 720;1600 x 900
H010;21;Vrouwelijk;Rechts;2;47;left;no;250;leftarrow;451;true;focus;yes;384015;Chrome;112.0;Windows;10;undefined;undefined;1280 x 720;1600 x 900
H010;21;Vrouwelijk;Rechts;2;48;right;yes;250;undefined;null;true;focus;yes;386031;Chrome;112.0;Windows;10;undefined;undefined;1280 x 720;1600 x 900
H010;21;Vrouwelijk;Rechts;2;49;left;yes;300;leftarrow;410;false;focus;yes;387215;Chrome;112.0;Windows;10;undefined;undefined;1280 x 720;1600 x 900
H010;21;Vrouwelijk;Rechts;2;50;right;no;250;rightarrow;369;true;focus;yes;388363;Chrome;112.0;Windows;10;undefined;undefined;1280 x 720;1600 x 900
H010;21;Vrouwelijk;Rechts;2;51;right;yes;250;rightarrow;404;false;focus;yes;389530;Chrome;112.0;Windows;10;undefined;undefined;1280 x 720;1600 x 900
H010;21;Vrouwelijk;Rechts;2;52;right;no;200;rightarrow;646;true;focus;yes;390940;Chrome;112.0;Windows;10;undefined;undefined;1280 x 720;1600 x 900
H010;21;Vrouwelijk;Rechts;2;53;left;no;200;leftarrow;445;true;focus;yes;392166;Chrome;112.0;Windows;10;undefined;undefined;1280 x 720;1600 x 900
H010;21;Vrouwelijk;Rechts;2;54;left;no;200;leftarrow;428;true;focus;yes;393370;Chrome;112.0;Windows;10;undefined;undefined;1280 x 720;1600 x 900
H010;21;Vrouwelijk;Rechts;2;55;right;no;200;rightarrow;448;true;focus;yes;394594;Chrome;112.0;Windows;10;undefined;undefined;1280 x 720;1600 x 900
H010;21;Vrouwelijk;Rechts;2;56;left;no;200;leftarrow;423;true;focus;yes;395794;Chrome;112.0;Windows;10;undefined;undefined;1280 x 720;1600 x 900
H010;21;Vrouwelijk;Rechts;2;57;right;yes;200;rightarrow;348;false;focus;yes;396925;Chrome;112.0;Windows;10;undefined;undefined;1280 x 720;1600 x 900
H010;21;Vrouwelijk;Rechts;2;58;left;no;150;leftarrow;382;true;focus;yes;398075;Chrome;112.0;Windows;10;undefined;undefined;1280 x 720;1600 x 900
H010;21;Vrouwelijk;Rechts;2;59;left;no;150;leftarrow;597;true;focus;yes;399456;Chrome;112.0;Windows;10;undefined;undefined;1280 x 720;1600 x 900
H010;21;Vrouwelijk;Rechts;2;60;right;no;150;rightarrow;696;true;focus;yes;400924;Chrome;112.0;Windows;10;undefined;undefined;1280 x 720;1600 x 900
H010;21;Vrouwelijk;Rechts;2;61;left;no;150;leftarrow;516;true;focus;yes;402225;Chrome;112.0;Windows;10;undefined;undefined;1280 x 720;1600 x 900
H010;21;Vrouwelijk;Rechts;2;62;right;no;150;rightarrow;445;true;focus;yes;403453;Chrome;112.0;Windows;10;undefined;undefined;1280 x 720;1600 x 900
H010;21;Vrouwelijk;Rechts;2;63;right;no;150;rightarrow;482;true;focus;yes;404710;Chrome;112.0;Windows;10;undefined;undefined;1280 x 720;1600 x 900
H010;21;Vrouwelijk;Rechts;2;64;left;yes;150;undefined;null;true;focus;yes;406738;Chrome;112.0;Windows;10;undefined;undefined;1280 x 720;1600 x 900
H010;21;Vrouwelijk;Rechts;2;65;left;yes;200;leftarrow;335;false;focus;yes;407854;Chrome;112.0;Windows;10;undefined;undefined;1280 x 720;1600 x 900
H010;21;Vrouwelijk;Rechts;2;66;right;no;150;rightarrow;374;true;focus;yes;409000;Chrome;112.0;Windows;10;undefined;undefined;1280 x 720;1600 x 900
H010;21;Vrouwelijk;Rechts;2;67;left;no;150;leftarrow;923;true;focus;yes;410693;Chrome;112.0;Windows;10;undefined;undefined;1280 x 720;1600 x 900
H010;21;Vrouwelijk;Rechts;2;68;left;no;150;leftarrow;451;true;focus;yes;411916;Chrome;112.0;Windows;10;undefined;undefined;1280 x 720;1600 x 900
H010;21;Vrouwelijk;Rechts;2;69;right;yes;150;rightarrow;385;false;focus;yes;413072;Chrome;112.0;Windows;10;undefined;undefined;1280 x 720;1600 x 900
H010;21;Vrouwelijk;Rechts;2;70;right;no;100;rightarrow;420;true;focus;yes;414262;Chrome;112.0;Windows;10;undefined;undefined;1280 x 720;1600 x 900
H010;21;Vrouwelijk;Rechts;2;71;left;no;100;leftarrow;426;true;focus;yes;415468;Chrome;112.0;Windows;10;undefined;undefined;1280 x 720;1600 x 900
H010;21;Vrouwelijk;Rechts;2;72;right;no;100;rightarrow;399;true;focus;yes;416647;Chrome;112.0;Windows;10;undefined;undefined;1280 x 720;1600 x 900
H010;21;Vrouwelijk;Rechts;2;73;left;yes;100;leftarrow;358;false;focus;yes;417770;Chrome;112.0;Windows;10;undefined;undefined;1280 x 720;1600 x 900
H010;21;Vrouwelijk;Rechts;2;74;right;no;50;rightarrow;335;true;focus;yes;418891;Chrome;112.0;Windows;10;undefined;undefined;1280 x 720;1600 x 900
H010;21;Vrouwelijk;Rechts;2;75;left;no;50;leftarrow;596;true;focus;yes;420271;Chrome;112.0;Windows;10;undefined;undefined;1280 x 720;1600 x 900
H010;21;Vrouwelijk;Rechts;2;76;left;no;50;leftarrow;457;true;focus;yes;421509;Chrome;112.0;Windows;10;undefined;undefined;1280 x 720;1600 x 900
H010;21;Vrouwelijk;Rechts;2;77;right;no;50;rightarrow;365;true;focus;yes;422655;Chrome;112.0;Windows;10;undefined;undefined;1280 x 720;1600 x 900
H010;21;Vrouwelijk;Rechts;2;78;right;yes;50;undefined;null;true;focus;yes;424686;Chrome;112.0;Windows;10;undefined;undefined;1280 x 720;1600 x 900
H010;21;Vrouwelijk;Rechts;2;79;right;no;100;rightarrow;433;true;focus;yes;425902;Chrome;112.0;Windows;10;undefined;undefined;1280 x 720;1600 x 900
H010;21;Vrouwelijk;Rechts;2;80;left;no;100;leftarrow;383;true;focus;yes;427063;Chrome;112.0;Windows;10;undefined;undefined;1280 x 720;1600 x 900
H010;21;Vrouwelijk;Rechts;2;81;left;no;100;leftarrow;511;true;focus;yes;428345;Chrome;112.0;Windows;10;undefined;undefined;1280 x 720;1600 x 900
H010;21;Vrouwelijk;Rechts;2;82;left;no;100;leftarrow;484;true;focus;yes;429607;Chrome;112.0;Windows;10;undefined;undefined;1280 x 720;1600 x 900
H010;21;Vrouwelijk;Rechts;2;83;right;no;100;rightarrow;716;true;focus;yes;431105;Chrome;112.0;Windows;10;undefined;undefined;1280 x 720;1600 x 900
H010;21;Vrouwelijk;Rechts;2;84;right;no;100;rightarrow;527;true;focus;yes;432413;Chrome;112.0;Windows;10;undefined;undefined;1280 x 720;1600 x 900
H010;21;Vrouwelijk;Rechts;2;85;left;no;100;leftarrow;436;true;focus;yes;433624;Chrome;112.0;Windows;10;undefined;undefined;1280 x 720;1600 x 900
H010;21;Vrouwelijk;Rechts;2;86;right;yes;100;undefined;null;true;focus;yes;435668;Chrome;112.0;Windows;10;undefined;undefined;1280 x 720;1600 x 900
H010;21;Vrouwelijk;Rechts;2;87;right;no;150;rightarrow;506;true;focus;yes;436944;Chrome;112.0;Windows;10;undefined;undefined;1280 x 720;1600 x 900
H010;21;Vrouwelijk;Rechts;2;88;left;yes;150;undefined;null;true;focus;yes;438968;Chrome;112.0;Windows;10;undefined;undefined;1280 x 720;1600 x 900
H010;21;Vrouwelijk;Rechts;2;89;left;no;200;leftarrow;458;true;focus;yes;440197;Chrome;112.0;Windows;10;undefined;undefined;1280 x 720;1600 x 900
H010;21;Vrouwelijk;Rechts;2;90;left;no;200;leftarrow;839;true;focus;yes;441801;Chrome;112.0;Windows;10;undefined;undefined;1280 x 720;1600 x 900
H010;21;Vrouwelijk;Rechts;2;91;right;no;200;rightarrow;501;true;focus;yes;443081;Chrome;112.0;Windows;10;undefined;undefined;1280 x 720;1600 x 900
H010;21;Vrouwelijk;Rechts;2;92;left;yes;200;undefined;null;true;focus;yes;445111;Chrome;112.0;Windows;10;undefined;undefined;1280 x 720;1600 x 900
H010;21;Vrouwelijk;Rechts;2;93;right;no;250;rightarrow;410;true;focus;yes;446290;Chrome;112.0;Windows;10;undefined;undefined;1280 x 720;1600 x 900
H010;21;Vrouwelijk;Rechts;2;94;right;no;250;rightarrow;512;true;focus;yes;447577;Chrome;112.0;Windows;10;undefined;undefined;1280 x 720;1600 x 900
H010;21;Vrouwelijk;Rechts;2;95;right;yes;250;rightarrow;444;false;focus;yes;448799;Chrome;112.0;Windows;10;undefined;undefined;1280 x 720;1600 x 900
H010;21;Vrouwelijk;Rechts;2;96;left;no;200;leftarrow;431;true;focus;yes;450003;Chrome;112.0;Windows;10;undefined;undefined;1280 x 720;1600 x 900
H010;21;Vrouwelijk;Rechts;2;97;left;no;200;leftarrow;612;true;focus;yes;451382;Chrome;112.0;Windows;10;undefined;undefined;1280 x 720;1600 x 900
H010;21;Vrouwelijk;Rechts;2;98;right;no;200;rightarrow;456;true;focus;yes;452609;Chrome;112.0;Windows;10;undefined;undefined;1280 x 720;1600 x 900
H010;21;Vrouwelijk;Rechts;2;99;left;no;200;leftarrow;441;true;focus;yes;453829;Chrome;112.0;Windows;10;undefined;undefined;1280 x 720;1600 x 900
H010;21;Vrouwelijk;Rechts;2;100;left;no;200;leftarrow;427;true;focus;yes;455031;Chrome;112.0;Windows;10;undefined;undefined;1280 x 720;1600 x 900
H010;21;Vrouwelijk;Rechts;2;101;right;no;200;rightarrow;404;true;focus;yes;456205;Chrome;112.0;Windows;10;undefined;undefined;1280 x 720;1600 x 900
H010;21;Vrouwelijk;Rechts;2;102;right;yes;200;undefined;null;true;focus;yes;458235;Chrome;112.0;Windows;10;undefined;undefined;1280 x 720;1600 x 900
H010;21;Vrouwelijk;Rechts;2;103;right;no;250;rightarrow;463;true;focus;yes;459476;Chrome;112.0;Windows;10;undefined;undefined;1280 x 720;1600 x 900
H010;21;Vrouwelijk;Rechts;2;104;left;yes;250;leftarrow;426;false;focus;yes;460671;Chrome;112.0;Windows;10;undefined;undefined;1280 x 720;1600 x 900
H010;21;Vrouwelijk;Rechts;2;105;left;no;200;leftarrow;633;true;focus;yes;462073;Chrome;112.0;Windows;10;undefined;undefined;1280 x 720;1600 x 900
H010;21;Vrouwelijk;Rechts;2;106;left;no;200;leftarrow;591;true;focus;yes;463421;Chrome;112.0;Windows;10;undefined;undefined;1280 x 720;1600 x 900
H010;21;Vrouwelijk;Rechts;2;107;right;no;200;rightarrow;490;true;focus;yes;464672;Chrome;112.0;Windows;10;undefined;undefined;1280 x 720;1600 x 900
H010;21;Vrouwelijk;Rechts;2;108;left;no;200;leftarrow;519;true;focus;yes;465958;Chrome;112.0;Windows;10;undefined;undefined;1280 x 720;1600 x 900
H010;21;Vrouwelijk;Rechts;2;109;right;no;200;rightarrow;447;true;focus;yes;467177;Chrome;112.0;Windows;10;undefined;undefined;1280 x 720;1600 x 900
H010;21;Vrouwelijk;Rechts;2;110;right;yes;200;undefined;null;true;focus;yes;469197;Chrome;112.0;Windows;10;undefined;undefined;1280 x 720;1600 x 900
H010;21;Vrouwelijk;Rechts;2;111;right;no;250;rightarrow;414;true;focus;yes;470383;Chrome;112.0;Windows;10;undefined;undefined;1280 x 720;1600 x 900
H010;21;Vrouwelijk;Rechts;2;112;left;yes;250;leftarrow;479;false;focus;yes;471624;Chrome;112.0;Windows;10;undefined;undefined;1280 x 720;1600 x 900
H010;21;Vrouwelijk;Rechts;2;113;left;yes;200;rightarrow;289;false;focus;yes;472685;Chrome;112.0;Windows;10;undefined;undefined;1280 x 720;1600 x 900
H010;21;Vrouwelijk;Rechts;2;114;right;no;150;rightarrow;400;true;focus;yes;473861;Chrome;112.0;Windows;10;undefined;undefined;1280 x 720;1600 x 900
H010;21;Vrouwelijk;Rechts;2;115;left;no;150;leftarrow;540;true;focus;yes;475168;Chrome;112.0;Windows;10;undefined;undefined;1280 x 720;1600 x 900
H010;21;Vrouwelijk;Rechts;2;116;right;no;150;rightarrow;422;true;focus;yes;476369;Chrome;112.0;Windows;10;undefined;undefined;1280 x 720;1600 x 900
H010;21;Vrouwelijk;Rechts;2;117;left;no;150;leftarrow;379;true;focus;yes;477523;Chrome;112.0;Windows;10;undefined;undefined;1280 x 720;1600 x 900
H010;21;Vrouwelijk;Rechts;2;118;right;no;150;rightarrow;315;true;focus;yes;478615;Chrome;112.0;Windows;10;undefined;undefined;1280 x 720;1600 x 900
H010;21;Vrouwelijk;Rechts;2;119;left;no;150;leftarrow;371;true;focus;yes;479757;Chrome;112.0;Windows;10;undefined;undefined;1280 x 720;1600 x 900
H010;21;Vrouwelijk;Rechts;2;120;right;yes;150;rightarrow;287;false;focus;yes;480821;Chrome;112.0;Windows;10;undefined;undefined;1280 x 720;1600 x 900
H010;21;Vrouwelijk;Rechts;2;121;left;no;100;leftarrow;380;true;focus;yes;481973;Chrome;112.0;Windows;10;undefined;undefined;1280 x 720;1600 x 900
H010;21;Vrouwelijk;Rechts;2;122;left;no;100;leftarrow;367;true;focus;yes;483115;Chrome;112.0;Windows;10;undefined;undefined;1280 x 720;1600 x 900
H010;21;Vrouwelijk;Rechts;2;123;right;no;100;rightarrow;512;true;focus;yes;484403;Chrome;112.0;Windows;10;undefined;undefined;1280 x 720;1600 x 900
H010;21;Vrouwelijk;Rechts;2;124;right;no;100;rightarrow;391;true;focus;yes;485573;Chrome;112.0;Windows;10;undefined;undefined;1280 x 720;1600 x 900
H010;21;Vrouwelijk;Rechts;2;125;left;no;100;leftarrow;462;true;focus;yes;486811;Chrome;112.0;Windows;10;undefined;undefined;1280 x 720;1600 x 900
H010;21;Vrouwelijk;Rechts;2;126;right;yes;100;undefined;null;true;focus;yes;488848;Chrome;112.0;Windows;10;undefined;undefined;1280 x 720;1600 x 900
H010;21;Vrouwelijk;Rechts;2;127;right;no;150;rightarrow;467;true;focus;yes;490083;Chrome;112.0;Windows;10;undefined;undefined;1280 x 720;1600 x 900
H010;21;Vrouwelijk;Rechts;2;128;left;yes;150;undefined;null;true;focus;yes;492131;Chrome;112.0;Windows;10;undefined;undefined;1280 x 720;1600 x 900
H010;21;Vrouwelijk;Rechts;3;1;left;no;200;leftarrow;564;true;focus;yes;511923;Chrome;112.0;Windows;10;undefined;undefined;1280 x 720;1600 x 900
H010;21;Vrouwelijk;Rechts;3;2;left;no;200;leftarrow;480;true;focus;yes;513174;Chrome;112.0;Windows;10;undefined;undefined;1280 x 720;1600 x 900
H010;21;Vrouwelijk;Rechts;3;3;right;yes;200;rightarrow;435;false;focus;yes;514377;Chrome;112.0;Windows;10;undefined;undefined;1280 x 720;1600 x 900
H010;21;Vrouwelijk;Rechts;3;4;right;no;150;rightarrow;397;true;focus;yes;515545;Chrome;112.0;Windows;10;undefined;undefined;1280 x 720;1600 x 900
H010;21;Vrouwelijk;Rechts;3;5;left;yes;150;undefined;null;true;focus;yes;517559;Chrome;112.0;Windows;10;undefined;undefined;1280 x 720;1600 x 900
H010;21;Vrouwelijk;Rechts;3;6;left;no;200;leftarrow;457;true;focus;yes;518787;Chrome;112.0;Windows;10;undefined;undefined;1280 x 720;1600 x 900
H010;21;Vrouwelijk;Rechts;3;7;right;no;200;rightarrow;394;true;focus;yes;519956;Chrome;112.0;Windows;10;undefined;undefined;1280 x 720;1600 x 900
H010;21;Vrouwelijk;Rechts;3;8;right;no;200;rightarrow;393;true;focus;yes;521116;Chrome;112.0;Windows;10;undefined;undefined;1280 x 720;1600 x 900
H010;21;Vrouwelijk;Rechts;3;9;left;no;200;leftarrow;383;true;focus;yes;522261;Chrome;112.0;Windows;10;undefined;undefined;1280 x 720;1600 x 900
H010;21;Vrouwelijk;Rechts;3;10;right;yes;200;rightarrow;373;false;focus;yes;523405;Chrome;112.0;Windows;10;undefined;undefined;1280 x 720;1600 x 900
H010;21;Vrouwelijk;Rechts;3;11;left;no;150;leftarrow;379;true;focus;yes;524558;Chrome;112.0;Windows;10;undefined;undefined;1280 x 720;1600 x 900
H010;21;Vrouwelijk;Rechts;3;12;right;no;150;rightarrow;431;true;focus;yes;525752;Chrome;112.0;Windows;10;undefined;undefined;1280 x 720;1600 x 900
H010;21;Vrouwelijk;Rechts;3;13;right;no;150;rightarrow;474;true;focus;yes;526996;Chrome;112.0;Windows;10;undefined;undefined;1280 x 720;1600 x 900
H010;21;Vrouwelijk;Rechts;3;14;left;no;150;leftarrow;397;true;focus;yes;528159;Chrome;112.0;Windows;10;undefined;undefined;1280 x 720;1600 x 900
H010;21;Vrouwelijk;Rechts;3;15;left;yes;150;undefined;null;true;focus;yes;530185;Chrome;112.0;Windows;10;undefined;undefined;1280 x 720;1600 x 900
H010;21;Vrouwelijk;Rechts;3;16;right;no;200;rightarrow;316;true;focus;yes;531276;Chrome;112.0;Windows;10;undefined;undefined;1280 x 720;1600 x 900
H010;21;Vrouwelijk;Rechts;3;17;right;yes;200;rightarrow;412;false;focus;yes;532456;Chrome;112.0;Windows;10;undefined;undefined;1280 x 720;1600 x 900
H010;21;Vrouwelijk;Rechts;3;18;right;no;150;rightarrow;690;true;focus;yes;533916;Chrome;112.0;Windows;10;undefined;undefined;1280 x 720;1600 x 900
H010;21;Vrouwelijk;Rechts;3;19;left;yes;150;undefined;null;true;focus;yes;535957;Chrome;112.0;Windows;10;undefined;undefined;1280 x 720;1600 x 900
H010;21;Vrouwelijk;Rechts;3;20;left;no;200;leftarrow;385;true;focus;yes;537110;Chrome;112.0;Windows;10;undefined;undefined;1280 x 720;1600 x 900
H010;21;Vrouwelijk;Rechts;3;21;left;no;200;leftarrow;473;true;focus;yes;538352;Chrome;112.0;Windows;10;undefined;undefined;1280 x 720;1600 x 900
H010;21;Vrouwelijk;Rechts;3;22;right;no;200;rightarrow;424;true;focus;yes;539549;Chrome;112.0;Windows;10;undefined;undefined;1280 x 720;1600 x 900
H010;21;Vrouwelijk;Rechts;3;23;left;no;200;leftarrow;431;true;focus;yes;540756;Chrome;112.0;Windows;10;undefined;undefined;1280 x 720;1600 x 900
H010;21;Vrouwelijk;Rechts;3;24;right;no;200;rightarrow;366;true;focus;yes;541895;Chrome;112.0;Windows;10;undefined;undefined;1280 x 720;1600 x 900
H010;21;Vrouwelijk;Rechts;3;25;right;no;200;rightarrow;435;true;focus;yes;543103;Chrome;112.0;Windows;10;undefined;undefined;1280 x 720;1600 x 900
H010;21;Vrouwelijk;Rechts;3;26;left;no;200;leftarrow;498;true;focus;yes;544388;Chrome;112.0;Windows;10;undefined;undefined;1280 x 720;1600 x 900
H010;21;Vrouwelijk;Rechts;3;27;left;no;200;leftarrow;378;true;focus;yes;545554;Chrome;112.0;Windows;10;undefined;undefined;1280 x 720;1600 x 900
H010;21;Vrouwelijk;Rechts;3;28;left;no;200;leftarrow;351;true;focus;yes;546687;Chrome;112.0;Windows;10;undefined;undefined;1280 x 720;1600 x 900
H010;21;Vrouwelijk;Rechts;3;29;right;no;200;rightarrow;474;true;focus;yes;547939;Chrome;112.0;Windows;10;undefined;undefined;1280 x 720;1600 x 900
H010;21;Vrouwelijk;Rechts;3;30;right;no;200;rightarrow;374;true;focus;yes;549094;Chrome;112.0;Windows;10;undefined;undefined;1280 x 720;1600 x 900
H010;21;Vrouwelijk;Rechts;3;31;right;yes;200;rightarrow;310;false;focus;yes;550171;Chrome;112.0;Windows;10;undefined;undefined;1280 x 720;1600 x 900
H010;21;Vrouwelijk;Rechts;3;32;left;yes;150;leftarrow;284;false;focus;yes;551228;Chrome;112.0;Windows;10;undefined;undefined;1280 x 720;1600 x 900
H010;21;Vrouwelijk;Rechts;3;33;left;no;100;leftarrow;620;true;focus;yes;552626;Chrome;112.0;Windows;10;undefined;undefined;1280 x 720;1600 x 900
H010;21;Vrouwelijk;Rechts;3;34;right;no;100;rightarrow;412;true;focus;yes;553804;Chrome;112.0;Windows;10;undefined;undefined;1280 x 720;1600 x 900
H010;21;Vrouwelijk;Rechts;3;35;right;no;100;rightarrow;405;true;focus;yes;554972;Chrome;112.0;Windows;10;undefined;undefined;1280 x 720;1600 x 900
H010;21;Vrouwelijk;Rechts;3;36;left;no;100;leftarrow;507;true;focus;yes;556260;Chrome;112.0;Windows;10;undefined;undefined;1280 x 720;1600 x 900
H010;21;Vrouwelijk;Rechts;3;37;left;no;100;leftarrow;416;true;focus;yes;557434;Chrome;112.0;Windows;10;undefined;undefined;1280 x 720;1600 x 900
H010;21;Vrouwelijk;Rechts;3;38;right;yes;100;undefined;null;true;focus;yes;559461;Chrome;112.0;Windows;10;undefined;undefined;1280 x 720;1600 x 900
H010;21;Vrouwelijk;Rechts;3;39;right;no;150;rightarrow;412;true;focus;yes;560644;Chrome;112.0;Windows;10;undefined;undefined;1280 x 720;1600 x 900
H010;21;Vrouwelijk;Rechts;3;40;left;yes;150;leftarrow;442;false;focus;yes;561856;Chrome;112.0;Windows;10;undefined;undefined;1280 x 720;1600 x 900
H010;21;Vrouwelijk;Rechts;3;41;right;no;100;rightarrow;332;true;focus;yes;562953;Chrome;112.0;Windows;10;undefined;undefined;1280 x 720;1600 x 900
H010;21;Vrouwelijk;Rechts;3;42;right;no;100;rightarrow;373;true;focus;yes;564106;Chrome;112.0;Windows;10;undefined;undefined;1280 x 720;1600 x 900
H010;21;Vrouwelijk;Rechts;3;43;left;no;100;leftarrow;547;true;focus;yes;565432;Chrome;112.0;Windows;10;undefined;undefined;1280 x 720;1600 x 900
H010;21;Vrouwelijk;Rechts;3;44;left;no;100;leftarrow;948;true;focus;yes;567165;Chrome;112.0;Windows;10;undefined;undefined;1280 x 720;1600 x 900
H010;21;Vrouwelijk;Rechts;3;45;right;no;100;rightarrow;592;true;focus;yes;568532;Chrome;112.0;Windows;10;undefined;undefined;1280 x 720;1600 x 900
H010;21;Vrouwelijk;Rechts;3;46;right;yes;100;undefined;null;true;focus;yes;570550;Chrome;112.0;Windows;10;undefined;undefined;1280 x 720;1600 x 900
H010;21;Vrouwelijk;Rechts;3;47;left;yes;150;leftarrow;356;false;focus;yes;571677;Chrome;112.0;Windows;10;undefined;undefined;1280 x 720;1600 x 900
H010;21;Vrouwelijk;Rechts;3;48;left;no;100;leftarrow;419;true;focus;yes;572858;Chrome;112.0;Windows;10;undefined;undefined;1280 x 720;1600 x 900
H010;21;Vrouwelijk;Rechts;3;49;right;no;100;rightarrow;473;true;focus;yes;574105;Chrome;112.0;Windows;10;undefined;undefined;1280 x 720;1600 x 900
H010;21;Vrouwelijk;Rechts;3;50;right;yes;100;undefined;null;true;focus;yes;576134;Chrome;112.0;Windows;10;undefined;undefined;1280 x 720;1600 x 900
H010;21;Vrouwelijk;Rechts;3;51;right;no;150;rightarrow;417;true;focus;yes;577329;Chrome;112.0;Windows;10;undefined;undefined;1280 x 720;1600 x 900
H010;21;Vrouwelijk;Rechts;3;52;left;yes;150;undefined;null;true;focus;yes;579350;Chrome;112.0;Windows;10;undefined;undefined;1280 x 720;1600 x 900
H010;21;Vrouwelijk;Rechts;3;53;left;no;200;leftarrow;444;true;focus;yes;580581;Chrome;112.0;Windows;10;undefined;undefined;1280 x 720;1600 x 900
H010;21;Vrouwelijk;Rechts;3;54;left;no;200;leftarrow;450;true;focus;yes;581817;Chrome;112.0;Windows;10;undefined;undefined;1280 x 720;1600 x 900
H010;21;Vrouwelijk;Rechts;3;55;right;no;200;rightarrow;445;true;focus;yes;583043;Chrome;112.0;Windows;10;undefined;undefined;1280 x 720;1600 x 900
H010;21;Vrouwelijk;Rechts;3;56;left;no;200;leftarrow;409;true;focus;yes;584227;Chrome;112.0;Windows;10;undefined;undefined;1280 x 720;1600 x 900
H010;21;Vrouwelijk;Rechts;3;57;right;no;200;rightarrow;396;true;focus;yes;585398;Chrome;112.0;Windows;10;undefined;undefined;1280 x 720;1600 x 900
H010;21;Vrouwelijk;Rechts;3;58;left;yes;200;undefined;null;true;focus;yes;587423;Chrome;112.0;Windows;10;undefined;undefined;1280 x 720;1600 x 900
H010;21;Vrouwelijk;Rechts;3;59;right;yes;250;undefined;null;true;focus;yes;589448;Chrome;112.0;Windows;10;undefined;undefined;1280 x 720;1600 x 900
H010;21;Vrouwelijk;Rechts;3;60;left;no;300;leftarrow;409;true;focus;yes;590641;Chrome;112.0;Windows;10;undefined;undefined;1280 x 720;1600 x 900
H010;21;Vrouwelijk;Rechts;3;61;left;no;300;leftarrow;476;true;focus;yes;591894;Chrome;112.0;Windows;10;undefined;undefined;1280 x 720;1600 x 900
H010;21;Vrouwelijk;Rechts;3;62;left;no;300;leftarrow;335;true;focus;yes;592997;Chrome;112.0;Windows;10;undefined;undefined;1280 x 720;1600 x 900
H010;21;Vrouwelijk;Rechts;3;63;right;no;300;rightarrow;414;true;focus;yes;594183;Chrome;112.0;Windows;10;undefined;undefined;1280 x 720;1600 x 900
H010;21;Vrouwelijk;Rechts;3;64;right;no;300;rightarrow;344;true;focus;yes;595298;Chrome;112.0;Windows;10;undefined;undefined;1280 x 720;1600 x 900
H010;21;Vrouwelijk;Rechts;3;65;left;no;300;leftarrow;542;true;focus;yes;596606;Chrome;112.0;Windows;10;undefined;undefined;1280 x 720;1600 x 900
H010;21;Vrouwelijk;Rechts;3;66;left;no;300;leftarrow;484;true;focus;yes;597864;Chrome;112.0;Windows;10;undefined;undefined;1280 x 720;1600 x 900
H010;21;Vrouwelijk;Rechts;3;67;right;no;300;rightarrow;390;true;focus;yes;599025;Chrome;112.0;Windows;10;undefined;undefined;1280 x 720;1600 x 900
H010;21;Vrouwelijk;Rechts;3;68;right;yes;300;rightarrow;367;false;focus;yes;600165;Chrome;112.0;Windows;10;undefined;undefined;1280 x 720;1600 x 900
H010;21;Vrouwelijk;Rechts;3;69;right;no;250;rightarrow;368;true;focus;yes;601319;Chrome;112.0;Windows;10;undefined;undefined;1280 x 720;1600 x 900
H010;21;Vrouwelijk;Rechts;3;70;left;yes;250;leftarrow;392;false;focus;yes;602487;Chrome;112.0;Windows;10;undefined;undefined;1280 x 720;1600 x 900
H010;21;Vrouwelijk;Rechts;3;71;left;no;200;leftarrow;546;true;focus;yes;603806;Chrome;112.0;Windows;10;undefined;undefined;1280 x 720;1600 x 900
H010;21;Vrouwelijk;Rechts;3;72;right;no;200;rightarrow;331;true;focus;yes;604915;Chrome;112.0;Windows;10;undefined;undefined;1280 x 720;1600 x 900
H010;21;Vrouwelijk;Rechts;3;73;right;no;200;rightarrow;351;true;focus;yes;606045;Chrome;112.0;Windows;10;undefined;undefined;1280 x 720;1600 x 900
H010;21;Vrouwelijk;Rechts;3;74;left;no;200;leftarrow;384;true;focus;yes;607213;Chrome;112.0;Windows;10;undefined;undefined;1280 x 720;1600 x 900
H010;21;Vrouwelijk;Rechts;3;75;right;yes;200;rightarrow;316;false;focus;yes;608300;Chrome;112.0;Windows;10;undefined;undefined;1280 x 720;1600 x 900
H010;21;Vrouwelijk;Rechts;3;76;left;no;150;leftarrow;308;true;focus;yes;609386;Chrome;112.0;Windows;10;undefined;undefined;1280 x 720;1600 x 900
H010;21;Vrouwelijk;Rechts;3;77;left;no;150;leftarrow;308;true;focus;yes;610462;Chrome;112.0;Windows;10;undefined;undefined;1280 x 720;1600 x 900
H010;21;Vrouwelijk;Rechts;3;78;right;no;150;rightarrow;331;true;focus;yes;611558;Chrome;112.0;Windows;10;undefined;undefined;1280 x 720;1600 x 900
H010;21;Vrouwelijk;Rechts;3;79;left;yes;150;leftarrow;348;false;focus;yes;612667;Chrome;112.0;Windows;10;undefined;undefined;1280 x 720;1600 x 900
H010;21;Vrouwelijk;Rechts;3;80;right;no;100;rightarrow;294;true;focus;yes;613735;Chrome;112.0;Windows;10;undefined;undefined;1280 x 720;1600 x 900
H010;21;Vrouwelijk;Rechts;3;81;left;no;100;leftarrow;415;true;focus;yes;614915;Chrome;112.0;Windows;10;undefined;undefined;1280 x 720;1600 x 900
H010;21;Vrouwelijk;Rechts;3;82;right;no;100;rightarrow;597;true;focus;yes;616293;Chrome;112.0;Windows;10;undefined;undefined;1280 x 720;1600 x 900
H010;21;Vrouwelijk;Rechts;3;83;right;yes;100;undefined;null;true;focus;yes;618314;Chrome;112.0;Windows;10;undefined;undefined;1280 x 720;1600 x 900
H010;21;Vrouwelijk;Rechts;3;84;left;yes;150;leftarrow;369;false;focus;yes;619468;Chrome;112.0;Windows;10;undefined;undefined;1280 x 720;1600 x 900
H010;21;Vrouwelijk;Rechts;3;85;left;no;100;leftarrow;456;true;focus;yes;620702;Chrome;112.0;Windows;10;undefined;undefined;1280 x 720;1600 x 900
H010;21;Vrouwelijk;Rechts;3;86;right;no;100;rightarrow;420;true;focus;yes;621897;Chrome;112.0;Windows;10;undefined;undefined;1280 x 720;1600 x 900
H010;21;Vrouwelijk;Rechts;3;87;left;no;100;leftarrow;341;true;focus;yes;623021;Chrome;112.0;Windows;10;undefined;undefined;1280 x 720;1600 x 900
H010;21;Vrouwelijk;Rechts;3;88;right;no;100;rightarrow;374;true;focus;yes;624172;Chrome;112.0;Windows;10;undefined;undefined;1280 x 720;1600 x 900
H010;21;Vrouwelijk;Rechts;3;89;right;no;100;rightarrow;339;true;focus;yes;625286;Chrome;112.0;Windows;10;undefined;undefined;1280 x 720;1600 x 900
H010;21;Vrouwelijk;Rechts;3;90;left;no;100;leftarrow;592;true;focus;yes;626652;Chrome;112.0;Windows;10;undefined;undefined;1280 x 720;1600 x 900
H010;21;Vrouwelijk;Rechts;3;91;right;yes;100;rightarrow;436;false;focus;yes;627874;Chrome;112.0;Windows;10;undefined;undefined;1280 x 720;1600 x 900
H010;21;Vrouwelijk;Rechts;3;92;left;yes;50;leftarrow;238;false;focus;yes;628887;Chrome;112.0;Windows;10;undefined;undefined;1280 x 720;1600 x 900
H010;21;Vrouwelijk;Rechts;3;93;right;no;50;rightarrow;402;true;focus;yes;630066;Chrome;112.0;Windows;10;undefined;undefined;1280 x 720;1600 x 900
H010;21;Vrouwelijk;Rechts;3;94;left;no;50;leftarrow;388;true;focus;yes;631227;Chrome;112.0;Windows;10;undefined;undefined;1280 x 720;1600 x 900
H010;21;Vrouwelijk;Rechts;3;95;right;no;50;rightarrow;415;true;focus;yes;632420;Chrome;112.0;Windows;10;undefined;undefined;1280 x 720;1600 x 900
H010;21;Vrouwelijk;Rechts;3;96;left;no;50;leftarrow;317;true;focus;yes;633515;Chrome;112.0;Windows;10;undefined;undefined;1280 x 720;1600 x 900
H010;21;Vrouwelijk;Rechts;3;97;left;yes;50;undefined;null;true;focus;yes;635557;Chrome;112.0;Windows;10;undefined;undefined;1280 x 720;1600 x 900
H010;21;Vrouwelijk;Rechts;3;98;right;yes;100;rightarrow;305;false;focus;yes;636635;Chrome;112.0;Windows;10;undefined;undefined;1280 x 720;1600 x 900
H010;21;Vrouwelijk;Rechts;3;99;left;no;50;leftarrow;334;true;focus;yes;637735;Chrome;112.0;Windows;10;undefined;undefined;1280 x 720;1600 x 900
H010;21;Vrouwelijk;Rechts;3;100;left;no;50;leftarrow;415;true;focus;yes;638927;Chrome;112.0;Windows;10;undefined;undefined;1280 x 720;1600 x 900
H010;21;Vrouwelijk;Rechts;3;101;right;no;50;rightarrow;429;true;focus;yes;640135;Chrome;112.0;Windows;10;undefined;undefined;1280 x 720;1600 x 900
H010;21;Vrouwelijk;Rechts;3;102;right;no;50;rightarrow;371;true;focus;yes;641283;Chrome;112.0;Windows;10;undefined;undefined;1280 x 720;1600 x 900
H010;21;Vrouwelijk;Rechts;3;103;left;no;50;leftarrow;427;true;focus;yes;642484;Chrome;112.0;Windows;10;undefined;undefined;1280 x 720;1600 x 900
H010;21;Vrouwelijk;Rechts;3;104;right;no;50;rightarrow;296;true;focus;yes;643566;Chrome;112.0;Windows;10;undefined;undefined;1280 x 720;1600 x 900
H010;21;Vrouwelijk;Rechts;3;105;right;yes;50;undefined;null;true;focus;yes;645606;Chrome;112.0;Windows;10;undefined;undefined;1280 x 720;1600 x 900
H010;21;Vrouwelijk;Rechts;3;106;left;yes;100;leftarrow;354;false;focus;yes;646742;Chrome;112.0;Windows;10;undefined;undefined;1280 x 720;1600 x 900
H010;21;Vrouwelijk;Rechts;3;107;left;no;50;leftarrow;448;true;focus;yes;647978;Chrome;112.0;Windows;10;undefined;undefined;1280 x 720;1600 x 900
H010;21;Vrouwelijk;Rechts;3;108;right;no;50;rightarrow;510;true;focus;yes;649266;Chrome;112.0;Windows;10;undefined;undefined;1280 x 720;1600 x 900
H010;21;Vrouwelijk;Rechts;3;109;right;no;50;rightarrow;367;true;focus;yes;650413;Chrome;112.0;Windows;10;undefined;undefined;1280 x 720;1600 x 900
H010;21;Vrouwelijk;Rechts;3;110;left;no;50;leftarrow;458;true;focus;yes;651637;Chrome;112.0;Windows;10;undefined;undefined;1280 x 720;1600 x 900
H010;21;Vrouwelijk;Rechts;3;111;right;no;50;rightarrow;381;true;focus;yes;652792;Chrome;112.0;Windows;10;undefined;undefined;1280 x 720;1600 x 900
H010;21;Vrouwelijk;Rechts;3;112;left;no;50;leftarrow;347;true;focus;yes;653907;Chrome;112.0;Windows;10;undefined;undefined;1280 x 720;1600 x 900
H010;21;Vrouwelijk;Rechts;3;113;left;no;50;leftarrow;495;true;focus;yes;655174;Chrome;112.0;Windows;10;undefined;undefined;1280 x 720;1600 x 900
H010;21;Vrouwelijk;Rechts;3;114;right;no;50;rightarrow;359;true;focus;yes;656319;Chrome;112.0;Windows;10;undefined;undefined;1280 x 720;1600 x 900
H010;21;Vrouwelijk;Rechts;3;115;right;yes;50;undefined;null;true;focus;yes;658347;Chrome;112.0;Windows;10;undefined;undefined;1280 x 720;1600 x 900
H010;21;Vrouwelijk;Rechts;3;116;right;no;100;rightarrow;401;true;focus;yes;659516;Chrome;112.0;Windows;10;undefined;undefined;1280 x 720;1600 x 900
H010;21;Vrouwelijk;Rechts;3;117;left;yes;100;leftarrow;363;false;focus;yes;660654;Chrome;112.0;Windows;10;undefined;undefined;1280 x 720;1600 x 900
H010;21;Vrouwelijk;Rechts;3;118;right;no;50;rightarrow;307;true;focus;yes;661733;Chrome;112.0;Windows;10;undefined;undefined;1280 x 720;1600 x 900
H010;21;Vrouwelijk;Rechts;3;119;left;no;50;leftarrow;436;true;focus;yes;662957;Chrome;112.0;Windows;10;undefined;undefined;1280 x 720;1600 x 900
H010;21;Vrouwelijk;Rechts;3;120;left;no;50;leftarrow;364;true;focus;yes;664083;Chrome;112.0;Windows;10;undefined;undefined;1280 x 720;1600 x 900
H010;21;Vrouwelijk;Rechts;3;121;right;yes;50;undefined;null;true;focus;yes;666125;Chrome;112.0;Windows;10;undefined;undefined;1280 x 720;1600 x 900
H010;21;Vrouwelijk;Rechts;3;122;left;no;100;leftarrow;282;true;focus;yes;667183;Chrome;112.0;Windows;10;undefined;undefined;1280 x 720;1600 x 900
H010;21;Vrouwelijk;Rechts;3;123;right;no;100;rightarrow;423;true;focus;yes;668368;Chrome;112.0;Windows;10;undefined;undefined;1280 x 720;1600 x 900
H010;21;Vrouwelijk;Rechts;3;124;left;no;100;leftarrow;387;true;focus;yes;669526;Chrome;112.0;Windows;10;undefined;undefined;1280 x 720;1600 x 900
H010;21;Vrouwelijk;Rechts;3;125;right;no;100;rightarrow;254;true;focus;yes;670541;Chrome;112.0;Windows;10;undefined;undefined;1280 x 720;1600 x 900
H010;21;Vrouwelijk;Rechts;3;126;right;no;100;leftarrow;284;false;focus;yes;671590;Chrome;112.0;Windows;10;undefined;undefined;1280 x 720;1600 x 900
H010;21;Vrouwelijk;Rechts;3;127;left;no;100;leftarrow;308;true;focus;yes;672665;Chrome;112.0;Windows;10;undefined;undefined;1280 x 720;1600 x 900
H010;21;Vrouwelijk;Rechts;3;128;left;yes;100;undefined;null;true;focus;yes;674690;Chrome;112.0;Windows;10;undefined;undefined;1280 x 720;1600 x 900
H010;21;Vrouwelijk;Rechts;4;1;right;yes;150;rightarrow;381;false;focus;yes;694524;Chrome;112.0;Windows;10;undefined;undefined;1280 x 720;1600 x 900
H010;21;Vrouwelijk;Rechts;4;2;left;yes;100;leftarrow;319;false;focus;yes;695606;Chrome;112.0;Windows;10;undefined;undefined;1280 x 720;1600 x 900
H010;21;Vrouwelijk;Rechts;4;3;left;no;50;leftarrow;352;true;focus;yes;696738;Chrome;112.0;Windows;10;undefined;undefined;1280 x 720;1600 x 900
H010;21;Vrouwelijk;Rechts;4;4;left;no;50;leftarrow;310;true;focus;yes;697813;Chrome;112.0;Windows;10;undefined;undefined;1280 x 720;1600 x 900
H010;21;Vrouwelijk;Rechts;4;5;right;no;50;rightarrow;384;true;focus;yes;698971;Chrome;112.0;Windows;10;undefined;undefined;1280 x 720;1600 x 900
H010;21;Vrouwelijk;Rechts;4;6;right;no;50;rightarrow;374;true;focus;yes;700121;Chrome;112.0;Windows;10;undefined;undefined;1280 x 720;1600 x 900
H010;21;Vrouwelijk;Rechts;4;7;right;no;50;rightarrow;315;true;focus;yes;701217;Chrome;112.0;Windows;10;undefined;undefined;1280 x 720;1600 x 900
H010;21;Vrouwelijk;Rechts;4;8;left;no;50;leftarrow;448;true;focus;yes;702445;Chrome;112.0;Windows;10;undefined;undefined;1280 x 720;1600 x 900
H010;21;Vrouwelijk;Rechts;4;9;right;no;50;rightarrow;380;true;focus;yes;703600;Chrome;112.0;Windows;10;undefined;undefined;1280 x 720;1600 x 900
H010;21;Vrouwelijk;Rechts;4;10;left;yes;50;undefined;null;true;focus;yes;705639;Chrome;112.0;Windows;10;undefined;undefined;1280 x 720;1600 x 900
H010;21;Vrouwelijk;Rechts;4;11;left;no;100;leftarrow;435;true;focus;yes;706853;Chrome;112.0;Windows;10;undefined;undefined;1280 x 720;1600 x 900
H010;21;Vrouwelijk;Rechts;4;12;right;yes;100;rightarrow;293;false;focus;yes;707914;Chrome;112.0;Windows;10;undefined;undefined;1280 x 720;1600 x 900
H010;21;Vrouwelijk;Rechts;4;13;right;no;50;rightarrow;478;true;focus;yes;709165;Chrome;112.0;Windows;10;undefined;undefined;1280 x 720;1600 x 900
H010;21;Vrouwelijk;Rechts;4;14;left;no;50;leftarrow;400;true;focus;yes;710361;Chrome;112.0;Windows;10;undefined;undefined;1280 x 720;1600 x 900
H010;21;Vrouwelijk;Rechts;4;15;right;no;50;rightarrow;355;true;focus;yes;711492;Chrome;112.0;Windows;10;undefined;undefined;1280 x 720;1600 x 900
H010;21;Vrouwelijk;Rechts;4;16;left;no;50;leftarrow;299;true;focus;yes;712563;Chrome;112.0;Windows;10;undefined;undefined;1280 x 720;1600 x 900
H010;21;Vrouwelijk;Rechts;4;17;left;yes;50;undefined;null;true;focus;yes;714603;Chrome;112.0;Windows;10;undefined;undefined;1280 x 720;1600 x 900
H010;21;Vrouwelijk;Rechts;4;18;left;no;100;rightarrow;268;false;focus;yes;715637;Chrome;112.0;Windows;10;undefined;undefined;1280 x 720;1600 x 900
H010;21;Vrouwelijk;Rechts;4;19;right;no;100;rightarrow;324;true;focus;yes;716726;Chrome;112.0;Windows;10;undefined;undefined;1280 x 720;1600 x 900
H010;21;Vrouwelijk;Rechts;4;20;right;no;100;rightarrow;323;true;focus;yes;717822;Chrome;112.0;Windows;10;undefined;undefined;1280 x 720;1600 x 900
H010;21;Vrouwelijk;Rechts;4;21;left;no;100;leftarrow;424;true;focus;yes;719023;Chrome;112.0;Windows;10;undefined;undefined;1280 x 720;1600 x 900
H010;21;Vrouwelijk;Rechts;4;22;left;no;100;leftarrow;354;true;focus;yes;720157;Chrome;112.0;Windows;10;undefined;undefined;1280 x 720;1600 x 900
H010;21;Vrouwelijk;Rechts;4;23;right;yes;100;undefined;null;true;focus;yes;722192;Chrome;112.0;Windows;10;undefined;undefined;1280 x 720;1600 x 900
H010;21;Vrouwelijk;Rechts;4;24;right;no;150;rightarrow;567;true;focus;yes;723537;Chrome;112.0;Windows;10;undefined;undefined;1280 x 720;1600 x 900
H010;21;Vrouwelijk;Rechts;4;25;left;no;150;leftarrow;317;true;focus;yes;724622;Chrome;112.0;Windows;10;undefined;undefined;1280 x 720;1600 x 900
H010;21;Vrouwelijk;Rechts;4;26;right;yes;150;rightarrow;335;false;focus;yes;725723;Chrome;112.0;Windows;10;undefined;undefined;1280 x 720;1600 x 900
H010;21;Vrouwelijk;Rechts;4;27;left;no;100;leftarrow;326;true;focus;yes;726824;Chrome;112.0;Windows;10;undefined;undefined;1280 x 720;1600 x 900
H010;21;Vrouwelijk;Rechts;4;28;right;no;100;rightarrow;419;true;focus;yes;728030;Chrome;112.0;Windows;10;undefined;undefined;1280 x 720;1600 x 900
H010;21;Vrouwelijk;Rechts;4;29;right;no;100;rightarrow;371;true;focus;yes;729179;Chrome;112.0;Windows;10;undefined;undefined;1280 x 720;1600 x 900
H010;21;Vrouwelijk;Rechts;4;30;left;yes;100;undefined;null;true;focus;yes;731197;Chrome;112.0;Windows;10;undefined;undefined;1280 x 720;1600 x 900
H010;21;Vrouwelijk;Rechts;4;31;left;no;150;rightarrow;280;false;focus;yes;732248;Chrome;112.0;Windows;10;undefined;undefined;1280 x 720;1600 x 900
H010;21;Vrouwelijk;Rechts;4;32;right;no;150;rightarrow;411;true;focus;yes;733431;Chrome;112.0;Windows;10;undefined;undefined;1280 x 720;1600 x 900
H010;21;Vrouwelijk;Rechts;4;33;left;no;150;leftarrow;417;true;focus;yes;734635;Chrome;112.0;Windows;10;undefined;undefined;1280 x 720;1600 x 900
H010;21;Vrouwelijk;Rechts;4;34;left;yes;150;undefined;null;true;focus;yes;736673;Chrome;112.0;Windows;10;undefined;undefined;1280 x 720;1600 x 900
H010;21;Vrouwelijk;Rechts;4;35;right;no;200;rightarrow;272;true;focus;yes;737727;Chrome;112.0;Windows;10;undefined;undefined;1280 x 720;1600 x 900
H010;21;Vrouwelijk;Rechts;4;36;right;no;200;rightarrow;342;true;focus;yes;738844;Chrome;112.0;Windows;10;undefined;undefined;1280 x 720;1600 x 900
H010;21;Vrouwelijk;Rechts;4;37;right;no;200;rightarrow;539;true;focus;yes;740165;Chrome;112.0;Windows;10;undefined;undefined;1280 x 720;1600 x 900
H010;21;Vrouwelijk;Rechts;4;38;right;yes;200;rightarrow;403;false;focus;yes;741338;Chrome;112.0;Windows;10;undefined;undefined;1280 x 720;1600 x 900
H010;21;Vrouwelijk;Rechts;4;39;left;no;150;leftarrow;779;true;focus;yes;742895;Chrome;112.0;Windows;10;undefined;undefined;1280 x 720;1600 x 900
H010;21;Vrouwelijk;Rechts;4;40;left;no;150;leftarrow;352;true;focus;yes;744034;Chrome;112.0;Windows;10;undefined;undefined;1280 x 720;1600 x 900
H010;21;Vrouwelijk;Rechts;4;41;right;no;150;rightarrow;408;true;focus;yes;745209;Chrome;112.0;Windows;10;undefined;undefined;1280 x 720;1600 x 900
H010;21;Vrouwelijk;Rechts;4;42;left;no;150;leftarrow;337;true;focus;yes;746321;Chrome;112.0;Windows;10;undefined;undefined;1280 x 720;1600 x 900
H010;21;Vrouwelijk;Rechts;4;43;left;no;150;leftarrow;343;true;focus;yes;747444;Chrome;112.0;Windows;10;undefined;undefined;1280 x 720;1600 x 900
H010;21;Vrouwelijk;Rechts;4;44;right;no;150;rightarrow;461;true;focus;yes;748679;Chrome;112.0;Windows;10;undefined;undefined;1280 x 720;1600 x 900
H010;21;Vrouwelijk;Rechts;4;45;right;no;150;rightarrow;352;true;focus;yes;749793;Chrome;112.0;Windows;10;undefined;undefined;1280 x 720;1600 x 900
H010;21;Vrouwelijk;Rechts;4;46;left;no;150;leftarrow;408;true;focus;yes;750972;Chrome;112.0;Windows;10;undefined;undefined;1280 x 720;1600 x 900
H010;21;Vrouwelijk;Rechts;4;47;left;yes;150;leftarrow;346;false;focus;yes;752091;Chrome;112.0;Windows;10;undefined;undefined;1280 x 720;1600 x 900
H010;21;Vrouwelijk;Rechts;4;48;right;yes;100;rightarrow;263;false;focus;yes;753122;Chrome;112.0;Windows;10;undefined;undefined;1280 x 720;1600 x 900
H010;21;Vrouwelijk;Rechts;4;49;left;no;50;leftarrow;367;true;focus;yes;754261;Chrome;112.0;Windows;10;undefined;undefined;1280 x 720;1600 x 900
H010;21;Vrouwelijk;Rechts;4;50;left;no;50;leftarrow;534;true;focus;yes;755584;Chrome;112.0;Windows;10;undefined;undefined;1280 x 720;1600 x 900
H010;21;Vrouwelijk;Rechts;4;51;right;yes;50;rightarrow;395;false;focus;yes;756754;Chrome;112.0;Windows;10;undefined;undefined;1280 x 720;1600 x 900
H010;21;Vrouwelijk;Rechts;4;52;right;no;50;rightarrow;396;true;focus;yes;757927;Chrome;112.0;Windows;10;undefined;undefined;1280 x 720;1600 x 900
H010;21;Vrouwelijk;Rechts;4;53;right;no;50;rightarrow;358;true;focus;yes;759066;Chrome;112.0;Windows;10;undefined;undefined;1280 x 720;1600 x 900
H010;21;Vrouwelijk;Rechts;4;54;left;no;50;leftarrow;502;true;focus;yes;760349;Chrome;112.0;Windows;10;undefined;undefined;1280 x 720;1600 x 900
H010;21;Vrouwelijk;Rechts;4;55;right;no;50;rightarrow;469;true;focus;yes;761600;Chrome;112.0;Windows;10;undefined;undefined;1280 x 720;1600 x 900
H010;21;Vrouwelijk;Rechts;4;56;left;yes;50;undefined;null;true;focus;yes;763623;Chrome;112.0;Windows;10;undefined;undefined;1280 x 720;1600 x 900
H010;21;Vrouwelijk;Rechts;4;57;left;yes;100;undefined;null;true;focus;yes;765645;Chrome;112.0;Windows;10;undefined;undefined;1280 x 720;1600 x 900
H010;21;Vrouwelijk;Rechts;4;58;right;no;150;rightarrow;489;true;focus;yes;766914;Chrome;112.0;Windows;10;undefined;undefined;1280 x 720;1600 x 900
H010;21;Vrouwelijk;Rechts;4;59;right;yes;150;undefined;null;true;focus;yes;768946;Chrome;112.0;Windows;10;undefined;undefined;1280 x 720;1600 x 900
H010;21;Vrouwelijk;Rechts;4;60;left;no;200;leftarrow;378;true;focus;yes;770092;Chrome;112.0;Windows;10;undefined;undefined;1280 x 720;1600 x 900
H010;21;Vrouwelijk;Rechts;4;61;left;no;200;leftarrow;404;true;focus;yes;771275;Chrome;112.0;Windows;10;undefined;undefined;1280 x 720;1600 x 900
H010;21;Vrouwelijk;Rechts;4;62;left;no;200;leftarrow;346;true;focus;yes;772410;Chrome;112.0;Windows;10;undefined;undefined;1280 x 720;1600 x 900
H010;21;Vrouwelijk;Rechts;4;63;right;no;200;rightarrow;405;true;focus;yes;773584;Chrome;112.0;Windows;10;undefined;undefined;1280 x 720;1600 x 900
H010;21;Vrouwelijk;Rechts;4;64;right;no;200;rightarrow;345;true;focus;yes;774708;Chrome;112.0;Windows;10;undefined;undefined;1280 x 720;1600 x 900
H010;21;Vrouwelijk;Rechts;4;65;right;no;200;rightarrow;426;true;focus;yes;775916;Chrome;112.0;Windows;10;undefined;undefined;1280 x 720;1600 x 900
H010;21;Vrouwelijk;Rechts;4;66;right;no;200;rightarrow;376;true;focus;yes;777073;Chrome;112.0;Windows;10;undefined;undefined;1280 x 720;1600 x 900
H010;21;Vrouwelijk;Rechts;4;67;left;no;200;leftarrow;526;true;focus;yes;778366;Chrome;112.0;Windows;10;undefined;undefined;1280 x 720;1600 x 900
H010;21;Vrouwelijk;Rechts;4;68;right;no;200;rightarrow;273;true;focus;yes;779413;Chrome;112.0;Windows;10;undefined;undefined;1280 x 720;1600 x 900
H010;21;Vrouwelijk;Rechts;4;69;right;yes;200;rightarrow;426;false;focus;yes;780614;Chrome;112.0;Windows;10;undefined;undefined;1280 x 720;1600 x 900
H010;21;Vrouwelijk;Rechts;4;70;left;yes;150;leftarrow;347;false;focus;yes;781727;Chrome;112.0;Windows;10;undefined;undefined;1280 x 720;1600 x 900
H010;21;Vrouwelijk;Rechts;4;71;left;no;100;leftarrow;542;true;focus;yes;783053;Chrome;112.0;Windows;10;undefined;undefined;1280 x 720;1600 x 900
H010;21;Vrouwelijk;Rechts;4;72;left;no;100;leftarrow;351;true;focus;yes;784184;Chrome;112.0;Windows;10;undefined;undefined;1280 x 720;1600 x 900
H010;21;Vrouwelijk;Rechts;4;73;left;no;100;leftarrow;377;true;focus;yes;785346;Chrome;112.0;Windows;10;undefined;undefined;1280 x 720;1600 x 900
H010;21;Vrouwelijk;Rechts;4;74;left;no;100;leftarrow;386;true;focus;yes;786509;Chrome;112.0;Windows;10;undefined;undefined;1280 x 720;1600 x 900
H010;21;Vrouwelijk;Rechts;4;75;left;no;100;leftarrow;288;true;focus;yes;787577;Chrome;112.0;Windows;10;undefined;undefined;1280 x 720;1600 x 900
H010;21;Vrouwelijk;Rechts;4;76;left;yes;100;leftarrow;327;false;focus;yes;788675;Chrome;112.0;Windows;10;undefined;undefined;1280 x 720;1600 x 900
H010;21;Vrouwelijk;Rechts;4;77;right;no;50;rightarrow;325;true;focus;yes;789780;Chrome;112.0;Windows;10;undefined;undefined;1280 x 720;1600 x 900
H010;21;Vrouwelijk;Rechts;4;78;right;no;50;rightarrow;374;true;focus;yes;790933;Chrome;112.0;Windows;10;undefined;undefined;1280 x 720;1600 x 900
H010;21;Vrouwelijk;Rechts;4;79;right;yes;50;undefined;null;true;focus;yes;792963;Chrome;112.0;Windows;10;undefined;undefined;1280 x 720;1600 x 900
H010;21;Vrouwelijk;Rechts;4;80;right;no;100;rightarrow;332;true;focus;yes;794070;Chrome;112.0;Windows;10;undefined;undefined;1280 x 720;1600 x 900
H010;21;Vrouwelijk;Rechts;4;81;left;no;100;leftarrow;800;true;focus;yes;795644;Chrome;112.0;Windows;10;undefined;undefined;1280 x 720;1600 x 900
H010;21;Vrouwelijk;Rechts;4;82;left;no;100;leftarrow;433;true;focus;yes;796854;Chrome;112.0;Windows;10;undefined;undefined;1280 x 720;1600 x 900
H010;21;Vrouwelijk;Rechts;4;83;right;yes;100;undefined;null;true;focus;yes;798883;Chrome;112.0;Windows;10;undefined;undefined;1280 x 720;1600 x 900
H010;21;Vrouwelijk;Rechts;4;84;left;no;150;leftarrow;394;true;focus;yes;800051;Chrome;112.0;Windows;10;undefined;undefined;1280 x 720;1600 x 900
H010;21;Vrouwelijk;Rechts;4;85;right;no;150;rightarrow;471;true;focus;yes;801291;Chrome;112.0;Windows;10;undefined;undefined;1280 x 720;1600 x 900
H010;21;Vrouwelijk;Rechts;4;86;left;yes;150;leftarrow;311;false;focus;yes;802374;Chrome;112.0;Windows;10;undefined;undefined;1280 x 720;1600 x 900
H010;21;Vrouwelijk;Rechts;4;87;right;no;100;rightarrow;298;true;focus;yes;803457;Chrome;112.0;Windows;10;undefined;undefined;1280 x 720;1600 x 900
H010;21;Vrouwelijk;Rechts;4;88;right;no;100;rightarrow;425;true;focus;yes;804647;Chrome;112.0;Windows;10;undefined;undefined;1280 x 720;1600 x 900
H010;21;Vrouwelijk;Rechts;4;89;right;yes;100;undefined;null;true;focus;yes;806686;Chrome;112.0;Windows;10;undefined;undefined;1280 x 720;1600 x 900
H010;21;Vrouwelijk;Rechts;4;90;left;no;150;leftarrow;474;true;focus;yes;807924;Chrome;112.0;Windows;10;undefined;undefined;1280 x 720;1600 x 900
H010;21;Vrouwelijk;Rechts;4;91;right;no;150;rightarrow;357;true;focus;yes;809060;Chrome;112.0;Windows;10;undefined;undefined;1280 x 720;1600 x 900
H010;21;Vrouwelijk;Rechts;4;92;right;no;150;rightarrow;444;true;focus;yes;810269;Chrome;112.0;Windows;10;undefined;undefined;1280 x 720;1600 x 900
H010;21;Vrouwelijk;Rechts;4;93;right;no;150;rightarrow;1039;true;focus;yes;812082;Chrome;112.0;Windows;10;undefined;undefined;1280 x 720;1600 x 900
H010;21;Vrouwelijk;Rechts;4;94;left;yes;150;undefined;null;true;focus;yes;814120;Chrome;112.0;Windows;10;undefined;undefined;1280 x 720;1600 x 900
H010;21;Vrouwelijk;Rechts;4;95;left;no;200;leftarrow;463;true;focus;yes;815364;Chrome;112.0;Windows;10;undefined;undefined;1280 x 720;1600 x 900
H010;21;Vrouwelijk;Rechts;4;96;left;no;200;leftarrow;758;true;focus;yes;816900;Chrome;112.0;Windows;10;undefined;undefined;1280 x 720;1600 x 900
H010;21;Vrouwelijk;Rechts;4;97;right;yes;200;rightarrow;420;false;focus;yes;818097;Chrome;112.0;Windows;10;undefined;undefined;1280 x 720;1600 x 900
H010;21;Vrouwelijk;Rechts;4;98;left;no;150;leftarrow;298;true;focus;yes;819164;Chrome;112.0;Windows;10;undefined;undefined;1280 x 720;1600 x 900
H010;21;Vrouwelijk;Rechts;4;99;right;no;150;rightarrow;369;true;focus;yes;820293;Chrome;112.0;Windows;10;undefined;undefined;1280 x 720;1600 x 900
H010;21;Vrouwelijk;Rechts;4;100;left;no;150;leftarrow;412;true;focus;yes;821483;Chrome;112.0;Windows;10;undefined;undefined;1280 x 720;1600 x 900
H010;21;Vrouwelijk;Rechts;4;101;left;no;150;leftarrow;512;true;focus;yes;822761;Chrome;112.0;Windows;10;undefined;undefined;1280 x 720;1600 x 900
H010;21;Vrouwelijk;Rechts;4;102;right;no;150;rightarrow;431;true;focus;yes;823964;Chrome;112.0;Windows;10;undefined;undefined;1280 x 720;1600 x 900
H010;21;Vrouwelijk;Rechts;4;103;right;no;150;rightarrow;340;true;focus;yes;825073;Chrome;112.0;Windows;10;undefined;undefined;1280 x 720;1600 x 900
H010;21;Vrouwelijk;Rechts;4;104;left;yes;150;leftarrow;640;false;focus;yes;826476;Chrome;112.0;Windows;10;undefined;undefined;1280 x 720;1600 x 900
H010;21;Vrouwelijk;Rechts;4;105;right;no;100;rightarrow;276;true;focus;yes;827530;Chrome;112.0;Windows;10;undefined;undefined;1280 x 720;1600 x 900
H010;21;Vrouwelijk;Rechts;4;106;left;no;100;leftarrow;473;true;focus;yes;828779;Chrome;112.0;Windows;10;undefined;undefined;1280 x 720;1600 x 900
H010;21;Vrouwelijk;Rechts;4;107;left;yes;100;rightarrow;363;false;focus;yes;829919;Chrome;112.0;Windows;10;undefined;undefined;1280 x 720;1600 x 900
H010;21;Vrouwelijk;Rechts;4;108;right;yes;50;rightarrow;457;false;focus;yes;831146;Chrome;112.0;Windows;10;undefined;undefined;1280 x 720;1600 x 900
H010;21;Vrouwelijk;Rechts;4;109;left;no;50;leftarrow;347;true;focus;yes;832260;Chrome;112.0;Windows;10;undefined;undefined;1280 x 720;1600 x 900
H010;21;Vrouwelijk;Rechts;4;110;right;no;50;rightarrow;369;true;focus;yes;833402;Chrome;112.0;Windows;10;undefined;undefined;1280 x 720;1600 x 900
H010;21;Vrouwelijk;Rechts;4;111;left;no;50;leftarrow;322;true;focus;yes;834507;Chrome;112.0;Windows;10;undefined;undefined;1280 x 720;1600 x 900
H010;21;Vrouwelijk;Rechts;4;112;right;no;50;rightarrow;375;true;focus;yes;835666;Chrome;112.0;Windows;10;undefined;undefined;1280 x 720;1600 x 900
H010;21;Vrouwelijk;Rechts;4;113;right;no;50;leftarrow;355;false;focus;yes;836801;Chrome;112.0;Windows;10;undefined;undefined;1280 x 720;1600 x 900
H010;21;Vrouwelijk;Rechts;4;114;right;no;50;rightarrow;504;true;focus;yes;838086;Chrome;112.0;Windows;10;undefined;undefined;1280 x 720;1600 x 900
H010;21;Vrouwelijk;Rechts;4;115;right;no;50;rightarrow;381;true;focus;yes;839247;Chrome;112.0;Windows;10;undefined;undefined;1280 x 720;1600 x 900
H010;21;Vrouwelijk;Rechts;4;116;left;yes;50;undefined;null;true;focus;yes;841284;Chrome;112.0;Windows;10;undefined;undefined;1280 x 720;1600 x 900
H010;21;Vrouwelijk;Rechts;4;117;right;yes;100;undefined;null;true;focus;yes;843332;Chrome;112.0;Windows;10;undefined;undefined;1280 x 720;1600 x 900
H010;21;Vrouwelijk;Rechts;4;118;left;no;150;leftarrow;395;true;focus;yes;844500;Chrome;112.0;Windows;10;undefined;undefined;1280 x 720;1600 x 900
H010;21;Vrouwelijk;Rechts;4;119;left;no;150;leftarrow;454;true;focus;yes;845723;Chrome;112.0;Windows;10;undefined;undefined;1280 x 720;1600 x 900
H010;21;Vrouwelijk;Rechts;4;120;left;no;150;leftarrow;389;true;focus;yes;846890;Chrome;112.0;Windows;10;undefined;undefined;1280 x 720;1600 x 900
H010;21;Vrouwelijk;Rechts;4;121;left;no;150;leftarrow;702;true;focus;yes;848373;Chrome;112.0;Windows;10;undefined;undefined;1280 x 720;1600 x 900
H010;21;Vrouwelijk;Rechts;4;122;right;no;150;rightarrow;436;true;focus;yes;849575;Chrome;112.0;Windows;10;undefined;undefined;1280 x 720;1600 x 900
H010;21;Vrouwelijk;Rechts;4;123;right;yes;150;rightarrow;421;false;focus;yes;850773;Chrome;112.0;Windows;10;undefined;undefined;1280 x 720;1600 x 900
H010;21;Vrouwelijk;Rechts;4;124;left;no;100;leftarrow;317;true;focus;yes;851872;Chrome;112.0;Windows;10;undefined;undefined;1280 x 720;1600 x 900
H010;21;Vrouwelijk;Rechts;4;125;left;yes;100;leftarrow;406;false;focus;yes;853059;Chrome;112.0;Windows;10;undefined;undefined;1280 x 720;1600 x 900
H010;21;Vrouwelijk;Rechts;4;126;right;no;50;rightarrow;381;true;focus;yes;854223;Chrome;112.0;Windows;10;undefined;undefined;1280 x 720;1600 x 900
H010;21;Vrouwelijk;Rechts;4;127;right;no;50;rightarrow;350;true;focus;yes;855355;Chrome;112.0;Windows;10;undefined;undefined;1280 x 720;1600 x 900
H010;21;Vrouwelijk;Rechts;4;128;left;no;50;leftarrow;569;true;focus;yes;856689;Chrome;112.0;Windows;10;undefined;undefined;1280 x 720;1600 x 900
H010;21;Vrouwelijk;Rechts;5;1;right;no;50;rightarrow;405;true;focus;yes;876576;Chrome;112.0;Windows;10;undefined;undefined;1280 x 720;1600 x 900
H010;21;Vrouwelijk;Rechts;5;2;left;yes;50;undefined;null;true;focus;yes;878600;Chrome;112.0;Windows;10;undefined;undefined;1280 x 720;1600 x 900
H010;21;Vrouwelijk;Rechts;5;3;left;no;100;leftarrow;400;true;focus;yes;879781;Chrome;112.0;Windows;10;undefined;undefined;1280 x 720;1600 x 900
H010;21;Vrouwelijk;Rechts;5;4;left;no;100;leftarrow;389;true;focus;yes;880941;Chrome;112.0;Windows;10;undefined;undefined;1280 x 720;1600 x 900
H010;21;Vrouwelijk;Rechts;5;5;right;no;100;rightarrow;355;true;focus;yes;882069;Chrome;112.0;Windows;10;undefined;undefined;1280 x 720;1600 x 900
H010;21;Vrouwelijk;Rechts;5;6;left;no;100;leftarrow;491;true;focus;yes;883334;Chrome;112.0;Windows;10;undefined;undefined;1280 x 720;1600 x 900
H010;21;Vrouwelijk;Rechts;5;7;right;no;100;rightarrow;434;true;focus;yes;884536;Chrome;112.0;Windows;10;undefined;undefined;1280 x 720;1600 x 900
H010;21;Vrouwelijk;Rechts;5;8;right;yes;100;undefined;null;true;focus;yes;886582;Chrome;112.0;Windows;10;undefined;undefined;1280 x 720;1600 x 900
H010;21;Vrouwelijk;Rechts;5;9;left;no;150;leftarrow;295;true;focus;yes;887644;Chrome;112.0;Windows;10;undefined;undefined;1280 x 720;1600 x 900
H010;21;Vrouwelijk;Rechts;5;10;right;no;150;rightarrow;425;true;focus;yes;888857;Chrome;112.0;Windows;10;undefined;undefined;1280 x 720;1600 x 900
H010;21;Vrouwelijk;Rechts;5;11;left;no;150;leftarrow;478;true;focus;yes;890112;Chrome;112.0;Windows;10;undefined;undefined;1280 x 720;1600 x 900
H010;21;Vrouwelijk;Rechts;5;12;left;no;150;leftarrow;411;true;focus;yes;891298;Chrome;112.0;Windows;10;undefined;undefined;1280 x 720;1600 x 900
H010;21;Vrouwelijk;Rechts;5;13;right;yes;150;rightarrow;367;false;focus;yes;892440;Chrome;112.0;Windows;10;undefined;undefined;1280 x 720;1600 x 900
H010;21;Vrouwelijk;Rechts;5;14;left;yes;100;leftarrow;307;false;focus;yes;893517;Chrome;112.0;Windows;10;undefined;undefined;1280 x 720;1600 x 900
H010;21;Vrouwelijk;Rechts;5;15;right;no;50;rightarrow;371;true;focus;yes;894665;Chrome;112.0;Windows;10;undefined;undefined;1280 x 720;1600 x 900
H010;21;Vrouwelijk;Rechts;5;16;right;no;50;leftarrow;328;false;focus;yes;895769;Chrome;112.0;Windows;10;undefined;undefined;1280 x 720;1600 x 900
H010;21;Vrouwelijk;Rechts;5;17;left;no;50;leftarrow;577;true;focus;yes;897110;Chrome;112.0;Windows;10;undefined;undefined;1280 x 720;1600 x 900
H010;21;Vrouwelijk;Rechts;5;18;right;no;50;rightarrow;488;true;focus;yes;898384;Chrome;112.0;Windows;10;undefined;undefined;1280 x 720;1600 x 900
H010;21;Vrouwelijk;Rechts;5;19;right;yes;50;undefined;null;true;focus;yes;900421;Chrome;112.0;Windows;10;undefined;undefined;1280 x 720;1600 x 900
H010;21;Vrouwelijk;Rechts;5;20;left;no;100;leftarrow;335;true;focus;yes;901526;Chrome;112.0;Windows;10;undefined;undefined;1280 x 720;1600 x 900
H010;21;Vrouwelijk;Rechts;5;21;right;no;100;rightarrow;453;true;focus;yes;902751;Chrome;112.0;Windows;10;undefined;undefined;1280 x 720;1600 x 900
H010;21;Vrouwelijk;Rechts;5;22;left;yes;100;undefined;null;true;focus;yes;904772;Chrome;112.0;Windows;10;undefined;undefined;1280 x 720;1600 x 900
H010;21;Vrouwelijk;Rechts;5;23;right;no;150;rightarrow;370;true;focus;yes;905916;Chrome;112.0;Windows;10;undefined;undefined;1280 x 720;1600 x 900
H010;21;Vrouwelijk;Rechts;5;24;left;no;150;leftarrow;351;true;focus;yes;907047;Chrome;112.0;Windows;10;undefined;undefined;1280 x 720;1600 x 900
H010;21;Vrouwelijk;Rechts;5;25;left;yes;150;undefined;null;true;focus;yes;909087;Chrome;112.0;Windows;10;undefined;undefined;1280 x 720;1600 x 900
H010;21;Vrouwelijk;Rechts;5;26;right;no;200;rightarrow;307;true;focus;yes;910169;Chrome;112.0;Windows;10;undefined;undefined;1280 x 720;1600 x 900
H010;21;Vrouwelijk;Rechts;5;27;right;yes;200;rightarrow;324;false;focus;yes;911270;Chrome;112.0;Windows;10;undefined;undefined;1280 x 720;1600 x 900
H010;21;Vrouwelijk;Rechts;5;28;right;no;150;rightarrow;487;true;focus;yes;912534;Chrome;112.0;Windows;10;undefined;undefined;1280 x 720;1600 x 900
H010;21;Vrouwelijk;Rechts;5;29;left;no;150;leftarrow;348;true;focus;yes;913660;Chrome;112.0;Windows;10;undefined;undefined;1280 x 720;1600 x 900
H010;21;Vrouwelijk;Rechts;5;30;left;no;150;leftarrow;353;true;focus;yes;914786;Chrome;112.0;Windows;10;undefined;undefined;1280 x 720;1600 x 900
H010;21;Vrouwelijk;Rechts;5;31;left;no;150;leftarrow;360;true;focus;yes;915920;Chrome;112.0;Windows;10;undefined;undefined;1280 x 720;1600 x 900
H010;21;Vrouwelijk;Rechts;5;32;right;no;150;rightarrow;329;true;focus;yes;917042;Chrome;112.0;Windows;10;undefined;undefined;1280 x 720;1600 x 900
H010;21;Vrouwelijk;Rechts;5;33;right;no;150;rightarrow;443;true;focus;yes;918263;Chrome;112.0;Windows;10;undefined;undefined;1280 x 720;1600 x 900
H010;21;Vrouwelijk;Rechts;5;34;left;no;150;leftarrow;428;true;focus;yes;919453;Chrome;112.0;Windows;10;undefined;undefined;1280 x 720;1600 x 900
H010;21;Vrouwelijk;Rechts;5;35;left;no;150;leftarrow;364;true;focus;yes;920584;Chrome;112.0;Windows;10;undefined;undefined;1280 x 720;1600 x 900
H010;21;Vrouwelijk;Rechts;5;36;left;yes;150;undefined;null;true;focus;yes;922625;Chrome;112.0;Windows;10;undefined;undefined;1280 x 720;1600 x 900
H010;21;Vrouwelijk;Rechts;5;37;right;no;200;rightarrow;328;true;focus;yes;923729;Chrome;112.0;Windows;10;undefined;undefined;1280 x 720;1600 x 900
H010;21;Vrouwelijk;Rechts;5;38;right;yes;200;rightarrow;357;false;focus;yes;924860;Chrome;112.0;Windows;10;undefined;undefined;1280 x 720;1600 x 900
H010;21;Vrouwelijk;Rechts;5;39;left;no;150;leftarrow;316;true;focus;yes;925941;Chrome;112.0;Windows;10;undefined;undefined;1280 x 720;1600 x 900
H010;21;Vrouwelijk;Rechts;5;40;right;no;150;rightarrow;322;true;focus;yes;927035;Chrome;112.0;Windows;10;undefined;undefined;1280 x 720;1600 x 900
H010;21;Vrouwelijk;Rechts;5;41;left;no;150;leftarrow;308;true;focus;yes;928112;Chrome;112.0;Windows;10;undefined;undefined;1280 x 720;1600 x 900
H010;21;Vrouwelijk;Rechts;5;42;right;no;150;rightarrow;353;true;focus;yes;929239;Chrome;112.0;Windows;10;undefined;undefined;1280 x 720;1600 x 900
H010;21;Vrouwelijk;Rechts;5;43;left;no;150;leftarrow;404;true;focus;yes;930423;Chrome;112.0;Windows;10;undefined;undefined;1280 x 720;1600 x 900
H010;21;Vrouwelijk;Rechts;5;44;right;no;150;rightarrow;375;true;focus;yes;931586;Chrome;112.0;Windows;10;undefined;undefined;1280 x 720;1600 x 900
H010;21;Vrouwelijk;Rechts;5;45;left;yes;150;leftarrow;376;false;focus;yes;932728;Chrome;112.0;Windows;10;undefined;undefined;1280 x 720;1600 x 900
H010;21;Vrouwelijk;Rechts;5;46;right;no;100;rightarrow;303;true;focus;yes;933807;Chrome;112.0;Windows;10;undefined;undefined;1280 x 720;1600 x 900
H010;21;Vrouwelijk;Rechts;5;47;left;no;100;leftarrow;371;true;focus;yes;934959;Chrome;112.0;Windows;10;undefined;undefined;1280 x 720;1600 x 900
H010;21;Vrouwelijk;Rechts;5;48;right;yes;100;undefined;null;true;focus;yes;937003;Chrome;112.0;Windows;10;undefined;undefined;1280 x 720;1600 x 900
H010;21;Vrouwelijk;Rechts;5;49;right;no;150;rightarrow;365;true;focus;yes;938135;Chrome;112.0;Windows;10;undefined;undefined;1280 x 720;1600 x 900
H010;21;Vrouwelijk;Rechts;5;50;left;yes;150;leftarrow;423;false;focus;yes;939333;Chrome;112.0;Windows;10;undefined;undefined;1280 x 720;1600 x 900
H010;21;Vrouwelijk;Rechts;5;51;left;no;100;leftarrow;322;true;focus;yes;940429;Chrome;112.0;Windows;10;undefined;undefined;1280 x 720;1600 x 900
H010;21;Vrouwelijk;Rechts;5;52;right;no;100;rightarrow;400;true;focus;yes;941602;Chrome;112.0;Windows;10;undefined;undefined;1280 x 720;1600 x 900
H010;21;Vrouwelijk;Rechts;5;53;right;no;100;rightarrow;379;true;focus;yes;942755;Chrome;112.0;Windows;10;undefined;undefined;1280 x 720;1600 x 900
H010;21;Vrouwelijk;Rechts;5;54;left;no;100;leftarrow;479;true;focus;yes;944015;Chrome;112.0;Windows;10;undefined;undefined;1280 x 720;1600 x 900
H010;21;Vrouwelijk;Rechts;5;55;right;yes;100;rightarrow;369;false;focus;yes;945155;Chrome;112.0;Windows;10;undefined;undefined;1280 x 720;1600 x 900
H010;21;Vrouwelijk;Rechts;5;56;left;no;50;leftarrow;374;true;focus;yes;946302;Chrome;112.0;Windows;10;undefined;undefined;1280 x 720;1600 x 900
H010;21;Vrouwelijk;Rechts;5;57;left;yes;50;undefined;null;true;focus;yes;948341;Chrome;112.0;Windows;10;undefined;undefined;1280 x 720;1600 x 900
H010;21;Vrouwelijk;Rechts;5;58;right;yes;100;rightarrow;332;false;focus;yes;949439;Chrome;112.0;Windows;10;undefined;undefined;1280 x 720;1600 x 900
H010;21;Vrouwelijk;Rechts;5;59;left;no;50;leftarrow;370;true;focus;yes;950572;Chrome;112.0;Windows;10;undefined;undefined;1280 x 720;1600 x 900
H010;21;Vrouwelijk;Rechts;5;60;left;no;50;leftarrow;416;true;focus;yes;951774;Chrome;112.0;Windows;10;undefined;undefined;1280 x 720;1600 x 900
H010;21;Vrouwelijk;Rechts;5;61;right;no;50;rightarrow;355;true;focus;yes;952913;Chrome;112.0;Windows;10;undefined;undefined;1280 x 720;1600 x 900
H010;21;Vrouwelijk;Rechts;5;62;right;no;50;rightarrow;390;true;focus;yes;954075;Chrome;112.0;Windows;10;undefined;undefined;1280 x 720;1600 x 900
H010;21;Vrouwelijk;Rechts;5;63;left;no;50;leftarrow;430;true;focus;yes;955295;Chrome;112.0;Windows;10;undefined;undefined;1280 x 720;1600 x 900
H010;21;Vrouwelijk;Rechts;5;64;right;no;50;rightarrow;372;true;focus;yes;956443;Chrome;112.0;Windows;10;undefined;undefined;1280 x 720;1600 x 900
H010;21;Vrouwelijk;Rechts;5;65;left;no;50;leftarrow;546;true;focus;yes;957762;Chrome;112.0;Windows;10;undefined;undefined;1280 x 720;1600 x 900
H010;21;Vrouwelijk;Rechts;5;66;right;no;50;rightarrow;465;true;focus;yes;959005;Chrome;112.0;Windows;10;undefined;undefined;1280 x 720;1600 x 900
H010;21;Vrouwelijk;Rechts;5;67;left;no;50;leftarrow;337;true;focus;yes;960111;Chrome;112.0;Windows;10;undefined;undefined;1280 x 720;1600 x 900
H010;21;Vrouwelijk;Rechts;5;68;right;yes;50;undefined;null;true;focus;yes;962136;Chrome;112.0;Windows;10;undefined;undefined;1280 x 720;1600 x 900
H010;21;Vrouwelijk;Rechts;5;69;right;no;100;rightarrow;310;true;focus;yes;963217;Chrome;112.0;Windows;10;undefined;undefined;1280 x 720;1600 x 900
H010;21;Vrouwelijk;Rechts;5;70;left;yes;100;undefined;null;true;focus;yes;965252;Chrome;112.0;Windows;10;undefined;undefined;1280 x 720;1600 x 900
H010;21;Vrouwelijk;Rechts;5;71;right;no;150;rightarrow;356;true;focus;yes;966389;Chrome;112.0;Windows;10;undefined;undefined;1280 x 720;1600 x 900
H010;21;Vrouwelijk;Rechts;5;72;left;no;150;leftarrow;348;true;focus;yes;967505;Chrome;112.0;Windows;10;undefined;undefined;1280 x 720;1600 x 900
H010;21;Vrouwelijk;Rechts;5;73;left;no;150;leftarrow;371;true;focus;yes;968651;Chrome;112.0;Windows;10;undefined;undefined;1280 x 720;1600 x 900
H010;21;Vrouwelijk;Rechts;5;74;right;no;150;rightarrow;381;true;focus;yes;969805;Chrome;112.0;Windows;10;undefined;undefined;1280 x 720;1600 x 900
H010;21;Vrouwelijk;Rechts;5;75;right;no;150;rightarrow;347;true;focus;yes;970928;Chrome;112.0;Windows;10;undefined;undefined;1280 x 720;1600 x 900
H010;21;Vrouwelijk;Rechts;5;76;left;no;150;leftarrow;543;true;focus;yes;972241;Chrome;112.0;Windows;10;undefined;undefined;1280 x 720;1600 x 900
H010;21;Vrouwelijk;Rechts;5;77;right;no;150;rightarrow;378;true;focus;yes;973399;Chrome;112.0;Windows;10;undefined;undefined;1280 x 720;1600 x 900
H010;21;Vrouwelijk;Rechts;5;78;left;yes;150;leftarrow;423;false;focus;yes;974595;Chrome;112.0;Windows;10;undefined;undefined;1280 x 720;1600 x 900
H010;21;Vrouwelijk;Rechts;5;79;left;no;100;leftarrow;449;true;focus;yes;975819;Chrome;112.0;Windows;10;undefined;undefined;1280 x 720;1600 x 900
H010;21;Vrouwelijk;Rechts;5;80;right;yes;100;undefined;null;true;focus;yes;977851;Chrome;112.0;Windows;10;undefined;undefined;1280 x 720;1600 x 900
H010;21;Vrouwelijk;Rechts;5;81;right;no;150;rightarrow;356;true;focus;yes;978976;Chrome;112.0;Windows;10;undefined;undefined;1280 x 720;1600 x 900
H010;21;Vrouwelijk;Rechts;5;82;left;no;150;leftarrow;412;true;focus;yes;980158;Chrome;112.0;Windows;10;undefined;undefined;1280 x 720;1600 x 900
H010;21;Vrouwelijk;Rechts;5;83;left;no;150;leftarrow;351;true;focus;yes;981273;Chrome;112.0;Windows;10;undefined;undefined;1280 x 720;1600 x 900
H010;21;Vrouwelijk;Rechts;5;84;right;no;150;rightarrow;418;true;focus;yes;982473;Chrome;112.0;Windows;10;undefined;undefined;1280 x 720;1600 x 900
H010;21;Vrouwelijk;Rechts;5;85;left;yes;150;undefined;null;true;focus;yes;984506;Chrome;112.0;Windows;10;undefined;undefined;1280 x 720;1600 x 900
H010;21;Vrouwelijk;Rechts;5;86;right;no;200;rightarrow;301;true;focus;yes;985588;Chrome;112.0;Windows;10;undefined;undefined;1280 x 720;1600 x 900
H010;21;Vrouwelijk;Rechts;5;87;left;no;200;leftarrow;358;true;focus;yes;986718;Chrome;112.0;Windows;10;undefined;undefined;1280 x 720;1600 x 900
H010;21;Vrouwelijk;Rechts;5;88;right;yes;200;rightarrow;332;false;focus;yes;987820;Chrome;112.0;Windows;10;undefined;undefined;1280 x 720;1600 x 900
H010;21;Vrouwelijk;Rechts;5;89;left;no;150;leftarrow;443;true;focus;yes;989029;Chrome;112.0;Windows;10;undefined;undefined;1280 x 720;1600 x 900
H010;21;Vrouwelijk;Rechts;5;90;right;yes;150;undefined;null;true;focus;yes;991063;Chrome;112.0;Windows;10;undefined;undefined;1280 x 720;1600 x 900
H010;21;Vrouwelijk;Rechts;5;91;right;no;200;rightarrow;456;true;focus;yes;992289;Chrome;112.0;Windows;10;undefined;undefined;1280 x 720;1600 x 900
H010;21;Vrouwelijk;Rechts;5;92;right;no;200;rightarrow;600;true;focus;yes;993669;Chrome;112.0;Windows;10;undefined;undefined;1280 x 720;1600 x 900
H010;21;Vrouwelijk;Rechts;5;93;left;yes;200;undefined;null;true;focus;yes;995688;Chrome;112.0;Windows;10;undefined;undefined;1280 x 720;1600 x 900
H010;21;Vrouwelijk;Rechts;5;94;left;no;250;leftarrow;334;true;focus;yes;996793;Chrome;112.0;Windows;10;undefined;undefined;1280 x 720;1600 x 900
H010;21;Vrouwelijk;Rechts;5;95;right;no;250;rightarrow;532;true;focus;yes;998100;Chrome;112.0;Windows;10;undefined;undefined;1280 x 720;1600 x 900
H010;21;Vrouwelijk;Rechts;5;96;left;no;250;leftarrow;501;true;focus;yes;999383;Chrome;112.0;Windows;10;undefined;undefined;1280 x 720;1600 x 900
H010;21;Vrouwelijk;Rechts;5;97;right;no;250;rightarrow;719;true;focus;yes;1000877;Chrome;112.0;Windows;10;undefined;undefined;1280 x 720;1600 x 900
H010;21;Vrouwelijk;Rechts;5;98;right;no;250;rightarrow;487;true;focus;yes;1002133;Chrome;112.0;Windows;10;undefined;undefined;1280 x 720;1600 x 900
H010;21;Vrouwelijk;Rechts;5;99;left;no;250;leftarrow;550;true;focus;yes;1003462;Chrome;112.0;Windows;10;undefined;undefined;1280 x 720;1600 x 900
H010;21;Vrouwelijk;Rechts;5;100;left;no;250;leftarrow;508;true;focus;yes;1004753;Chrome;112.0;Windows;10;undefined;undefined;1280 x 720;1600 x 900
H010;21;Vrouwelijk;Rechts;5;101;left;no;250;leftarrow;376;true;focus;yes;1005909;Chrome;112.0;Windows;10;undefined;undefined;1280 x 720;1600 x 900
H010;21;Vrouwelijk;Rechts;5;102;right;no;250;rightarrow;558;true;focus;yes;1007232;Chrome;112.0;Windows;10;undefined;undefined;1280 x 720;1600 x 900
H010;21;Vrouwelijk;Rechts;5;103;left;yes;250;leftarrow;408;false;focus;yes;1008422;Chrome;112.0;Windows;10;undefined;undefined;1280 x 720;1600 x 900
H010;21;Vrouwelijk;Rechts;5;104;right;yes;200;undefined;null;true;focus;yes;1010452;Chrome;112.0;Windows;10;undefined;undefined;1280 x 720;1600 x 900
H010;21;Vrouwelijk;Rechts;5;105;right;no;250;rightarrow;468;true;focus;yes;1011693;Chrome;112.0;Windows;10;undefined;undefined;1280 x 720;1600 x 900
H010;21;Vrouwelijk;Rechts;5;106;left;no;250;leftarrow;538;true;focus;yes;1013002;Chrome;112.0;Windows;10;undefined;undefined;1280 x 720;1600 x 900
H010;21;Vrouwelijk;Rechts;5;107;right;yes;250;rightarrow;442;false;focus;yes;1014218;Chrome;112.0;Windows;10;undefined;undefined;1280 x 720;1600 x 900
H010;21;Vrouwelijk;Rechts;5;108;left;yes;200;undefined;null;true;focus;yes;1016250;Chrome;112.0;Windows;10;undefined;undefined;1280 x 720;1600 x 900
H010;21;Vrouwelijk;Rechts;5;109;left;no;250;leftarrow;484;true;focus;yes;1017525;Chrome;112.0;Windows;10;undefined;undefined;1280 x 720;1600 x 900
H010;21;Vrouwelijk;Rechts;5;110;right;no;250;rightarrow;504;true;focus;yes;1018813;Chrome;112.0;Windows;10;undefined;undefined;1280 x 720;1600 x 900
H010;21;Vrouwelijk;Rechts;5;111;left;no;250;leftarrow;671;true;focus;yes;1020251;Chrome;112.0;Windows;10;undefined;undefined;1280 x 720;1600 x 900
H010;21;Vrouwelijk;Rechts;5;112;right;no;250;rightarrow;391;true;focus;yes;1021417;Chrome;112.0;Windows;10;undefined;undefined;1280 x 720;1600 x 900
H010;21;Vrouwelijk;Rechts;5;113;left;no;250;leftarrow;435;true;focus;yes;1022633;Chrome;112.0;Windows;10;undefined;undefined;1280 x 720;1600 x 900
H010;21;Vrouwelijk;Rechts;5;114;right;no;250;rightarrow;563;true;focus;yes;1023976;Chrome;112.0;Windows;10;undefined;undefined;1280 x 720;1600 x 900
H010;21;Vrouwelijk;Rechts;5;115;right;no;250;rightarrow;638;true;focus;yes;1025387;Chrome;112.0;Windows;10;undefined;undefined;1280 x 720;1600 x 900
H010;21;Vrouwelijk;Rechts;5;116;left;no;250;leftarrow;515;true;focus;yes;1026684;Chrome;112.0;Windows;10;undefined;undefined;1280 x 720;1600 x 900
H010;21;Vrouwelijk;Rechts;5;117;left;no;250;leftarrow;460;true;focus;yes;1027926;Chrome;112.0;Windows;10;undefined;undefined;1280 x 720;1600 x 900
H010;21;Vrouwelijk;Rechts;5;118;left;yes;250;leftarrow;373;false;focus;yes;1029079;Chrome;112.0;Windows;10;undefined;undefined;1280 x 720;1600 x 900
H010;21;Vrouwelijk;Rechts;5;119;right;no;200;rightarrow;324;true;focus;yes;1030176;Chrome;112.0;Windows;10;undefined;undefined;1280 x 720;1600 x 900
H010;21;Vrouwelijk;Rechts;5;120;right;yes;200;undefined;null;true;focus;yes;1032219;Chrome;112.0;Windows;10;undefined;undefined;1280 x 720;1600 x 900
H010;21;Vrouwelijk;Rechts;5;121;left;yes;250;leftarrow;389;false;focus;yes;1033386;Chrome;112.0;Windows;10;undefined;undefined;1280 x 720;1600 x 900
H010;21;Vrouwelijk;Rechts;5;122;right;no;200;rightarrow;522;true;focus;yes;1034684;Chrome;112.0;Windows;10;undefined;undefined;1280 x 720;1600 x 900
H010;21;Vrouwelijk;Rechts;5;123;right;no;200;rightarrow;497;true;focus;yes;1035958;Chrome;112.0;Windows;10;undefined;undefined;1280 x 720;1600 x 900
H010;21;Vrouwelijk;Rechts;5;124;left;no;200;leftarrow;499;true;focus;yes;1037239;Chrome;112.0;Windows;10;undefined;undefined;1280 x 720;1600 x 900
H010;21;Vrouwelijk;Rechts;5;125;right;no;200;rightarrow;471;true;focus;yes;1038483;Chrome;112.0;Windows;10;undefined;undefined;1280 x 720;1600 x 900
H010;21;Vrouwelijk;Rechts;5;126;left;no;200;leftarrow;442;true;focus;yes;1039711;Chrome;112.0;Windows;10;undefined;undefined;1280 x 720;1600 x 900
H010;21;Vrouwelijk;Rechts;5;127;right;yes;200;rightarrow;315;false;focus;yes;1040809;Chrome;112.0;Windows;10;undefined;undefined;1280 x 720;1600 x 900
H010;21;Vrouwelijk;Rechts;5;128;left;no;150;leftarrow;780;true;focus;yes;1042376;Chrome;112.0;Windows;10;undefined;undefined;1280 x 720;1600 x 900
H010;21;Vrouwelijk;Rechts;6;1;right;yes;150;rightarrow;416;false;focus;yes;1061527;Chrome;112.0;Windows;10;undefined;undefined;1280 x 720;1600 x 900
H010;21;Vrouwelijk;Rechts;6;2;left;yes;100;leftarrow;265;false;focus;yes;1062560;Chrome;112.0;Windows;10;undefined;undefined;1280 x 720;1600 x 900
H010;21;Vrouwelijk;Rechts;6;3;right;no;50;rightarrow;322;true;focus;yes;1063665;Chrome;112.0;Windows;10;undefined;undefined;1280 x 720;1600 x 900
H010;21;Vrouwelijk;Rechts;6;4;left;no;50;leftarrow;279;true;focus;yes;1064714;Chrome;112.0;Windows;10;undefined;undefined;1280 x 720;1600 x 900
H010;21;Vrouwelijk;Rechts;6;5;right;no;50;rightarrow;331;true;focus;yes;1065823;Chrome;112.0;Windows;10;undefined;undefined;1280 x 720;1600 x 900
H010;21;Vrouwelijk;Rechts;6;6;left;no;50;leftarrow;341;true;focus;yes;1066943;Chrome;112.0;Windows;10;undefined;undefined;1280 x 720;1600 x 900
H010;21;Vrouwelijk;Rechts;6;7;left;no;50;leftarrow;439;true;focus;yes;1068165;Chrome;112.0;Windows;10;undefined;undefined;1280 x 720;1600 x 900
H010;21;Vrouwelijk;Rechts;6;8;right;no;50;rightarrow;355;true;focus;yes;1069290;Chrome;112.0;Windows;10;undefined;undefined;1280 x 720;1600 x 900
H010;21;Vrouwelijk;Rechts;6;9;left;no;50;leftarrow;324;true;focus;yes;1070384;Chrome;112.0;Windows;10;undefined;undefined;1280 x 720;1600 x 900
H010;21;Vrouwelijk;Rechts;6;10;left;yes;50;undefined;null;true;focus;yes;1072419;Chrome;112.0;Windows;10;undefined;undefined;1280 x 720;1600 x 900
H010;21;Vrouwelijk;Rechts;6;11;right;no;100;rightarrow;385;true;focus;yes;1073589;Chrome;112.0;Windows;10;undefined;undefined;1280 x 720;1600 x 900
H010;21;Vrouwelijk;Rechts;6;12;right;no;100;rightarrow;447;true;focus;yes;1074814;Chrome;112.0;Windows;10;undefined;undefined;1280 x 720;1600 x 900
H010;21;Vrouwelijk;Rechts;6;13;right;yes;100;undefined;null;true;focus;yes;1076848;Chrome;112.0;Windows;10;undefined;undefined;1280 x 720;1600 x 900
H010;21;Vrouwelijk;Rechts;6;14;left;no;150;leftarrow;312;true;focus;yes;1077938;Chrome;112.0;Windows;10;undefined;undefined;1280 x 720;1600 x 900
H010;21;Vrouwelijk;Rechts;6;15;right;no;150;rightarrow;408;true;focus;yes;1079130;Chrome;112.0;Windows;10;undefined;undefined;1280 x 720;1600 x 900
H010;21;Vrouwelijk;Rechts;6;16;left;no;150;leftarrow;388;true;focus;yes;1080293;Chrome;112.0;Windows;10;undefined;undefined;1280 x 720;1600 x 900
H010;21;Vrouwelijk;Rechts;6;17;left;yes;150;undefined;null;true;focus;yes;1082332;Chrome;112.0;Windows;10;undefined;undefined;1280 x 720;1600 x 900
H010;21;Vrouwelijk;Rechts;6;18;right;no;200;rightarrow;237;true;focus;yes;1083360;Chrome;112.0;Windows;10;undefined;undefined;1280 x 720;1600 x 900
H010;21;Vrouwelijk;Rechts;6;19;right;yes;200;leftarrow;283;false;focus;yes;1084429;Chrome;112.0;Windows;10;undefined;undefined;1280 x 720;1600 x 900
H010;21;Vrouwelijk;Rechts;6;20;left;no;150;leftarrow;340;true;focus;yes;1085548;Chrome;112.0;Windows;10;undefined;undefined;1280 x 720;1600 x 900
H010;21;Vrouwelijk;Rechts;6;21;right;no;150;rightarrow;363;true;focus;yes;1086685;Chrome;112.0;Windows;10;undefined;undefined;1280 x 720;1600 x 900
H010;21;Vrouwelijk;Rechts;6;22;right;no;150;rightarrow;394;true;focus;yes;1087862;Chrome;112.0;Windows;10;undefined;undefined;1280 x 720;1600 x 900
H010;21;Vrouwelijk;Rechts;6;23;left;no;150;leftarrow;452;true;focus;yes;1089085;Chrome;112.0;Windows;10;undefined;undefined;1280 x 720;1600 x 900
H010;21;Vrouwelijk;Rechts;6;24;left;no;150;leftarrow;331;true;focus;yes;1090188;Chrome;112.0;Windows;10;undefined;undefined;1280 x 720;1600 x 900
H010;21;Vrouwelijk;Rechts;6;25;left;no;150;leftarrow;306;true;focus;yes;1091263;Chrome;112.0;Windows;10;undefined;undefined;1280 x 720;1600 x 900
H010;21;Vrouwelijk;Rechts;6;26;left;no;150;leftarrow;337;true;focus;yes;1092369;Chrome;112.0;Windows;10;undefined;undefined;1280 x 720;1600 x 900
H010;21;Vrouwelijk;Rechts;6;27;right;no;150;rightarrow;410;true;focus;yes;1093551;Chrome;112.0;Windows;10;undefined;undefined;1280 x 720;1600 x 900
H010;21;Vrouwelijk;Rechts;6;28;right;no;150;rightarrow;309;true;focus;yes;1094639;Chrome;112.0;Windows;10;undefined;undefined;1280 x 720;1600 x 900
