participantID;age;gender;handedness;block_i;trial_i;stim;signal;SSD;response;rt;correct;focus;Fullscreen;time_elapsed;browser_name;browser_version;os_name;os_version;tablet;mobile;screen_resolution;window_resolution
H032;51;Mannelijk;Rechts;0;1;left;yes;200;leftarrow;555;false;focus;yes;199552;Chrome;112.0;macOS;10.15.7;undefined;undefined;1512 x 982;1512 x 945
H032;51;Mannelijk;Rechts;0;2;right;no;150;rightarrow;417;true;focus;yes;201489;Chrome;112.0;macOS;10.15.7;undefined;undefined;1512 x 982;1512 x 945
H032;51;Mannelijk;Rechts;0;3;right;no;150;rightarrow;441;true;focus;yes;203450;Chrome;112.0;macOS;10.15.7;undefined;undefined;1512 x 982;1512 x 945
H032;51;Mannelijk;Rechts;0;4;left;no;150;rightarrow;293;false;focus;yes;205263;Chrome;112.0;macOS;10.15.7;undefined;undefined;1512 x 982;1512 x 945
H032;51;Mannelijk;Rechts;0;5;left;no;150;leftarrow;355;true;focus;yes;207142;Chrome;112.0;macOS;10.15.7;undefined;undefined;1512 x 982;1512 x 945
H032;51;Mannelijk;Rechts;0;6;right;no;150;rightarrow;417;true;focus;yes;209085;Chrome;112.0;macOS;10.15.7;undefined;undefined;1512 x 982;1512 x 945
H032;51;Mannelijk;Rechts;0;7;right;yes;150;rightarrow;378;false;focus;yes;210987;Chrome;112.0;macOS;10.15.7;undefined;undefined;1512 x 982;1512 x 945
H032;51;Mannelijk;Rechts;0;8;left;no;100;leftarrow;406;true;focus;yes;212914;Chrome;112.0;macOS;10.15.7;undefined;undefined;1512 x 982;1512 x 945
H032;51;Mannelijk;Rechts;1;1;left;no;100;leftarrow;458;true;focus;yes;234455;Chrome;112.0;macOS;10.15.7;undefined;undefined;1512 x 982;1512 x 945
H032;51;Mannelijk;Rechts;1;2;right;no;100;rightarrow;354;true;focus;yes;235571;Chrome;112.0;macOS;10.15.7;undefined;undefined;1512 x 982;1512 x 945
H032;51;Mannelijk;Rechts;1;3;left;yes;100;leftarrow;585;false;focus;yes;236923;Chrome;112.0;macOS;10.15.7;undefined;undefined;1512 x 982;1512 x 945
H032;51;Mannelijk;Rechts;1;4;right;yes;50;rightarrow;461;false;focus;yes;238151;Chrome;112.0;macOS;10.15.7;undefined;undefined;1512 x 982;1512 x 945
H032;51;Mannelijk;Rechts;1;5;right;no;50;rightarrow;391;true;focus;yes;239304;Chrome;112.0;macOS;10.15.7;undefined;undefined;1512 x 982;1512 x 945
H032;51;Mannelijk;Rechts;1;6;right;no;50;rightarrow;398;true;focus;yes;240474;Chrome;112.0;macOS;10.15.7;undefined;undefined;1512 x 982;1512 x 945
H032;51;Mannelijk;Rechts;1;7;left;no;50;leftarrow;361;true;focus;yes;241604;Chrome;112.0;macOS;10.15.7;undefined;undefined;1512 x 982;1512 x 945
H032;51;Mannelijk;Rechts;1;8;left;no;50;leftarrow;353;true;focus;yes;242723;Chrome;112.0;macOS;10.15.7;undefined;undefined;1512 x 982;1512 x 945
H032;51;Mannelijk;Rechts;1;9;left;no;50;leftarrow;349;true;focus;yes;243839;Chrome;112.0;macOS;10.15.7;undefined;undefined;1512 x 982;1512 x 945
H032;51;Mannelijk;Rechts;1;10;right;no;50;rightarrow;403;true;focus;yes;245005;Chrome;112.0;macOS;10.15.7;undefined;undefined;1512 x 982;1512 x 945
H032;51;Mannelijk;Rechts;1;11;left;no;50;rightarrow;398;false;focus;yes;246168;Chrome;112.0;macOS;10.15.7;undefined;undefined;1512 x 982;1512 x 945
H032;51;Mannelijk;Rechts;1;12;right;yes;50;rightarrow;442;false;focus;yes;247372;Chrome;112.0;macOS;10.15.7;undefined;undefined;1512 x 982;1512 x 945
H032;51;Mannelijk;Rechts;1;13;left;no;50;leftarrow;313;true;focus;yes;248450;Chrome;112.0;macOS;10.15.7;undefined;undefined;1512 x 982;1512 x 945
H032;51;Mannelijk;Rechts;1;14;right;no;50;rightarrow;317;true;focus;yes;249533;Chrome;112.0;macOS;10.15.7;undefined;undefined;1512 x 982;1512 x 945
H032;51;Mannelijk;Rechts;1;15;right;no;50;rightarrow;391;true;focus;yes;250689;Chrome;112.0;macOS;10.15.7;undefined;undefined;1512 x 982;1512 x 945
H032;51;Mannelijk;Rechts;1;16;left;yes;50;leftarrow;344;false;focus;yes;251802;Chrome;112.0;macOS;10.15.7;undefined;undefined;1512 x 982;1512 x 945
H032;51;Mannelijk;Rechts;1;17;right;no;50;rightarrow;352;true;focus;yes;252921;Chrome;112.0;macOS;10.15.7;undefined;undefined;1512 x 982;1512 x 945
H032;51;Mannelijk;Rechts;1;18;left;no;50;leftarrow;413;true;focus;yes;254103;Chrome;112.0;macOS;10.15.7;undefined;undefined;1512 x 982;1512 x 945
H032;51;Mannelijk;Rechts;1;19;left;no;50;leftarrow;515;true;focus;yes;255380;Chrome;112.0;macOS;10.15.7;undefined;undefined;1512 x 982;1512 x 945
H032;51;Mannelijk;Rechts;1;20;right;yes;50;rightarrow;392;false;focus;yes;256536;Chrome;112.0;macOS;10.15.7;undefined;undefined;1512 x 982;1512 x 945
H032;51;Mannelijk;Rechts;1;21;right;no;50;rightarrow;358;true;focus;yes;257665;Chrome;112.0;macOS;10.15.7;undefined;undefined;1512 x 982;1512 x 945
H032;51;Mannelijk;Rechts;1;22;left;no;50;leftarrow;390;true;focus;yes;258823;Chrome;112.0;macOS;10.15.7;undefined;undefined;1512 x 982;1512 x 945
H032;51;Mannelijk;Rechts;1;23;right;no;50;rightarrow;332;true;focus;yes;259918;Chrome;112.0;macOS;10.15.7;undefined;undefined;1512 x 982;1512 x 945
H032;51;Mannelijk;Rechts;1;24;left;yes;50;leftarrow;355;false;focus;yes;261037;Chrome;112.0;macOS;10.15.7;undefined;undefined;1512 x 982;1512 x 945
H032;51;Mannelijk;Rechts;1;25;left;no;50;leftarrow;327;true;focus;yes;262128;Chrome;112.0;macOS;10.15.7;undefined;undefined;1512 x 982;1512 x 945
H032;51;Mannelijk;Rechts;1;26;right;no;50;rightarrow;389;true;focus;yes;263280;Chrome;112.0;macOS;10.15.7;undefined;undefined;1512 x 982;1512 x 945
H032;51;Mannelijk;Rechts;1;27;right;no;50;rightarrow;420;true;focus;yes;264462;Chrome;112.0;macOS;10.15.7;undefined;undefined;1512 x 982;1512 x 945
H032;51;Mannelijk;Rechts;1;28;left;yes;50;leftarrow;380;false;focus;yes;265606;Chrome;112.0;macOS;10.15.7;undefined;undefined;1512 x 982;1512 x 945
H032;51;Mannelijk;Rechts;1;29;right;yes;50;rightarrow;429;false;focus;yes;266798;Chrome;112.0;macOS;10.15.7;undefined;undefined;1512 x 982;1512 x 945
H032;51;Mannelijk;Rechts;1;30;right;no;50;rightarrow;387;true;focus;yes;267949;Chrome;112.0;macOS;10.15.7;undefined;undefined;1512 x 982;1512 x 945
H032;51;Mannelijk;Rechts;1;31;left;no;50;leftarrow;385;true;focus;yes;269097;Chrome;112.0;macOS;10.15.7;undefined;undefined;1512 x 982;1512 x 945
H032;51;Mannelijk;Rechts;1;32;left;no;50;leftarrow;359;true;focus;yes;270226;Chrome;112.0;macOS;10.15.7;undefined;undefined;1512 x 982;1512 x 945
H032;51;Mannelijk;Rechts;1;33;left;no;50;leftarrow;339;true;focus;yes;271333;Chrome;112.0;macOS;10.15.7;undefined;undefined;1512 x 982;1512 x 945
H032;51;Mannelijk;Rechts;1;34;left;no;50;leftarrow;289;true;focus;yes;272381;Chrome;112.0;macOS;10.15.7;undefined;undefined;1512 x 982;1512 x 945
H032;51;Mannelijk;Rechts;1;35;right;no;50;leftarrow;302;false;focus;yes;273456;Chrome;112.0;macOS;10.15.7;undefined;undefined;1512 x 982;1512 x 945
H032;51;Mannelijk;Rechts;1;36;right;yes;50;rightarrow;-26;false;focus;yes;274198;Chrome;112.0;macOS;10.15.7;undefined;undefined;1512 x 982;1512 x 945
H032;51;Mannelijk;Rechts;1;37;left;yes;50;leftarrow;543;false;focus;yes;275504;Chrome;112.0;macOS;10.15.7;undefined;undefined;1512 x 982;1512 x 945
H032;51;Mannelijk;Rechts;1;38;left;no;50;leftarrow;405;true;focus;yes;276677;Chrome;112.0;macOS;10.15.7;undefined;undefined;1512 x 982;1512 x 945
H032;51;Mannelijk;Rechts;1;39;right;no;50;rightarrow;374;true;focus;yes;277813;Chrome;112.0;macOS;10.15.7;undefined;undefined;1512 x 982;1512 x 945
H032;51;Mannelijk;Rechts;1;40;right;no;50;rightarrow;390;true;focus;yes;278967;Chrome;112.0;macOS;10.15.7;undefined;undefined;1512 x 982;1512 x 945
H032;51;Mannelijk;Rechts;1;41;left;yes;50;leftarrow;413;false;focus;yes;280142;Chrome;112.0;macOS;10.15.7;undefined;undefined;1512 x 982;1512 x 945
H032;51;Mannelijk;Rechts;1;42;right;no;50;rightarrow;394;true;focus;yes;281299;Chrome;112.0;macOS;10.15.7;undefined;undefined;1512 x 982;1512 x 945
H032;51;Mannelijk;Rechts;1;43;right;no;50;rightarrow;443;true;focus;yes;282503;Chrome;112.0;macOS;10.15.7;undefined;undefined;1512 x 982;1512 x 945
H032;51;Mannelijk;Rechts;1;44;right;yes;50;rightarrow;591;false;focus;yes;283856;Chrome;112.0;macOS;10.15.7;undefined;undefined;1512 x 982;1512 x 945
H032;51;Mannelijk;Rechts;1;45;right;no;50;rightarrow;345;true;focus;yes;284970;Chrome;112.0;macOS;10.15.7;undefined;undefined;1512 x 982;1512 x 945
H032;51;Mannelijk;Rechts;1;46;left;no;50;leftarrow;445;true;focus;yes;286184;Chrome;112.0;macOS;10.15.7;undefined;undefined;1512 x 982;1512 x 945
H032;51;Mannelijk;Rechts;1;47;left;no;50;leftarrow;384;true;focus;yes;287339;Chrome;112.0;macOS;10.15.7;undefined;undefined;1512 x 982;1512 x 945
H032;51;Mannelijk;Rechts;1;48;left;no;50;rightarrow;298;false;focus;yes;288404;Chrome;112.0;macOS;10.15.7;undefined;undefined;1512 x 982;1512 x 945
H032;51;Mannelijk;Rechts;1;49;right;no;50;rightarrow;350;true;focus;yes;289519;Chrome;112.0;macOS;10.15.7;undefined;undefined;1512 x 982;1512 x 945
H032;51;Mannelijk;Rechts;1;50;left;no;50;leftarrow;356;true;focus;yes;290638;Chrome;112.0;macOS;10.15.7;undefined;undefined;1512 x 982;1512 x 945
H032;51;Mannelijk;Rechts;1;51;left;no;50;leftarrow;325;true;focus;yes;291727;Chrome;112.0;macOS;10.15.7;undefined;undefined;1512 x 982;1512 x 945
H032;51;Mannelijk;Rechts;1;52;right;no;50;rightarrow;415;true;focus;yes;292906;Chrome;112.0;macOS;10.15.7;undefined;undefined;1512 x 982;1512 x 945
H032;51;Mannelijk;Rechts;1;53;left;no;50;leftarrow;441;true;focus;yes;294114;Chrome;112.0;macOS;10.15.7;undefined;undefined;1512 x 982;1512 x 945
H032;51;Mannelijk;Rechts;1;54;right;yes;50;rightarrow;649;false;focus;yes;295530;Chrome;112.0;macOS;10.15.7;undefined;undefined;1512 x 982;1512 x 945
H032;51;Mannelijk;Rechts;1;55;right;no;50;rightarrow;387;true;focus;yes;296681;Chrome;112.0;macOS;10.15.7;undefined;undefined;1512 x 982;1512 x 945
H032;51;Mannelijk;Rechts;1;56;left;yes;50;leftarrow;380;false;focus;yes;297832;Chrome;112.0;macOS;10.15.7;undefined;undefined;1512 x 982;1512 x 945
H032;51;Mannelijk;Rechts;1;57;left;no;50;rightarrow;356;false;focus;yes;298959;Chrome;112.0;macOS;10.15.7;undefined;undefined;1512 x 982;1512 x 945
H032;51;Mannelijk;Rechts;1;58;left;no;50;leftarrow;364;true;focus;yes;300088;Chrome;112.0;macOS;10.15.7;undefined;undefined;1512 x 982;1512 x 945
H032;51;Mannelijk;Rechts;1;59;right;no;50;rightarrow;477;true;focus;yes;301325;Chrome;112.0;macOS;10.15.7;undefined;undefined;1512 x 982;1512 x 945
H032;51;Mannelijk;Rechts;1;60;left;yes;50;leftarrow;351;false;focus;yes;302443;Chrome;112.0;macOS;10.15.7;undefined;undefined;1512 x 982;1512 x 945
H032;51;Mannelijk;Rechts;1;61;right;yes;50;rightarrow;378;false;focus;yes;303589;Chrome;112.0;macOS;10.15.7;undefined;undefined;1512 x 982;1512 x 945
H032;51;Mannelijk;Rechts;1;62;left;no;50;leftarrow;383;true;focus;yes;304736;Chrome;112.0;macOS;10.15.7;undefined;undefined;1512 x 982;1512 x 945
H032;51;Mannelijk;Rechts;1;63;right;no;50;rightarrow;589;true;focus;yes;306095;Chrome;112.0;macOS;10.15.7;undefined;undefined;1512 x 982;1512 x 945
H032;51;Mannelijk;Rechts;1;64;right;no;50;rightarrow;394;true;focus;yes;307252;Chrome;112.0;macOS;10.15.7;undefined;undefined;1512 x 982;1512 x 945
H032;51;Mannelijk;Rechts;1;65;right;no;50;rightarrow;389;true;focus;yes;308407;Chrome;112.0;macOS;10.15.7;undefined;undefined;1512 x 982;1512 x 945
H032;51;Mannelijk;Rechts;1;66;right;no;50;rightarrow;361;true;focus;yes;309530;Chrome;112.0;macOS;10.15.7;undefined;undefined;1512 x 982;1512 x 945
H032;51;Mannelijk;Rechts;1;67;left;yes;50;leftarrow;304;false;focus;yes;310601;Chrome;112.0;macOS;10.15.7;undefined;undefined;1512 x 982;1512 x 945
H032;51;Mannelijk;Rechts;1;68;left;no;50;leftarrow;285;true;focus;yes;311656;Chrome;112.0;macOS;10.15.7;undefined;undefined;1512 x 982;1512 x 945
H032;51;Mannelijk;Rechts;1;69;left;no;50;leftarrow;297;true;focus;yes;312725;Chrome;112.0;macOS;10.15.7;undefined;undefined;1512 x 982;1512 x 945
H032;51;Mannelijk;Rechts;1;70;right;yes;50;rightarrow;396;false;focus;yes;313880;Chrome;112.0;macOS;10.15.7;undefined;undefined;1512 x 982;1512 x 945
H032;51;Mannelijk;Rechts;1;71;left;no;50;leftarrow;361;true;focus;yes;315013;Chrome;112.0;macOS;10.15.7;undefined;undefined;1512 x 982;1512 x 945
H032;51;Mannelijk;Rechts;1;72;right;no;50;rightarrow;354;true;focus;yes;316131;Chrome;112.0;macOS;10.15.7;undefined;undefined;1512 x 982;1512 x 945
H032;51;Mannelijk;Rechts;1;73;right;no;50;rightarrow;410;true;focus;yes;317304;Chrome;112.0;macOS;10.15.7;undefined;undefined;1512 x 982;1512 x 945
H032;51;Mannelijk;Rechts;1;74;left;no;50;leftarrow;387;true;focus;yes;318460;Chrome;112.0;macOS;10.15.7;undefined;undefined;1512 x 982;1512 x 945
H032;51;Mannelijk;Rechts;1;75;right;yes;50;rightarrow;464;false;focus;yes;319691;Chrome;112.0;macOS;10.15.7;undefined;undefined;1512 x 982;1512 x 945
H032;51;Mannelijk;Rechts;1;76;left;no;50;leftarrow;392;true;focus;yes;320850;Chrome;112.0;macOS;10.15.7;undefined;undefined;1512 x 982;1512 x 945
H032;51;Mannelijk;Rechts;1;77;right;no;50;rightarrow;274;true;focus;yes;321891;Chrome;112.0;macOS;10.15.7;undefined;undefined;1512 x 982;1512 x 945
H032;51;Mannelijk;Rechts;1;78;left;yes;50;leftarrow;323;false;focus;yes;322981;Chrome;112.0;macOS;10.15.7;undefined;undefined;1512 x 982;1512 x 945
H032;51;Mannelijk;Rechts;1;79;left;no;50;leftarrow;290;true;focus;yes;324035;Chrome;112.0;macOS;10.15.7;undefined;undefined;1512 x 982;1512 x 945
H032;51;Mannelijk;Rechts;1;80;right;no;50;rightarrow;381;true;focus;yes;325181;Chrome;112.0;macOS;10.15.7;undefined;undefined;1512 x 982;1512 x 945
H032;51;Mannelijk;Rechts;1;81;right;yes;50;rightarrow;373;false;focus;yes;326319;Chrome;112.0;macOS;10.15.7;undefined;undefined;1512 x 982;1512 x 945
H032;51;Mannelijk;Rechts;1;82;left;no;50;leftarrow;410;true;focus;yes;327493;Chrome;112.0;macOS;10.15.7;undefined;undefined;1512 x 982;1512 x 945
H032;51;Mannelijk;Rechts;1;83;right;no;50;rightarrow;409;true;focus;yes;328666;Chrome;112.0;macOS;10.15.7;undefined;undefined;1512 x 982;1512 x 945
H032;51;Mannelijk;Rechts;1;84;right;no;50;rightarrow;398;true;focus;yes;329833;Chrome;112.0;macOS;10.15.7;undefined;undefined;1512 x 982;1512 x 945
H032;51;Mannelijk;Rechts;1;85;right;no;50;rightarrow;409;true;focus;yes;331010;Chrome;112.0;macOS;10.15.7;undefined;undefined;1512 x 982;1512 x 945
H032;51;Mannelijk;Rechts;1;86;left;no;50;rightarrow;327;false;focus;yes;332104;Chrome;112.0;macOS;10.15.7;undefined;undefined;1512 x 982;1512 x 945
H032;51;Mannelijk;Rechts;1;87;left;no;50;leftarrow;456;true;focus;yes;333589;Chrome;112.0;macOS;10.15.7;undefined;undefined;1512 x 982;1512 x 945
H032;51;Mannelijk;Rechts;1;88;left;yes;50;leftarrow;364;false;focus;yes;334719;Chrome;112.0;macOS;10.15.7;undefined;undefined;1512 x 982;1512 x 945
H032;51;Mannelijk;Rechts;1;89;right;yes;50;rightarrow;346;false;focus;yes;335830;Chrome;112.0;macOS;10.15.7;undefined;undefined;1512 x 982;1512 x 945
H032;51;Mannelijk;Rechts;1;90;right;no;50;rightarrow;515;true;focus;yes;337108;Chrome;112.0;macOS;10.15.7;undefined;undefined;1512 x 982;1512 x 945
H032;51;Mannelijk;Rechts;1;91;left;no;50;leftarrow;302;true;focus;yes;338175;Chrome;112.0;macOS;10.15.7;undefined;undefined;1512 x 982;1512 x 945
H032;51;Mannelijk;Rechts;1;92;right;no;50;rightarrow;394;true;focus;yes;339333;Chrome;112.0;macOS;10.15.7;undefined;undefined;1512 x 982;1512 x 945
H032;51;Mannelijk;Rechts;1;93;left;no;50;leftarrow;327;true;focus;yes;340421;Chrome;112.0;macOS;10.15.7;undefined;undefined;1512 x 982;1512 x 945
H032;51;Mannelijk;Rechts;1;94;left;yes;50;leftarrow;349;false;focus;yes;341534;Chrome;112.0;macOS;10.15.7;undefined;undefined;1512 x 982;1512 x 945
H032;51;Mannelijk;Rechts;1;95;left;no;50;rightarrow;418;false;focus;yes;342717;Chrome;112.0;macOS;10.15.7;undefined;undefined;1512 x 982;1512 x 945
H032;51;Mannelijk;Rechts;1;96;right;no;50;rightarrow;544;true;focus;yes;344027;Chrome;112.0;macOS;10.15.7;undefined;undefined;1512 x 982;1512 x 945
H032;51;Mannelijk;Rechts;1;97;left;no;50;leftarrow;303;true;focus;yes;345096;Chrome;112.0;macOS;10.15.7;undefined;undefined;1512 x 982;1512 x 945
H032;51;Mannelijk;Rechts;1;98;right;no;50;leftarrow;326;false;focus;yes;346184;Chrome;112.0;macOS;10.15.7;undefined;undefined;1512 x 982;1512 x 945
H032;51;Mannelijk;Rechts;1;99;left;yes;50;leftarrow;452;false;focus;yes;347408;Chrome;112.0;macOS;10.15.7;undefined;undefined;1512 x 982;1512 x 945
H032;51;Mannelijk;Rechts;1;100;left;no;50;leftarrow;629;true;focus;yes;348806;Chrome;112.0;macOS;10.15.7;undefined;undefined;1512 x 982;1512 x 945
H032;51;Mannelijk;Rechts;1;101;right;no;50;rightarrow;295;true;focus;yes;349864;Chrome;112.0;macOS;10.15.7;undefined;undefined;1512 x 982;1512 x 945
H032;51;Mannelijk;Rechts;1;102;left;no;50;leftarrow;320;true;focus;yes;350952;Chrome;112.0;macOS;10.15.7;undefined;undefined;1512 x 982;1512 x 945
H032;51;Mannelijk;Rechts;1;103;right;yes;50;rightarrow;326;false;focus;yes;352049;Chrome;112.0;macOS;10.15.7;undefined;undefined;1512 x 982;1512 x 945
H032;51;Mannelijk;Rechts;1;104;right;no;50;rightarrow;394;true;focus;yes;353207;Chrome;112.0;macOS;10.15.7;undefined;undefined;1512 x 982;1512 x 945
H032;51;Mannelijk;Rechts;1;105;left;no;50;leftarrow;371;true;focus;yes;354342;Chrome;112.0;macOS;10.15.7;undefined;undefined;1512 x 982;1512 x 945
H032;51;Mannelijk;Rechts;1;106;left;yes;50;leftarrow;297;false;focus;yes;355402;Chrome;112.0;macOS;10.15.7;undefined;undefined;1512 x 982;1512 x 945
H032;51;Mannelijk;Rechts;1;107;left;no;50;leftarrow;350;true;focus;yes;356521;Chrome;112.0;macOS;10.15.7;undefined;undefined;1512 x 982;1512 x 945
H032;51;Mannelijk;Rechts;1;108;right;no;50;leftarrow;255;false;focus;yes;357536;Chrome;112.0;macOS;10.15.7;undefined;undefined;1512 x 982;1512 x 945
H032;51;Mannelijk;Rechts;1;109;right;no;50;rightarrow;464;true;focus;yes;358769;Chrome;112.0;macOS;10.15.7;undefined;undefined;1512 x 982;1512 x 945
H032;51;Mannelijk;Rechts;1;110;right;no;50;rightarrow;295;true;focus;yes;359834;Chrome;112.0;macOS;10.15.7;undefined;undefined;1512 x 982;1512 x 945
H032;51;Mannelijk;Rechts;1;111;left;no;50;leftarrow;424;true;focus;yes;361025;Chrome;112.0;macOS;10.15.7;undefined;undefined;1512 x 982;1512 x 945
H032;51;Mannelijk;Rechts;1;112;right;yes;50;rightarrow;453;false;focus;yes;362246;Chrome;112.0;macOS;10.15.7;undefined;undefined;1512 x 982;1512 x 945
H032;51;Mannelijk;Rechts;1;113;right;no;50;rightarrow;360;true;focus;yes;363369;Chrome;112.0;macOS;10.15.7;undefined;undefined;1512 x 982;1512 x 945
H032;51;Mannelijk;Rechts;1;114;right;yes;50;rightarrow;474;false;focus;yes;364612;Chrome;112.0;macOS;10.15.7;undefined;undefined;1512 x 982;1512 x 945
H032;51;Mannelijk;Rechts;1;115;right;no;50;rightarrow;405;true;focus;yes;365779;Chrome;112.0;macOS;10.15.7;undefined;undefined;1512 x 982;1512 x 945
H032;51;Mannelijk;Rechts;1;116;left;yes;50;leftarrow;374;false;focus;yes;366931;Chrome;112.0;macOS;10.15.7;undefined;undefined;1512 x 982;1512 x 945
H032;51;Mannelijk;Rechts;1;117;left;no;50;leftarrow;303;true;focus;yes;368008;Chrome;112.0;macOS;10.15.7;undefined;undefined;1512 x 982;1512 x 945
H032;51;Mannelijk;Rechts;1;118;left;no;50;leftarrow;395;true;focus;yes;369165;Chrome;112.0;macOS;10.15.7;undefined;undefined;1512 x 982;1512 x 945
H032;51;Mannelijk;Rechts;1;119;left;no;50;leftarrow;362;true;focus;yes;370300;Chrome;112.0;macOS;10.15.7;undefined;undefined;1512 x 982;1512 x 945
H032;51;Mannelijk;Rechts;1;120;right;no;50;rightarrow;386;true;focus;yes;371452;Chrome;112.0;macOS;10.15.7;undefined;undefined;1512 x 982;1512 x 945
H032;51;Mannelijk;Rechts;1;121;right;no;50;rightarrow;367;true;focus;yes;372585;Chrome;112.0;macOS;10.15.7;undefined;undefined;1512 x 982;1512 x 945
H032;51;Mannelijk;Rechts;1;122;left;no;50;leftarrow;397;true;focus;yes;373753;Chrome;112.0;macOS;10.15.7;undefined;undefined;1512 x 982;1512 x 945
H032;51;Mannelijk;Rechts;1;123;left;yes;50;leftarrow;660;false;focus;yes;375175;Chrome;112.0;macOS;10.15.7;undefined;undefined;1512 x 982;1512 x 945
H032;51;Mannelijk;Rechts;1;124;left;no;50;leftarrow;440;true;focus;yes;376379;Chrome;112.0;macOS;10.15.7;undefined;undefined;1512 x 982;1512 x 945
H032;51;Mannelijk;Rechts;1;125;right;no;50;rightarrow;350;true;focus;yes;377506;Chrome;112.0;macOS;10.15.7;undefined;undefined;1512 x 982;1512 x 945
H032;51;Mannelijk;Rechts;1;126;right;yes;50;rightarrow;372;false;focus;yes;378646;Chrome;112.0;macOS;10.15.7;undefined;undefined;1512 x 982;1512 x 945
H032;51;Mannelijk;Rechts;1;127;right;no;50;rightarrow;428;true;focus;yes;379837;Chrome;112.0;macOS;10.15.7;undefined;undefined;1512 x 982;1512 x 945
H032;51;Mannelijk;Rechts;1;128;left;no;50;leftarrow;335;true;focus;yes;380938;Chrome;112.0;macOS;10.15.7;undefined;undefined;1512 x 982;1512 x 945
H032;51;Mannelijk;Rechts;2;1;right;no;50;rightarrow;416;true;focus;yes;411699;Chrome;112.0;macOS;10.15.7;undefined;undefined;1512 x 982;1512 x 945
H032;51;Mannelijk;Rechts;2;2;left;yes;50;leftarrow;377;false;focus;yes;412843;Chrome;112.0;macOS;10.15.7;undefined;undefined;1512 x 982;1512 x 945
H032;51;Mannelijk;Rechts;2;3;right;no;50;rightarrow;349;true;focus;yes;413959;Chrome;112.0;macOS;10.15.7;undefined;undefined;1512 x 982;1512 x 945
H032;51;Mannelijk;Rechts;2;4;left;no;50;leftarrow;397;true;focus;yes;415119;Chrome;112.0;macOS;10.15.7;undefined;undefined;1512 x 982;1512 x 945
H032;51;Mannelijk;Rechts;2;5;left;no;50;leftarrow;393;true;focus;yes;416277;Chrome;112.0;macOS;10.15.7;undefined;undefined;1512 x 982;1512 x 945
H032;51;Mannelijk;Rechts;2;6;right;no;50;rightarrow;286;true;focus;yes;417328;Chrome;112.0;macOS;10.15.7;undefined;undefined;1512 x 982;1512 x 945
H032;51;Mannelijk;Rechts;2;7;right;yes;50;rightarrow;320;false;focus;yes;418417;Chrome;112.0;macOS;10.15.7;undefined;undefined;1512 x 982;1512 x 945
H032;51;Mannelijk;Rechts;2;8;left;no;50;leftarrow;432;true;focus;yes;419620;Chrome;112.0;macOS;10.15.7;undefined;undefined;1512 x 982;1512 x 945
H032;51;Mannelijk;Rechts;2;9;left;no;50;leftarrow;342;true;focus;yes;420729;Chrome;112.0;macOS;10.15.7;undefined;undefined;1512 x 982;1512 x 945
H032;51;Mannelijk;Rechts;2;10;right;no;50;rightarrow;353;true;focus;yes;421853;Chrome;112.0;macOS;10.15.7;undefined;undefined;1512 x 982;1512 x 945
H032;51;Mannelijk;Rechts;2;11;right;yes;50;rightarrow;330;false;focus;yes;422955;Chrome;112.0;macOS;10.15.7;undefined;undefined;1512 x 982;1512 x 945
H032;51;Mannelijk;Rechts;2;12;right;no;50;rightarrow;431;true;focus;yes;424153;Chrome;112.0;macOS;10.15.7;undefined;undefined;1512 x 982;1512 x 945
H032;51;Mannelijk;Rechts;2;13;left;yes;50;leftarrow;486;false;focus;yes;425412;Chrome;112.0;macOS;10.15.7;undefined;undefined;1512 x 982;1512 x 945
H032;51;Mannelijk;Rechts;2;14;right;no;50;rightarrow;380;true;focus;yes;426558;Chrome;112.0;macOS;10.15.7;undefined;undefined;1512 x 982;1512 x 945
H032;51;Mannelijk;Rechts;2;15;left;no;50;leftarrow;463;true;focus;yes;427784;Chrome;112.0;macOS;10.15.7;undefined;undefined;1512 x 982;1512 x 945
H032;51;Mannelijk;Rechts;2;16;left;no;50;leftarrow;334;true;focus;yes;428880;Chrome;112.0;macOS;10.15.7;undefined;undefined;1512 x 982;1512 x 945
H032;51;Mannelijk;Rechts;2;17;left;no;50;leftarrow;332;true;focus;yes;429983;Chrome;112.0;macOS;10.15.7;undefined;undefined;1512 x 982;1512 x 945
H032;51;Mannelijk;Rechts;2;18;right;no;50;rightarrow;434;true;focus;yes;431181;Chrome;112.0;macOS;10.15.7;undefined;undefined;1512 x 982;1512 x 945
H032;51;Mannelijk;Rechts;2;19;right;yes;50;rightarrow;312;false;focus;yes;432268;Chrome;112.0;macOS;10.15.7;undefined;undefined;1512 x 982;1512 x 945
H032;51;Mannelijk;Rechts;2;20;left;no;50;leftarrow;356;true;focus;yes;433391;Chrome;112.0;macOS;10.15.7;undefined;undefined;1512 x 982;1512 x 945
H032;51;Mannelijk;Rechts;2;21;right;no;50;rightarrow;401;true;focus;yes;434556;Chrome;112.0;macOS;10.15.7;undefined;undefined;1512 x 982;1512 x 945
H032;51;Mannelijk;Rechts;2;22;right;no;50;rightarrow;349;true;focus;yes;435672;Chrome;112.0;macOS;10.15.7;undefined;undefined;1512 x 982;1512 x 945
H032;51;Mannelijk;Rechts;2;23;left;yes;50;leftarrow;354;false;focus;yes;436788;Chrome;112.0;macOS;10.15.7;undefined;undefined;1512 x 982;1512 x 945
H032;51;Mannelijk;Rechts;2;24;left;no;50;leftarrow;395;true;focus;yes;437949;Chrome;112.0;macOS;10.15.7;undefined;undefined;1512 x 982;1512 x 945
H032;51;Mannelijk;Rechts;2;25;right;no;50;rightarrow;384;true;focus;yes;439099;Chrome;112.0;macOS;10.15.7;undefined;undefined;1512 x 982;1512 x 945
H032;51;Mannelijk;Rechts;2;26;left;no;50;leftarrow;319;true;focus;yes;440186;Chrome;112.0;macOS;10.15.7;undefined;undefined;1512 x 982;1512 x 945
H032;51;Mannelijk;Rechts;2;27;right;no;50;rightarrow;302;true;focus;yes;441258;Chrome;112.0;macOS;10.15.7;undefined;undefined;1512 x 982;1512 x 945
H032;51;Mannelijk;Rechts;2;28;right;no;50;rightarrow;410;true;focus;yes;442437;Chrome;112.0;macOS;10.15.7;undefined;undefined;1512 x 982;1512 x 945
H032;51;Mannelijk;Rechts;2;29;right;yes;50;rightarrow;331;false;focus;yes;443534;Chrome;112.0;macOS;10.15.7;undefined;undefined;1512 x 982;1512 x 945
H032;51;Mannelijk;Rechts;2;30;left;no;50;leftarrow;291;true;focus;yes;444589;Chrome;112.0;macOS;10.15.7;undefined;undefined;1512 x 982;1512 x 945
H032;51;Mannelijk;Rechts;2;31;left;no;50;leftarrow;370;true;focus;yes;445725;Chrome;112.0;macOS;10.15.7;undefined;undefined;1512 x 982;1512 x 945
H032;51;Mannelijk;Rechts;2;32;left;yes;50;leftarrow;444;false;focus;yes;446936;Chrome;112.0;macOS;10.15.7;undefined;undefined;1512 x 982;1512 x 945
H032;51;Mannelijk;Rechts;2;33;left;no;50;leftarrow;422;true;focus;yes;448119;Chrome;112.0;macOS;10.15.7;undefined;undefined;1512 x 982;1512 x 945
H032;51;Mannelijk;Rechts;2;34;right;no;50;rightarrow;324;true;focus;yes;449206;Chrome;112.0;macOS;10.15.7;undefined;undefined;1512 x 982;1512 x 945
H032;51;Mannelijk;Rechts;2;35;right;no;50;rightarrow;252;true;focus;yes;450223;Chrome;112.0;macOS;10.15.7;undefined;undefined;1512 x 982;1512 x 945
H032;51;Mannelijk;Rechts;2;36;left;no;50;rightarrow;300;false;focus;yes;451287;Chrome;112.0;macOS;10.15.7;undefined;undefined;1512 x 982;1512 x 945
H032;51;Mannelijk;Rechts;2;37;right;no;50;rightarrow;368;true;focus;yes;452419;Chrome;112.0;macOS;10.15.7;undefined;undefined;1512 x 982;1512 x 945
H032;51;Mannelijk;Rechts;2;38;left;no;50;leftarrow;330;true;focus;yes;453512;Chrome;112.0;macOS;10.15.7;undefined;undefined;1512 x 982;1512 x 945
H032;51;Mannelijk;Rechts;2;39;right;yes;50;rightarrow;382;false;focus;yes;454656;Chrome;112.0;macOS;10.15.7;undefined;undefined;1512 x 982;1512 x 945
H032;51;Mannelijk;Rechts;2;40;left;yes;50;leftarrow;314;false;focus;yes;455740;Chrome;112.0;macOS;10.15.7;undefined;undefined;1512 x 982;1512 x 945
H032;51;Mannelijk;Rechts;2;41;left;no;50;leftarrow;432;true;focus;yes;456940;Chrome;112.0;macOS;10.15.7;undefined;undefined;1512 x 982;1512 x 945
H032;51;Mannelijk;Rechts;2;42;right;no;50;rightarrow;311;true;focus;yes;458019;Chrome;112.0;macOS;10.15.7;undefined;undefined;1512 x 982;1512 x 945
H032;51;Mannelijk;Rechts;2;43;left;no;50;leftarrow;320;true;focus;yes;459107;Chrome;112.0;macOS;10.15.7;undefined;undefined;1512 x 982;1512 x 945
H032;51;Mannelijk;Rechts;2;44;right;no;50;rightarrow;437;true;focus;yes;460311;Chrome;112.0;macOS;10.15.7;undefined;undefined;1512 x 982;1512 x 945
H032;51;Mannelijk;Rechts;2;45;left;yes;50;leftarrow;388;false;focus;yes;461462;Chrome;112.0;macOS;10.15.7;undefined;undefined;1512 x 982;1512 x 945
H032;51;Mannelijk;Rechts;2;46;right;yes;50;rightarrow;307;false;focus;yes;462535;Chrome;112.0;macOS;10.15.7;undefined;undefined;1512 x 982;1512 x 945
H032;51;Mannelijk;Rechts;2;47;left;no;50;rightarrow;319;false;focus;yes;463613;Chrome;112.0;macOS;10.15.7;undefined;undefined;1512 x 982;1512 x 945
H032;51;Mannelijk;Rechts;2;48;right;no;50;rightarrow;376;true;focus;yes;464756;Chrome;112.0;macOS;10.15.7;undefined;undefined;1512 x 982;1512 x 945
H032;51;Mannelijk;Rechts;2;49;left;no;50;leftarrow;348;true;focus;yes;465872;Chrome;112.0;macOS;10.15.7;undefined;undefined;1512 x 982;1512 x 945
H032;51;Mannelijk;Rechts;2;50;left;yes;50;leftarrow;414;false;focus;yes;467056;Chrome;112.0;macOS;10.15.7;undefined;undefined;1512 x 982;1512 x 945
H032;51;Mannelijk;Rechts;2;51;right;no;50;rightarrow;383;true;focus;yes;468202;Chrome;112.0;macOS;10.15.7;undefined;undefined;1512 x 982;1512 x 945
H032;51;Mannelijk;Rechts;2;52;left;no;50;leftarrow;339;true;focus;yes;469311;Chrome;112.0;macOS;10.15.7;undefined;undefined;1512 x 982;1512 x 945
H032;51;Mannelijk;Rechts;2;53;left;no;50;leftarrow;391;true;focus;yes;470464;Chrome;112.0;macOS;10.15.7;undefined;undefined;1512 x 982;1512 x 945
H032;51;Mannelijk;Rechts;2;54;right;no;50;rightarrow;547;true;focus;yes;471775;Chrome;112.0;macOS;10.15.7;undefined;undefined;1512 x 982;1512 x 945
H032;51;Mannelijk;Rechts;2;55;right;no;50;rightarrow;341;true;focus;yes;472881;Chrome;112.0;macOS;10.15.7;undefined;undefined;1512 x 982;1512 x 945
H032;51;Mannelijk;Rechts;2;56;right;yes;50;leftarrow;233;false;focus;yes;473888;Chrome;112.0;macOS;10.15.7;undefined;undefined;1512 x 982;1512 x 945
H032;51;Mannelijk;Rechts;2;57;left;no;50;leftarrow;174;true;focus;yes;474825;Chrome;112.0;macOS;10.15.7;undefined;undefined;1512 x 982;1512 x 945
H032;51;Mannelijk;Rechts;2;58;right;no;50;rightarrow;387;true;focus;yes;475984;Chrome;112.0;macOS;10.15.7;undefined;undefined;1512 x 982;1512 x 945
H032;51;Mannelijk;Rechts;2;59;left;no;50;leftarrow;528;true;focus;yes;477285;Chrome;112.0;macOS;10.15.7;undefined;undefined;1512 x 982;1512 x 945
H032;51;Mannelijk;Rechts;2;60;left;yes;50;leftarrow;398;false;focus;yes;478447;Chrome;112.0;macOS;10.15.7;undefined;undefined;1512 x 982;1512 x 945
H032;51;Mannelijk;Rechts;2;61;right;yes;50;rightarrow;277;false;focus;yes;479496;Chrome;112.0;macOS;10.15.7;undefined;undefined;1512 x 982;1512 x 945
H032;51;Mannelijk;Rechts;2;62;right;no;50;rightarrow;392;true;focus;yes;480651;Chrome;112.0;macOS;10.15.7;undefined;undefined;1512 x 982;1512 x 945
H032;51;Mannelijk;Rechts;2;63;left;no;50;leftarrow;335;true;focus;yes;481746;Chrome;112.0;macOS;10.15.7;undefined;undefined;1512 x 982;1512 x 945
H032;51;Mannelijk;Rechts;2;64;right;no;50;rightarrow;247;true;focus;yes;482762;Chrome;112.0;macOS;10.15.7;undefined;undefined;1512 x 982;1512 x 945
H032;51;Mannelijk;Rechts;2;65;right;no;50;rightarrow;536;true;focus;yes;484070;Chrome;112.0;macOS;10.15.7;undefined;undefined;1512 x 982;1512 x 945
H032;51;Mannelijk;Rechts;2;66;right;no;50;rightarrow;357;true;focus;yes;485187;Chrome;112.0;macOS;10.15.7;undefined;undefined;1512 x 982;1512 x 945
H032;51;Mannelijk;Rechts;2;67;left;yes;50;rightarrow;296;false;focus;yes;486251;Chrome;112.0;macOS;10.15.7;undefined;undefined;1512 x 982;1512 x 945
H032;51;Mannelijk;Rechts;2;68;left;no;50;leftarrow;330;true;focus;yes;487350;Chrome;112.0;macOS;10.15.7;undefined;undefined;1512 x 982;1512 x 945
H032;51;Mannelijk;Rechts;2;69;right;no;50;rightarrow;337;true;focus;yes;488452;Chrome;112.0;macOS;10.15.7;undefined;undefined;1512 x 982;1512 x 945
H032;51;Mannelijk;Rechts;2;70;left;no;50;leftarrow;333;true;focus;yes;489553;Chrome;112.0;macOS;10.15.7;undefined;undefined;1512 x 982;1512 x 945
H032;51;Mannelijk;Rechts;2;71;left;no;50;rightarrow;293;false;focus;yes;490609;Chrome;112.0;macOS;10.15.7;undefined;undefined;1512 x 982;1512 x 945
H032;51;Mannelijk;Rechts;2;72;right;yes;50;rightarrow;238;false;focus;yes;491611;Chrome;112.0;macOS;10.15.7;undefined;undefined;1512 x 982;1512 x 945
H032;51;Mannelijk;Rechts;2;73;right;no;50;rightarrow;525;true;focus;yes;492905;Chrome;112.0;macOS;10.15.7;undefined;undefined;1512 x 982;1512 x 945
H032;51;Mannelijk;Rechts;2;74;right;no;50;rightarrow;322;true;focus;yes;493988;Chrome;112.0;macOS;10.15.7;undefined;undefined;1512 x 982;1512 x 945
H032;51;Mannelijk;Rechts;2;75;right;no;50;rightarrow;399;true;focus;yes;495155;Chrome;112.0;macOS;10.15.7;undefined;undefined;1512 x 982;1512 x 945
H032;51;Mannelijk;Rechts;2;76;left;yes;50;leftarrow;454;false;focus;yes;496375;Chrome;112.0;macOS;10.15.7;undefined;undefined;1512 x 982;1512 x 945
H032;51;Mannelijk;Rechts;2;77;left;no;50;leftarrow;331;true;focus;yes;497469;Chrome;112.0;macOS;10.15.7;undefined;undefined;1512 x 982;1512 x 945
H032;51;Mannelijk;Rechts;2;78;left;no;50;leftarrow;326;true;focus;yes;498561;Chrome;112.0;macOS;10.15.7;undefined;undefined;1512 x 982;1512 x 945
H032;51;Mannelijk;Rechts;2;79;right;yes;50;rightarrow;356;false;focus;yes;499689;Chrome;112.0;macOS;10.15.7;undefined;undefined;1512 x 982;1512 x 945
H032;51;Mannelijk;Rechts;2;80;left;no;50;leftarrow;432;true;focus;yes;500890;Chrome;112.0;macOS;10.15.7;undefined;undefined;1512 x 982;1512 x 945
H032;51;Mannelijk;Rechts;2;81;left;yes;50;leftarrow;342;false;focus;yes;502001;Chrome;112.0;macOS;10.15.7;undefined;undefined;1512 x 982;1512 x 945
H032;51;Mannelijk;Rechts;2;82;right;yes;50;rightarrow;362;false;focus;yes;503124;Chrome;112.0;macOS;10.15.7;undefined;undefined;1512 x 982;1512 x 945
H032;51;Mannelijk;Rechts;2;83;right;no;50;rightarrow;369;true;focus;yes;504259;Chrome;112.0;macOS;10.15.7;undefined;undefined;1512 x 982;1512 x 945
H032;51;Mannelijk;Rechts;2;84;right;no;50;rightarrow;340;true;focus;yes;505367;Chrome;112.0;macOS;10.15.7;undefined;undefined;1512 x 982;1512 x 945
H032;51;Mannelijk;Rechts;2;85;left;no;50;leftarrow;386;true;focus;yes;506516;Chrome;112.0;macOS;10.15.7;undefined;undefined;1512 x 982;1512 x 945
H032;51;Mannelijk;Rechts;2;86;right;no;50;rightarrow;517;true;focus;yes;507798;Chrome;112.0;macOS;10.15.7;undefined;undefined;1512 x 982;1512 x 945
H032;51;Mannelijk;Rechts;2;87;left;no;50;leftarrow;478;true;focus;yes;509038;Chrome;112.0;macOS;10.15.7;undefined;undefined;1512 x 982;1512 x 945
H032;51;Mannelijk;Rechts;2;88;left;no;50;leftarrow;299;true;focus;yes;510104;Chrome;112.0;macOS;10.15.7;undefined;undefined;1512 x 982;1512 x 945
H032;51;Mannelijk;Rechts;2;89;left;no;50;leftarrow;320;true;focus;yes;511184;Chrome;112.0;macOS;10.15.7;undefined;undefined;1512 x 982;1512 x 945
H032;51;Mannelijk;Rechts;2;90;right;no;50;rightarrow;320;true;focus;yes;512278;Chrome;112.0;macOS;10.15.7;undefined;undefined;1512 x 982;1512 x 945
H032;51;Mannelijk;Rechts;2;91;right;yes;50;rightarrow;511;false;focus;yes;513555;Chrome;112.0;macOS;10.15.7;undefined;undefined;1512 x 982;1512 x 945
H032;51;Mannelijk;Rechts;2;92;right;no;50;rightarrow;396;true;focus;yes;514719;Chrome;112.0;macOS;10.15.7;undefined;undefined;1512 x 982;1512 x 945
H032;51;Mannelijk;Rechts;2;93;left;yes;50;rightarrow;271;false;focus;yes;515756;Chrome;112.0;macOS;10.15.7;undefined;undefined;1512 x 982;1512 x 945
H032;51;Mannelijk;Rechts;2;94;left;no;50;leftarrow;378;true;focus;yes;516901;Chrome;112.0;macOS;10.15.7;undefined;undefined;1512 x 982;1512 x 945
H032;51;Mannelijk;Rechts;2;95;right;no;50;rightarrow;413;true;focus;yes;518075;Chrome;112.0;macOS;10.15.7;undefined;undefined;1512 x 982;1512 x 945
H032;51;Mannelijk;Rechts;2;96;left;no;50;leftarrow;348;true;focus;yes;519190;Chrome;112.0;macOS;10.15.7;undefined;undefined;1512 x 982;1512 x 945
H032;51;Mannelijk;Rechts;2;97;right;no;50;leftarrow;317;false;focus;yes;520272;Chrome;112.0;macOS;10.15.7;undefined;undefined;1512 x 982;1512 x 945
H032;51;Mannelijk;Rechts;2;98;left;yes;50;leftarrow;492;false;focus;yes;521530;Chrome;112.0;macOS;10.15.7;undefined;undefined;1512 x 982;1512 x 945
H032;51;Mannelijk;Rechts;2;99;right;no;50;rightarrow;368;true;focus;yes;522677;Chrome;112.0;macOS;10.15.7;undefined;undefined;1512 x 982;1512 x 945
H032;51;Mannelijk;Rechts;2;100;right;yes;50;rightarrow;282;false;focus;yes;523726;Chrome;112.0;macOS;10.15.7;undefined;undefined;1512 x 982;1512 x 945
H032;51;Mannelijk;Rechts;2;101;left;no;50;leftarrow;369;true;focus;yes;524861;Chrome;112.0;macOS;10.15.7;undefined;undefined;1512 x 982;1512 x 945
H032;51;Mannelijk;Rechts;2;102;left;no;50;leftarrow;505;true;focus;yes;526133;Chrome;112.0;macOS;10.15.7;undefined;undefined;1512 x 982;1512 x 945
H032;51;Mannelijk;Rechts;2;103;left;no;50;leftarrow;317;true;focus;yes;527213;Chrome;112.0;macOS;10.15.7;undefined;undefined;1512 x 982;1512 x 945
H032;51;Mannelijk;Rechts;2;104;right;no;50;rightarrow;399;true;focus;yes;528381;Chrome;112.0;macOS;10.15.7;undefined;undefined;1512 x 982;1512 x 945
H032;51;Mannelijk;Rechts;2;105;right;no;50;rightarrow;306;true;focus;yes;529462;Chrome;112.0;macOS;10.15.7;undefined;undefined;1512 x 982;1512 x 945
H032;51;Mannelijk;Rechts;2;106;left;yes;50;leftarrow;364;false;focus;yes;530590;Chrome;112.0;macOS;10.15.7;undefined;undefined;1512 x 982;1512 x 945
H032;51;Mannelijk;Rechts;2;107;left;no;50;leftarrow;396;true;focus;yes;531752;Chrome;112.0;macOS;10.15.7;undefined;undefined;1512 x 982;1512 x 945
H032;51;Mannelijk;Rechts;2;108;left;no;50;leftarrow;499;true;focus;yes;533014;Chrome;112.0;macOS;10.15.7;undefined;undefined;1512 x 982;1512 x 945
H032;51;Mannelijk;Rechts;2;109;right;yes;50;rightarrow;317;false;focus;yes;534097;Chrome;112.0;macOS;10.15.7;undefined;undefined;1512 x 982;1512 x 945
H032;51;Mannelijk;Rechts;2;110;left;no;50;leftarrow;489;true;focus;yes;535356;Chrome;112.0;macOS;10.15.7;undefined;undefined;1512 x 982;1512 x 945
H032;51;Mannelijk;Rechts;2;111;right;no;50;rightarrow;408;true;focus;yes;536532;Chrome;112.0;macOS;10.15.7;undefined;undefined;1512 x 982;1512 x 945
H032;51;Mannelijk;Rechts;2;112;right;no;50;rightarrow;380;true;focus;yes;537688;Chrome;112.0;macOS;10.15.7;undefined;undefined;1512 x 982;1512 x 945
H032;51;Mannelijk;Rechts;2;113;left;no;50;leftarrow;400;true;focus;yes;538852;Chrome;112.0;macOS;10.15.7;undefined;undefined;1512 x 982;1512 x 945
H032;51;Mannelijk;Rechts;2;114;left;yes;50;leftarrow;395;false;focus;yes;540008;Chrome;112.0;macOS;10.15.7;undefined;undefined;1512 x 982;1512 x 945
H032;51;Mannelijk;Rechts;2;115;right;yes;50;rightarrow;367;false;focus;yes;541139;Chrome;112.0;macOS;10.15.7;undefined;undefined;1512 x 982;1512 x 945
H032;51;Mannelijk;Rechts;2;116;right;no;50;rightarrow;525;true;focus;yes;542434;Chrome;112.0;macOS;10.15.7;undefined;undefined;1512 x 982;1512 x 945
H032;51;Mannelijk;Rechts;2;117;left;no;50;leftarrow;388;true;focus;yes;543592;Chrome;112.0;macOS;10.15.7;undefined;undefined;1512 x 982;1512 x 945
H032;51;Mannelijk;Rechts;2;118;right;no;50;rightarrow;447;true;focus;yes;544802;Chrome;112.0;macOS;10.15.7;undefined;undefined;1512 x 982;1512 x 945
H032;51;Mannelijk;Rechts;2;119;right;no;50;rightarrow;333;true;focus;yes;545904;Chrome;112.0;macOS;10.15.7;undefined;undefined;1512 x 982;1512 x 945
H032;51;Mannelijk;Rechts;2;120;left;no;50;leftarrow;553;true;focus;yes;547221;Chrome;112.0;macOS;10.15.7;undefined;undefined;1512 x 982;1512 x 945
H032;51;Mannelijk;Rechts;2;121;left;no;50;leftarrow;367;true;focus;yes;548354;Chrome;112.0;macOS;10.15.7;undefined;undefined;1512 x 982;1512 x 945
H032;51;Mannelijk;Rechts;2;122;right;no;50;rightarrow;377;true;focus;yes;549501;Chrome;112.0;macOS;10.15.7;undefined;undefined;1512 x 982;1512 x 945
H032;51;Mannelijk;Rechts;2;123;right;yes;50;rightarrow;432;false;focus;yes;550700;Chrome;112.0;macOS;10.15.7;undefined;undefined;1512 x 982;1512 x 945
H032;51;Mannelijk;Rechts;2;124;left;no;50;leftarrow;319;true;focus;yes;551788;Chrome;112.0;macOS;10.15.7;undefined;undefined;1512 x 982;1512 x 945
H032;51;Mannelijk;Rechts;2;125;left;yes;50;leftarrow;360;false;focus;yes;552910;Chrome;112.0;macOS;10.15.7;undefined;undefined;1512 x 982;1512 x 945
H032;51;Mannelijk;Rechts;2;126;right;no;50;rightarrow;409;true;focus;yes;554084;Chrome;112.0;macOS;10.15.7;undefined;undefined;1512 x 982;1512 x 945
H032;51;Mannelijk;Rechts;2;127;right;no;50;rightarrow;432;true;focus;yes;555283;Chrome;112.0;macOS;10.15.7;undefined;undefined;1512 x 982;1512 x 945
H032;51;Mannelijk;Rechts;2;128;left;no;50;leftarrow;450;true;focus;yes;556500;Chrome;112.0;macOS;10.15.7;undefined;undefined;1512 x 982;1512 x 945
H032;51;Mannelijk;Rechts;3;1;left;yes;50;leftarrow;431;false;focus;yes;595169;Chrome;112.0;macOS;10.15.7;undefined;undefined;1512 x 982;1512 x 945
H032;51;Mannelijk;Rechts;3;2;right;yes;50;rightarrow;436;false;focus;yes;596376;Chrome;112.0;macOS;10.15.7;undefined;undefined;1512 x 982;1512 x 945
H032;51;Mannelijk;Rechts;3;3;right;no;50;rightarrow;346;true;focus;yes;597484;Chrome;112.0;macOS;10.15.7;undefined;undefined;1512 x 982;1512 x 945
H032;51;Mannelijk;Rechts;3;4;left;no;50;leftarrow;366;true;focus;yes;598618;Chrome;112.0;macOS;10.15.7;undefined;undefined;1512 x 982;1512 x 945
H032;51;Mannelijk;Rechts;3;5;right;no;50;rightarrow;506;true;focus;yes;599886;Chrome;112.0;macOS;10.15.7;undefined;undefined;1512 x 982;1512 x 945
H032;51;Mannelijk;Rechts;3;6;right;no;50;rightarrow;271;true;focus;yes;600923;Chrome;112.0;macOS;10.15.7;undefined;undefined;1512 x 982;1512 x 945
H032;51;Mannelijk;Rechts;3;7;left;no;50;leftarrow;369;true;focus;yes;602061;Chrome;112.0;macOS;10.15.7;undefined;undefined;1512 x 982;1512 x 945
H032;51;Mannelijk;Rechts;3;8;left;no;50;leftarrow;330;true;focus;yes;603157;Chrome;112.0;macOS;10.15.7;undefined;undefined;1512 x 982;1512 x 945
H032;51;Mannelijk;Rechts;3;9;left;no;50;leftarrow;351;true;focus;yes;604274;Chrome;112.0;macOS;10.15.7;undefined;undefined;1512 x 982;1512 x 945
H032;51;Mannelijk;Rechts;3;10;right;yes;50;rightarrow;435;false;focus;yes;605470;Chrome;112.0;macOS;10.15.7;undefined;undefined;1512 x 982;1512 x 945
H032;51;Mannelijk;Rechts;3;11;right;no;50;rightarrow;338;true;focus;yes;606573;Chrome;112.0;macOS;10.15.7;undefined;undefined;1512 x 982;1512 x 945
H032;51;Mannelijk;Rechts;3;12;left;no;50;leftarrow;344;true;focus;yes;607684;Chrome;112.0;macOS;10.15.7;undefined;undefined;1512 x 982;1512 x 945
H032;51;Mannelijk;Rechts;3;13;right;no;50;rightarrow;455;true;focus;yes;608908;Chrome;112.0;macOS;10.15.7;undefined;undefined;1512 x 982;1512 x 945
H032;51;Mannelijk;Rechts;3;14;left;no;50;leftarrow;316;true;focus;yes;609992;Chrome;112.0;macOS;10.15.7;undefined;undefined;1512 x 982;1512 x 945
H032;51;Mannelijk;Rechts;3;15;left;yes;50;leftarrow;430;false;focus;yes;611185;Chrome;112.0;macOS;10.15.7;undefined;undefined;1512 x 982;1512 x 945
H032;51;Mannelijk;Rechts;3;16;right;no;50;rightarrow;406;true;focus;yes;612365;Chrome;112.0;macOS;10.15.7;undefined;undefined;1512 x 982;1512 x 945
H032;51;Mannelijk;Rechts;3;17;right;no;50;rightarrow;310;true;focus;yes;613443;Chrome;112.0;macOS;10.15.7;undefined;undefined;1512 x 982;1512 x 945
H032;51;Mannelijk;Rechts;3;18;right;yes;50;rightarrow;385;false;focus;yes;614590;Chrome;112.0;macOS;10.15.7;undefined;undefined;1512 x 982;1512 x 945
H032;51;Mannelijk;Rechts;3;19;left;yes;50;leftarrow;410;false;focus;yes;615768;Chrome;112.0;macOS;10.15.7;undefined;undefined;1512 x 982;1512 x 945
H032;51;Mannelijk;Rechts;3;20;left;no;50;leftarrow;313;true;focus;yes;616846;Chrome;112.0;macOS;10.15.7;undefined;undefined;1512 x 982;1512 x 945
H032;51;Mannelijk;Rechts;3;21;right;no;50;rightarrow;297;true;focus;yes;617908;Chrome;112.0;macOS;10.15.7;undefined;undefined;1512 x 982;1512 x 945
H032;51;Mannelijk;Rechts;3;22;left;no;50;leftarrow;422;true;focus;yes;619097;Chrome;112.0;macOS;10.15.7;undefined;undefined;1512 x 982;1512 x 945
H032;51;Mannelijk;Rechts;3;23;right;no;50;rightarrow;373;true;focus;yes;620233;Chrome;112.0;macOS;10.15.7;undefined;undefined;1512 x 982;1512 x 945
H032;51;Mannelijk;Rechts;3;24;left;no;50;leftarrow;358;true;focus;yes;621363;Chrome;112.0;macOS;10.15.7;undefined;undefined;1512 x 982;1512 x 945
H032;51;Mannelijk;Rechts;3;25;right;yes;50;rightarrow;358;false;focus;yes;622490;Chrome;112.0;macOS;10.15.7;undefined;undefined;1512 x 982;1512 x 945
H032;51;Mannelijk;Rechts;3;26;left;yes;50;leftarrow;413;false;focus;yes;623665;Chrome;112.0;macOS;10.15.7;undefined;undefined;1512 x 982;1512 x 945
H032;51;Mannelijk;Rechts;3;27;right;no;50;rightarrow;368;true;focus;yes;624804;Chrome;112.0;macOS;10.15.7;undefined;undefined;1512 x 982;1512 x 945
H032;51;Mannelijk;Rechts;3;28;right;no;50;rightarrow;341;true;focus;yes;625907;Chrome;112.0;macOS;10.15.7;undefined;undefined;1512 x 982;1512 x 945
H032;51;Mannelijk;Rechts;3;29;left;no;50;leftarrow;396;true;focus;yes;627071;Chrome;112.0;macOS;10.15.7;undefined;undefined;1512 x 982;1512 x 945
H032;51;Mannelijk;Rechts;3;30;right;no;50;rightarrow;373;true;focus;yes;628211;Chrome;112.0;macOS;10.15.7;undefined;undefined;1512 x 982;1512 x 945
H032;51;Mannelijk;Rechts;3;31;left;no;50;leftarrow;318;true;focus;yes;629292;Chrome;112.0;macOS;10.15.7;undefined;undefined;1512 x 982;1512 x 945
H032;51;Mannelijk;Rechts;3;32;left;no;50;leftarrow;371;true;focus;yes;630431;Chrome;112.0;macOS;10.15.7;undefined;undefined;1512 x 982;1512 x 945
H032;51;Mannelijk;Rechts;3;33;right;no;50;rightarrow;313;true;focus;yes;631508;Chrome;112.0;macOS;10.15.7;undefined;undefined;1512 x 982;1512 x 945
H032;51;Mannelijk;Rechts;3;34;right;yes;50;rightarrow;394;false;focus;yes;632665;Chrome;112.0;macOS;10.15.7;undefined;undefined;1512 x 982;1512 x 945
H032;51;Mannelijk;Rechts;3;35;left;no;50;leftarrow;334;true;focus;yes;633758;Chrome;112.0;macOS;10.15.7;undefined;undefined;1512 x 982;1512 x 945
H032;51;Mannelijk;Rechts;3;36;left;yes;50;leftarrow;508;false;focus;yes;635033;Chrome;112.0;macOS;10.15.7;undefined;undefined;1512 x 982;1512 x 945
H032;51;Mannelijk;Rechts;3;37;right;no;50;rightarrow;275;true;focus;yes;636070;Chrome;112.0;macOS;10.15.7;undefined;undefined;1512 x 982;1512 x 945
H032;51;Mannelijk;Rechts;3;38;right;no;50;rightarrow;368;true;focus;yes;637203;Chrome;112.0;macOS;10.15.7;undefined;undefined;1512 x 982;1512 x 945
H032;51;Mannelijk;Rechts;3;39;left;no;50;leftarrow;366;true;focus;yes;638339;Chrome;112.0;macOS;10.15.7;undefined;undefined;1512 x 982;1512 x 945
H032;51;Mannelijk;Rechts;3;40;left;no;50;leftarrow;561;true;focus;yes;639669;Chrome;112.0;macOS;10.15.7;undefined;undefined;1512 x 982;1512 x 945
H032;51;Mannelijk;Rechts;3;41;left;no;50;leftarrow;454;true;focus;yes;640890;Chrome;112.0;macOS;10.15.7;undefined;undefined;1512 x 982;1512 x 945
H032;51;Mannelijk;Rechts;3;42;left;no;50;leftarrow;491;true;focus;yes;642142;Chrome;112.0;macOS;10.15.7;undefined;undefined;1512 x 982;1512 x 945
H032;51;Mannelijk;Rechts;3;43;right;yes;50;rightarrow;373;false;focus;yes;643279;Chrome;112.0;macOS;10.15.7;undefined;undefined;1512 x 982;1512 x 945
H032;51;Mannelijk;Rechts;3;44;left;yes;50;leftarrow;362;false;focus;yes;644407;Chrome;112.0;macOS;10.15.7;undefined;undefined;1512 x 982;1512 x 945
H032;51;Mannelijk;Rechts;3;45;left;no;50;leftarrow;320;true;focus;yes;645492;Chrome;112.0;macOS;10.15.7;undefined;undefined;1512 x 982;1512 x 945
H032;51;Mannelijk;Rechts;3;46;right;no;50;rightarrow;419;true;focus;yes;646679;Chrome;112.0;macOS;10.15.7;undefined;undefined;1512 x 982;1512 x 945
H032;51;Mannelijk;Rechts;3;47;right;no;50;rightarrow;358;true;focus;yes;647803;Chrome;112.0;macOS;10.15.7;undefined;undefined;1512 x 982;1512 x 945
H032;51;Mannelijk;Rechts;3;48;right;no;50;rightarrow;372;true;focus;yes;648946;Chrome;112.0;macOS;10.15.7;undefined;undefined;1512 x 982;1512 x 945
H032;51;Mannelijk;Rechts;3;49;left;no;50;leftarrow;389;true;focus;yes;650107;Chrome;112.0;macOS;10.15.7;undefined;undefined;1512 x 982;1512 x 945
H032;51;Mannelijk;Rechts;3;50;left;yes;50;leftarrow;396;false;focus;yes;651273;Chrome;112.0;macOS;10.15.7;undefined;undefined;1512 x 982;1512 x 945
H032;51;Mannelijk;Rechts;3;51;left;no;50;leftarrow;361;true;focus;yes;652407;Chrome;112.0;macOS;10.15.7;undefined;undefined;1512 x 982;1512 x 945
H032;51;Mannelijk;Rechts;3;52;right;yes;50;rightarrow;343;false;focus;yes;653516;Chrome;112.0;macOS;10.15.7;undefined;undefined;1512 x 982;1512 x 945
H032;51;Mannelijk;Rechts;3;53;right;no;50;rightarrow;388;true;focus;yes;654673;Chrome;112.0;macOS;10.15.7;undefined;undefined;1512 x 982;1512 x 945
H032;51;Mannelijk;Rechts;3;54;right;no;50;rightarrow;363;true;focus;yes;655800;Chrome;112.0;macOS;10.15.7;undefined;undefined;1512 x 982;1512 x 945
H032;51;Mannelijk;Rechts;3;55;right;no;50;rightarrow;338;true;focus;yes;656901;Chrome;112.0;macOS;10.15.7;undefined;undefined;1512 x 982;1512 x 945
H032;51;Mannelijk;Rechts;3;56;left;no;50;leftarrow;343;true;focus;yes;658011;Chrome;112.0;macOS;10.15.7;undefined;undefined;1512 x 982;1512 x 945
H032;51;Mannelijk;Rechts;3;57;left;no;50;leftarrow;381;true;focus;yes;659161;Chrome;112.0;macOS;10.15.7;undefined;undefined;1512 x 982;1512 x 945
H032;51;Mannelijk;Rechts;3;58;left;no;50;leftarrow;316;true;focus;yes;660241;Chrome;112.0;macOS;10.15.7;undefined;undefined;1512 x 982;1512 x 945
H032;51;Mannelijk;Rechts;3;59;right;yes;50;rightarrow;472;false;focus;yes;661477;Chrome;112.0;macOS;10.15.7;undefined;undefined;1512 x 982;1512 x 945
H032;51;Mannelijk;Rechts;3;60;right;no;50;rightarrow;346;true;focus;yes;662589;Chrome;112.0;macOS;10.15.7;undefined;undefined;1512 x 982;1512 x 945
H032;51;Mannelijk;Rechts;3;61;left;yes;50;leftarrow;391;false;focus;yes;663749;Chrome;112.0;macOS;10.15.7;undefined;undefined;1512 x 982;1512 x 945
H032;51;Mannelijk;Rechts;3;62;right;no;50;rightarrow;311;true;focus;yes;664828;Chrome;112.0;macOS;10.15.7;undefined;undefined;1512 x 982;1512 x 945
H032;51;Mannelijk;Rechts;3;63;right;no;50;rightarrow;339;true;focus;yes;665934;Chrome;112.0;macOS;10.15.7;undefined;undefined;1512 x 982;1512 x 945
H032;51;Mannelijk;Rechts;3;64;left;no;50;leftarrow;342;true;focus;yes;667037;Chrome;112.0;macOS;10.15.7;undefined;undefined;1512 x 982;1512 x 945
H032;51;Mannelijk;Rechts;3;65;right;no;50;rightarrow;331;true;focus;yes;668135;Chrome;112.0;macOS;10.15.7;undefined;undefined;1512 x 982;1512 x 945
H032;51;Mannelijk;Rechts;3;66;left;yes;50;leftarrow;400;false;focus;yes;669296;Chrome;112.0;macOS;10.15.7;undefined;undefined;1512 x 982;1512 x 945
H032;51;Mannelijk;Rechts;3;67;left;no;50;leftarrow;396;true;focus;yes;670457;Chrome;112.0;macOS;10.15.7;undefined;undefined;1512 x 982;1512 x 945
H032;51;Mannelijk;Rechts;3;68;right;yes;50;rightarrow;384;false;focus;yes;671607;Chrome;112.0;macOS;10.15.7;undefined;undefined;1512 x 982;1512 x 945
H032;51;Mannelijk;Rechts;3;69;right;no;50;rightarrow;293;true;focus;yes;672665;Chrome;112.0;macOS;10.15.7;undefined;undefined;1512 x 982;1512 x 945
H032;51;Mannelijk;Rechts;3;70;left;no;50;leftarrow;421;true;focus;yes;673849;Chrome;112.0;macOS;10.15.7;undefined;undefined;1512 x 982;1512 x 945
H032;51;Mannelijk;Rechts;3;71;left;no;50;leftarrow;411;true;focus;yes;675022;Chrome;112.0;macOS;10.15.7;undefined;undefined;1512 x 982;1512 x 945
H032;51;Mannelijk;Rechts;3;72;right;no;50;leftarrow;341;false;focus;yes;676130;Chrome;112.0;macOS;10.15.7;undefined;undefined;1512 x 982;1512 x 945
H032;51;Mannelijk;Rechts;3;73;right;no;50;rightarrow;265;true;focus;yes;677165;Chrome;112.0;macOS;10.15.7;undefined;undefined;1512 x 982;1512 x 945
H032;51;Mannelijk;Rechts;3;74;right;no;50;rightarrow;504;true;focus;yes;678437;Chrome;112.0;macOS;10.15.7;undefined;undefined;1512 x 982;1512 x 945
H032;51;Mannelijk;Rechts;3;75;right;no;50;rightarrow;315;true;focus;yes;679519;Chrome;112.0;macOS;10.15.7;undefined;undefined;1512 x 982;1512 x 945
H032;51;Mannelijk;Rechts;3;76;right;yes;50;rightarrow;295;false;focus;yes;680579;Chrome;112.0;macOS;10.15.7;undefined;undefined;1512 x 982;1512 x 945
H032;51;Mannelijk;Rechts;3;77;left;no;50;leftarrow;495;true;focus;yes;681843;Chrome;112.0;macOS;10.15.7;undefined;undefined;1512 x 982;1512 x 945
H032;51;Mannelijk;Rechts;3;78;left;no;50;leftarrow;293;true;focus;yes;682906;Chrome;112.0;macOS;10.15.7;undefined;undefined;1512 x 982;1512 x 945
H032;51;Mannelijk;Rechts;3;79;left;no;50;leftarrow;373;true;focus;yes;684041;Chrome;112.0;macOS;10.15.7;undefined;undefined;1512 x 982;1512 x 945
H032;51;Mannelijk;Rechts;3;80;left;yes;50;leftarrow;361;false;focus;yes;685174;Chrome;112.0;macOS;10.15.7;undefined;undefined;1512 x 982;1512 x 945
H032;51;Mannelijk;Rechts;3;81;left;no;50;leftarrow;345;true;focus;yes;686285;Chrome;112.0;macOS;10.15.7;undefined;undefined;1512 x 982;1512 x 945
H032;51;Mannelijk;Rechts;3;82;left;no;50;leftarrow;355;true;focus;yes;687407;Chrome;112.0;macOS;10.15.7;undefined;undefined;1512 x 982;1512 x 945
H032;51;Mannelijk;Rechts;3;83;left;no;50;rightarrow;356;false;focus;yes;688529;Chrome;112.0;macOS;10.15.7;undefined;undefined;1512 x 982;1512 x 945
H032;51;Mannelijk;Rechts;3;84;right;yes;50;rightarrow;259;false;focus;yes;689552;Chrome;112.0;macOS;10.15.7;undefined;undefined;1512 x 982;1512 x 945
H032;51;Mannelijk;Rechts;3;85;right;no;50;rightarrow;277;true;focus;yes;690594;Chrome;112.0;macOS;10.15.7;undefined;undefined;1512 x 982;1512 x 945
H032;51;Mannelijk;Rechts;3;86;right;no;50;rightarrow;426;true;focus;yes;691789;Chrome;112.0;macOS;10.15.7;undefined;undefined;1512 x 982;1512 x 945
H032;51;Mannelijk;Rechts;3;87;right;no;50;rightarrow;303;true;focus;yes;692854;Chrome;112.0;macOS;10.15.7;undefined;undefined;1512 x 982;1512 x 945
H032;51;Mannelijk;Rechts;3;88;left;yes;50;leftarrow;322;false;focus;yes;693942;Chrome;112.0;macOS;10.15.7;undefined;undefined;1512 x 982;1512 x 945
H032;51;Mannelijk;Rechts;3;89;right;no;50;rightarrow;350;true;focus;yes;695057;Chrome;112.0;macOS;10.15.7;undefined;undefined;1512 x 982;1512 x 945
H032;51;Mannelijk;Rechts;3;90;left;no;50;leftarrow;299;true;focus;yes;696127;Chrome;112.0;macOS;10.15.7;undefined;undefined;1512 x 982;1512 x 945
H032;51;Mannelijk;Rechts;3;91;right;no;50;rightarrow;281;true;focus;yes;697174;Chrome;112.0;macOS;10.15.7;undefined;undefined;1512 x 982;1512 x 945
H032;51;Mannelijk;Rechts;3;92;right;yes;50;rightarrow;361;false;focus;yes;698302;Chrome;112.0;macOS;10.15.7;undefined;undefined;1512 x 982;1512 x 945
H032;51;Mannelijk;Rechts;3;93;left;no;50;leftarrow;419;true;focus;yes;699488;Chrome;112.0;macOS;10.15.7;undefined;undefined;1512 x 982;1512 x 945
H032;51;Mannelijk;Rechts;3;94;left;yes;50;leftarrow;305;false;focus;yes;700557;Chrome;112.0;macOS;10.15.7;undefined;undefined;1512 x 982;1512 x 945
H032;51;Mannelijk;Rechts;3;95;left;no;50;leftarrow;373;true;focus;yes;701696;Chrome;112.0;macOS;10.15.7;undefined;undefined;1512 x 982;1512 x 945
H032;51;Mannelijk;Rechts;3;96;right;no;50;leftarrow;350;false;focus;yes;702811;Chrome;112.0;macOS;10.15.7;undefined;undefined;1512 x 982;1512 x 945
H032;51;Mannelijk;Rechts;3;97;right;no;50;rightarrow;470;true;focus;yes;704051;Chrome;112.0;macOS;10.15.7;undefined;undefined;1512 x 982;1512 x 945
H032;51;Mannelijk;Rechts;3;98;right;yes;50;rightarrow;409;false;focus;yes;705224;Chrome;112.0;macOS;10.15.7;undefined;undefined;1512 x 982;1512 x 945
H032;51;Mannelijk;Rechts;3;99;left;no;50;leftarrow;354;true;focus;yes;706343;Chrome;112.0;macOS;10.15.7;undefined;undefined;1512 x 982;1512 x 945
H032;51;Mannelijk;Rechts;3;100;right;no;50;rightarrow;374;true;focus;yes;707478;Chrome;112.0;macOS;10.15.7;undefined;undefined;1512 x 982;1512 x 945
H032;51;Mannelijk;Rechts;3;101;right;no;50;rightarrow;333;true;focus;yes;708578;Chrome;112.0;macOS;10.15.7;undefined;undefined;1512 x 982;1512 x 945
H032;51;Mannelijk;Rechts;3;102;left;no;50;leftarrow;423;true;focus;yes;709783;Chrome;112.0;macOS;10.15.7;undefined;undefined;1512 x 982;1512 x 945
H032;51;Mannelijk;Rechts;3;103;left;yes;50;leftarrow;421;false;focus;yes;710969;Chrome;112.0;macOS;10.15.7;undefined;undefined;1512 x 982;1512 x 945
H032;51;Mannelijk;Rechts;3;104;left;no;50;leftarrow;433;true;focus;yes;712165;Chrome;112.0;macOS;10.15.7;undefined;undefined;1512 x 982;1512 x 945
H032;51;Mannelijk;Rechts;3;105;left;no;50;leftarrow;432;true;focus;yes;713365;Chrome;112.0;macOS;10.15.7;undefined;undefined;1512 x 982;1512 x 945
H032;51;Mannelijk;Rechts;3;106;left;yes;50;leftarrow;318;false;focus;yes;714445;Chrome;112.0;macOS;10.15.7;undefined;undefined;1512 x 982;1512 x 945
H032;51;Mannelijk;Rechts;3;107;left;no;50;leftarrow;343;true;focus;yes;715553;Chrome;112.0;macOS;10.15.7;undefined;undefined;1512 x 982;1512 x 945
H032;51;Mannelijk;Rechts;3;108;right;no;50;rightarrow;368;true;focus;yes;716692;Chrome;112.0;macOS;10.15.7;undefined;undefined;1512 x 982;1512 x 945
H032;51;Mannelijk;Rechts;3;109;left;no;50;leftarrow;398;true;focus;yes;717858;Chrome;112.0;macOS;10.15.7;undefined;undefined;1512 x 982;1512 x 945
H032;51;Mannelijk;Rechts;3;110;right;no;50;rightarrow;377;true;focus;yes;719006;Chrome;112.0;macOS;10.15.7;undefined;undefined;1512 x 982;1512 x 945
H032;51;Mannelijk;Rechts;3;111;right;yes;50;rightarrow;476;false;focus;yes;720249;Chrome;112.0;macOS;10.15.7;undefined;undefined;1512 x 982;1512 x 945
H032;51;Mannelijk;Rechts;3;112;right;no;50;rightarrow;585;true;focus;yes;721608;Chrome;112.0;macOS;10.15.7;undefined;undefined;1512 x 982;1512 x 945
H032;51;Mannelijk;Rechts;3;113;left;no;50;leftarrow;370;true;focus;yes;722742;Chrome;112.0;macOS;10.15.7;undefined;undefined;1512 x 982;1512 x 945
H032;51;Mannelijk;Rechts;3;114;right;no;50;leftarrow;278;false;focus;yes;723787;Chrome;112.0;macOS;10.15.7;undefined;undefined;1512 x 982;1512 x 945
H032;51;Mannelijk;Rechts;3;115;right;yes;50;rightarrow;537;false;focus;yes;725102;Chrome;112.0;macOS;10.15.7;undefined;undefined;1512 x 982;1512 x 945
H032;51;Mannelijk;Rechts;3;116;left;no;50;leftarrow;431;true;focus;yes;726300;Chrome;112.0;macOS;10.15.7;undefined;undefined;1512 x 982;1512 x 945
H032;51;Mannelijk;Rechts;3;117;right;no;50;leftarrow;280;false;focus;yes;727349;Chrome;112.0;macOS;10.15.7;undefined;undefined;1512 x 982;1512 x 945
H032;51;Mannelijk;Rechts;3;118;right;no;50;rightarrow;316;true;focus;yes;728431;Chrome;112.0;macOS;10.15.7;undefined;undefined;1512 x 982;1512 x 945
H032;51;Mannelijk;Rechts;3;119;left;no;50;leftarrow;468;true;focus;yes;729664;Chrome;112.0;macOS;10.15.7;undefined;undefined;1512 x 982;1512 x 945
H032;51;Mannelijk;Rechts;3;120;left;yes;50;leftarrow;343;false;focus;yes;730774;Chrome;112.0;macOS;10.15.7;undefined;undefined;1512 x 982;1512 x 945
H032;51;Mannelijk;Rechts;3;121;right;no;50;rightarrow;339;true;focus;yes;731879;Chrome;112.0;macOS;10.15.7;undefined;undefined;1512 x 982;1512 x 945
H032;51;Mannelijk;Rechts;3;122;left;no;50;rightarrow;398;false;focus;yes;733042;Chrome;112.0;macOS;10.15.7;undefined;undefined;1512 x 982;1512 x 945
H032;51;Mannelijk;Rechts;3;123;left;yes;50;leftarrow;383;false;focus;yes;734195;Chrome;112.0;macOS;10.15.7;undefined;undefined;1512 x 982;1512 x 945
H032;51;Mannelijk;Rechts;3;124;left;no;50;leftarrow;369;true;focus;yes;735333;Chrome;112.0;macOS;10.15.7;undefined;undefined;1512 x 982;1512 x 945
H032;51;Mannelijk;Rechts;3;125;right;no;50;rightarrow;385;true;focus;yes;736482;Chrome;112.0;macOS;10.15.7;undefined;undefined;1512 x 982;1512 x 945
H032;51;Mannelijk;Rechts;3;126;right;no;50;rightarrow;298;true;focus;yes;737550;Chrome;112.0;macOS;10.15.7;undefined;undefined;1512 x 982;1512 x 945
H032;51;Mannelijk;Rechts;3;127;right;yes;50;rightarrow;271;false;focus;yes;738588;Chrome;112.0;macOS;10.15.7;undefined;undefined;1512 x 982;1512 x 945
H032;51;Mannelijk;Rechts;3;128;left;no;50;leftarrow;364;true;focus;yes;739728;Chrome;112.0;macOS;10.15.7;undefined;undefined;1512 x 982;1512 x 945
H032;51;Mannelijk;Rechts;4;1;left;yes;50;leftarrow;419;false;focus;yes;760282;Chrome;112.0;macOS;10.15.7;undefined;undefined;1512 x 982;1512 x 945
H032;51;Mannelijk;Rechts;4;2;right;no;50;rightarrow;353;true;focus;yes;761408;Chrome;112.0;macOS;10.15.7;undefined;undefined;1512 x 982;1512 x 945
H032;51;Mannelijk;Rechts;4;3;left;no;50;leftarrow;383;true;focus;yes;762556;Chrome;112.0;macOS;10.15.7;undefined;undefined;1512 x 982;1512 x 945
H032;51;Mannelijk;Rechts;4;4;left;no;50;leftarrow;377;true;focus;yes;763702;Chrome;112.0;macOS;10.15.7;undefined;undefined;1512 x 982;1512 x 945
H032;51;Mannelijk;Rechts;4;5;right;no;50;rightarrow;339;true;focus;yes;764808;Chrome;112.0;macOS;10.15.7;undefined;undefined;1512 x 982;1512 x 945
H032;51;Mannelijk;Rechts;4;6;left;no;50;leftarrow;425;true;focus;yes;765998;Chrome;112.0;macOS;10.15.7;undefined;undefined;1512 x 982;1512 x 945
H032;51;Mannelijk;Rechts;4;7;right;yes;50;rightarrow;331;false;focus;yes;767096;Chrome;112.0;macOS;10.15.7;undefined;undefined;1512 x 982;1512 x 945
H032;51;Mannelijk;Rechts;4;8;right;no;50;rightarrow;400;true;focus;yes;768260;Chrome;112.0;macOS;10.15.7;undefined;undefined;1512 x 982;1512 x 945
H032;51;Mannelijk;Rechts;4;9;left;no;50;leftarrow;341;true;focus;yes;769371;Chrome;112.0;macOS;10.15.7;undefined;undefined;1512 x 982;1512 x 945
H032;51;Mannelijk;Rechts;4;10;left;no;50;rightarrow;251;false;focus;yes;770391;Chrome;112.0;macOS;10.15.7;undefined;undefined;1512 x 982;1512 x 945
H032;51;Mannelijk;Rechts;4;11;left;yes;50;leftarrow;155;false;focus;yes;771311;Chrome;112.0;macOS;10.15.7;undefined;undefined;1512 x 982;1512 x 945
H032;51;Mannelijk;Rechts;4;12;right;no;50;rightarrow;243;true;focus;yes;772321;Chrome;112.0;macOS;10.15.7;undefined;undefined;1512 x 982;1512 x 945
H032;51;Mannelijk;Rechts;4;13;left;no;50;rightarrow;301;false;focus;yes;773387;Chrome;112.0;macOS;10.15.7;undefined;undefined;1512 x 982;1512 x 945
H032;51;Mannelijk;Rechts;4;14;right;no;50;rightarrow;389;true;focus;yes;774553;Chrome;112.0;macOS;10.15.7;undefined;undefined;1512 x 982;1512 x 945
H032;51;Mannelijk;Rechts;4;15;right;yes;50;rightarrow;336;false;focus;yes;775664;Chrome;112.0;macOS;10.15.7;undefined;undefined;1512 x 982;1512 x 945
H032;51;Mannelijk;Rechts;4;16;right;no;50;rightarrow;324;true;focus;yes;776754;Chrome;112.0;macOS;10.15.7;undefined;undefined;1512 x 982;1512 x 945
H032;51;Mannelijk;Rechts;4;17;right;no;50;rightarrow;318;true;focus;yes;777844;Chrome;112.0;macOS;10.15.7;undefined;undefined;1512 x 982;1512 x 945
H032;51;Mannelijk;Rechts;4;18;left;no;50;leftarrow;317;true;focus;yes;778929;Chrome;112.0;macOS;10.15.7;undefined;undefined;1512 x 982;1512 x 945
H032;51;Mannelijk;Rechts;4;19;right;no;50;rightarrow;529;true;focus;yes;780222;Chrome;112.0;macOS;10.15.7;undefined;undefined;1512 x 982;1512 x 945
H032;51;Mannelijk;Rechts;4;20;left;yes;50;leftarrow;360;false;focus;yes;781350;Chrome;112.0;macOS;10.15.7;undefined;undefined;1512 x 982;1512 x 945
H032;51;Mannelijk;Rechts;4;21;right;no;50;rightarrow;269;true;focus;yes;782385;Chrome;112.0;macOS;10.15.7;undefined;undefined;1512 x 982;1512 x 945
H032;51;Mannelijk;Rechts;4;22;right;yes;50;leftarrow;316;false;focus;yes;783475;Chrome;112.0;macOS;10.15.7;undefined;undefined;1512 x 982;1512 x 945
H032;51;Mannelijk;Rechts;4;23;left;no;50;leftarrow;325;true;focus;yes;784563;Chrome;112.0;macOS;10.15.7;undefined;undefined;1512 x 982;1512 x 945
H032;51;Mannelijk;Rechts;4;24;left;no;50;rightarrow;314;false;focus;yes;785649;Chrome;112.0;macOS;10.15.7;undefined;undefined;1512 x 982;1512 x 945
H032;51;Mannelijk;Rechts;4;25;right;no;50;rightarrow;106;true;focus;yes;786520;Chrome;112.0;macOS;10.15.7;undefined;undefined;1512 x 982;1512 x 945
H032;51;Mannelijk;Rechts;4;26;left;no;50;leftarrow;309;true;focus;yes;787594;Chrome;112.0;macOS;10.15.7;undefined;undefined;1512 x 982;1512 x 945
H032;51;Mannelijk;Rechts;4;27;left;no;50;leftarrow;310;true;focus;yes;788667;Chrome;112.0;macOS;10.15.7;undefined;undefined;1512 x 982;1512 x 945
H032;51;Mannelijk;Rechts;4;28;right;no;50;rightarrow;358;true;focus;yes;789795;Chrome;112.0;macOS;10.15.7;undefined;undefined;1512 x 982;1512 x 945
H032;51;Mannelijk;Rechts;4;29;right;yes;50;rightarrow;376;false;focus;yes;790942;Chrome;112.0;macOS;10.15.7;undefined;undefined;1512 x 982;1512 x 945
H032;51;Mannelijk;Rechts;4;30;right;no;50;rightarrow;337;true;focus;yes;792044;Chrome;112.0;macOS;10.15.7;undefined;undefined;1512 x 982;1512 x 945
H032;51;Mannelijk;Rechts;4;31;left;yes;50;rightarrow;325;false;focus;yes;793139;Chrome;112.0;macOS;10.15.7;undefined;undefined;1512 x 982;1512 x 945
H032;51;Mannelijk;Rechts;4;32;left;no;50;leftarrow;468;true;focus;yes;794389;Chrome;112.0;macOS;10.15.7;undefined;undefined;1512 x 982;1512 x 945
H032;51;Mannelijk;Rechts;4;33;left;no;50;leftarrow;423;true;focus;yes;795580;Chrome;112.0;macOS;10.15.7;undefined;undefined;1512 x 982;1512 x 945
H032;51;Mannelijk;Rechts;4;34;right;no;50;rightarrow;493;true;focus;yes;796857;Chrome;112.0;macOS;10.15.7;undefined;undefined;1512 x 982;1512 x 945
H032;51;Mannelijk;Rechts;4;35;left;no;50;leftarrow;328;true;focus;yes;797950;Chrome;112.0;macOS;10.15.7;undefined;undefined;1512 x 982;1512 x 945
H032;51;Mannelijk;Rechts;4;36;right;yes;50;rightarrow;390;false;focus;yes;799108;Chrome;112.0;macOS;10.15.7;undefined;undefined;1512 x 982;1512 x 945
H032;51;Mannelijk;Rechts;4;37;left;yes;50;rightarrow;282;false;focus;yes;800159;Chrome;112.0;macOS;10.15.7;undefined;undefined;1512 x 982;1512 x 945
H032;51;Mannelijk;Rechts;4;38;right;no;50;rightarrow;430;true;focus;yes;801355;Chrome;112.0;macOS;10.15.7;undefined;undefined;1512 x 982;1512 x 945
H032;51;Mannelijk;Rechts;4;39;right;no;50;rightarrow;374;true;focus;yes;802500;Chrome;112.0;macOS;10.15.7;undefined;undefined;1512 x 982;1512 x 945
H032;51;Mannelijk;Rechts;4;40;left;no;50;leftarrow;431;true;focus;yes;803700;Chrome;112.0;macOS;10.15.7;undefined;undefined;1512 x 982;1512 x 945
H032;51;Mannelijk;Rechts;4;41;right;no;50;rightarrow;525;true;focus;yes;804988;Chrome;112.0;macOS;10.15.7;undefined;undefined;1512 x 982;1512 x 945
H032;51;Mannelijk;Rechts;4;42;left;yes;50;leftarrow;301;false;focus;yes;806058;Chrome;112.0;macOS;10.15.7;undefined;undefined;1512 x 982;1512 x 945
H032;51;Mannelijk;Rechts;4;43;right;yes;50;rightarrow;462;false;focus;yes;807291;Chrome;112.0;macOS;10.15.7;undefined;undefined;1512 x 982;1512 x 945
H032;51;Mannelijk;Rechts;4;44;right;no;50;rightarrow;370;true;focus;yes;808434;Chrome;112.0;macOS;10.15.7;undefined;undefined;1512 x 982;1512 x 945
H032;51;Mannelijk;Rechts;4;45;left;no;50;leftarrow;390;true;focus;yes;809594;Chrome;112.0;macOS;10.15.7;undefined;undefined;1512 x 982;1512 x 945
H032;51;Mannelijk;Rechts;4;46;right;no;50;rightarrow;489;true;focus;yes;810846;Chrome;112.0;macOS;10.15.7;undefined;undefined;1512 x 982;1512 x 945
H032;51;Mannelijk;Rechts;4;47;left;no;50;leftarrow;423;true;focus;yes;812034;Chrome;112.0;macOS;10.15.7;undefined;undefined;1512 x 982;1512 x 945
H032;51;Mannelijk;Rechts;4;48;left;no;50;leftarrow;428;true;focus;yes;813233;Chrome;112.0;macOS;10.15.7;undefined;undefined;1512 x 982;1512 x 945
H032;51;Mannelijk;Rechts;4;49;right;no;50;rightarrow;406;true;focus;yes;814411;Chrome;112.0;macOS;10.15.7;undefined;undefined;1512 x 982;1512 x 945
H032;51;Mannelijk;Rechts;4;50;left;no;50;leftarrow;370;true;focus;yes;815551;Chrome;112.0;macOS;10.15.7;undefined;undefined;1512 x 982;1512 x 945
H032;51;Mannelijk;Rechts;4;51;right;no;50;rightarrow;477;true;focus;yes;816794;Chrome;112.0;macOS;10.15.7;undefined;undefined;1512 x 982;1512 x 945
H032;51;Mannelijk;Rechts;4;52;left;no;50;leftarrow;278;true;focus;yes;817835;Chrome;112.0;macOS;10.15.7;undefined;undefined;1512 x 982;1512 x 945
H032;51;Mannelijk;Rechts;4;53;right;yes;50;rightarrow;337;false;focus;yes;818941;Chrome;112.0;macOS;10.15.7;undefined;undefined;1512 x 982;1512 x 945
H032;51;Mannelijk;Rechts;4;54;left;no;50;leftarrow;335;true;focus;yes;820045;Chrome;112.0;macOS;10.15.7;undefined;undefined;1512 x 982;1512 x 945
H032;51;Mannelijk;Rechts;4;55;left;yes;50;leftarrow;491;false;focus;yes;821305;Chrome;112.0;macOS;10.15.7;undefined;undefined;1512 x 982;1512 x 945
H032;51;Mannelijk;Rechts;4;56;right;no;50;rightarrow;389;true;focus;yes;822457;Chrome;112.0;macOS;10.15.7;undefined;undefined;1512 x 982;1512 x 945
H032;51;Mannelijk;Rechts;4;57;right;no;50;rightarrow;530;true;focus;yes;823751;Chrome;112.0;macOS;10.15.7;undefined;undefined;1512 x 982;1512 x 945
H032;51;Mannelijk;Rechts;4;58;right;no;50;rightarrow;371;true;focus;yes;824889;Chrome;112.0;macOS;10.15.7;undefined;undefined;1512 x 982;1512 x 945
H032;51;Mannelijk;Rechts;4;59;left;no;50;leftarrow;403;true;focus;yes;826055;Chrome;112.0;macOS;10.15.7;undefined;undefined;1512 x 982;1512 x 945
H032;51;Mannelijk;Rechts;4;60;left;no;50;leftarrow;358;true;focus;yes;827180;Chrome;112.0;macOS;10.15.7;undefined;undefined;1512 x 982;1512 x 945
H032;51;Mannelijk;Rechts;4;61;right;yes;50;rightarrow;439;false;focus;yes;828389;Chrome;112.0;macOS;10.15.7;undefined;undefined;1512 x 982;1512 x 945
H032;51;Mannelijk;Rechts;4;62;right;no;50;rightarrow;404;true;focus;yes;829562;Chrome;112.0;macOS;10.15.7;undefined;undefined;1512 x 982;1512 x 945
H032;51;Mannelijk;Rechts;4;63;left;yes;50;leftarrow;388;false;focus;yes;830715;Chrome;112.0;macOS;10.15.7;undefined;undefined;1512 x 982;1512 x 945
H032;51;Mannelijk;Rechts;4;64;left;no;50;leftarrow;469;true;focus;yes;831955;Chrome;112.0;macOS;10.15.7;undefined;undefined;1512 x 982;1512 x 945
H032;51;Mannelijk;Rechts;4;65;left;no;50;leftarrow;384;true;focus;yes;833110;Chrome;112.0;macOS;10.15.7;undefined;undefined;1512 x 982;1512 x 945
H032;51;Mannelijk;Rechts;4;66;right;no;50;rightarrow;429;true;focus;yes;834310;Chrome;112.0;macOS;10.15.7;undefined;undefined;1512 x 982;1512 x 945
H032;51;Mannelijk;Rechts;4;67;left;yes;50;leftarrow;330;false;focus;yes;835407;Chrome;112.0;macOS;10.15.7;undefined;undefined;1512 x 982;1512 x 945
H032;51;Mannelijk;Rechts;4;68;right;no;50;rightarrow;308;true;focus;yes;836491;Chrome;112.0;macOS;10.15.7;undefined;undefined;1512 x 982;1512 x 945
H032;51;Mannelijk;Rechts;4;69;right;yes;50;rightarrow;406;false;focus;yes;837668;Chrome;112.0;macOS;10.15.7;undefined;undefined;1512 x 982;1512 x 945
H032;51;Mannelijk;Rechts;4;70;right;no;50;rightarrow;307;true;focus;yes;838744;Chrome;112.0;macOS;10.15.7;undefined;undefined;1512 x 982;1512 x 945
H032;51;Mannelijk;Rechts;4;71;left;no;50;leftarrow;378;true;focus;yes;839886;Chrome;112.0;macOS;10.15.7;undefined;undefined;1512 x 982;1512 x 945
H032;51;Mannelijk;Rechts;4;72;left;no;50;leftarrow;532;true;focus;yes;841186;Chrome;112.0;macOS;10.15.7;undefined;undefined;1512 x 982;1512 x 945
H032;51;Mannelijk;Rechts;4;73;left;no;50;leftarrow;439;true;focus;yes;842390;Chrome;112.0;macOS;10.15.7;undefined;undefined;1512 x 982;1512 x 945
H032;51;Mannelijk;Rechts;4;74;right;no;50;rightarrow;349;true;focus;yes;843505;Chrome;112.0;macOS;10.15.7;undefined;undefined;1512 x 982;1512 x 945
H032;51;Mannelijk;Rechts;4;75;left;no;50;leftarrow;418;true;focus;yes;844687;Chrome;112.0;macOS;10.15.7;undefined;undefined;1512 x 982;1512 x 945
H032;51;Mannelijk;Rechts;4;76;right;no;50;rightarrow;368;true;focus;yes;845822;Chrome;112.0;macOS;10.15.7;undefined;undefined;1512 x 982;1512 x 945
H032;51;Mannelijk;Rechts;4;77;left;yes;50;leftarrow;313;false;focus;yes;846904;Chrome;112.0;macOS;10.15.7;undefined;undefined;1512 x 982;1512 x 945
H032;51;Mannelijk;Rechts;4;78;left;no;50;leftarrow;402;true;focus;yes;848071;Chrome;112.0;macOS;10.15.7;undefined;undefined;1512 x 982;1512 x 945
H032;51;Mannelijk;Rechts;4;79;right;yes;50;rightarrow;417;false;focus;yes;849254;Chrome;112.0;macOS;10.15.7;undefined;undefined;1512 x 982;1512 x 945
H032;51;Mannelijk;Rechts;4;80;right;no;50;rightarrow;417;true;focus;yes;850439;Chrome;112.0;macOS;10.15.7;undefined;undefined;1512 x 982;1512 x 945
H032;51;Mannelijk;Rechts;4;81;right;no;50;rightarrow;338;true;focus;yes;851543;Chrome;112.0;macOS;10.15.7;undefined;undefined;1512 x 982;1512 x 945
H032;51;Mannelijk;Rechts;4;82;right;no;50;rightarrow;353;true;focus;yes;852663;Chrome;112.0;macOS;10.15.7;undefined;undefined;1512 x 982;1512 x 945
H032;51;Mannelijk;Rechts;4;83;left;yes;50;leftarrow;413;false;focus;yes;853843;Chrome;112.0;macOS;10.15.7;undefined;undefined;1512 x 982;1512 x 945
H032;51;Mannelijk;Rechts;4;84;right;no;50;rightarrow;458;true;focus;yes;855072;Chrome;112.0;macOS;10.15.7;undefined;undefined;1512 x 982;1512 x 945
H032;51;Mannelijk;Rechts;4;85;left;no;50;leftarrow;325;true;focus;yes;856160;Chrome;112.0;macOS;10.15.7;undefined;undefined;1512 x 982;1512 x 945
H032;51;Mannelijk;Rechts;4;86;left;no;50;rightarrow;270;false;focus;yes;857204;Chrome;112.0;macOS;10.15.7;undefined;undefined;1512 x 982;1512 x 945
H032;51;Mannelijk;Rechts;4;87;left;no;50;rightarrow;73;false;focus;yes;858047;Chrome;112.0;macOS;10.15.7;undefined;undefined;1512 x 982;1512 x 945
H032;51;Mannelijk;Rechts;4;88;right;yes;50;rightarrow;280;false;focus;yes;859093;Chrome;112.0;macOS;10.15.7;undefined;undefined;1512 x 982;1512 x 945
H032;51;Mannelijk;Rechts;4;89;right;no;50;leftarrow;321;false;focus;yes;860176;Chrome;112.0;macOS;10.15.7;undefined;undefined;1512 x 982;1512 x 945
H032;51;Mannelijk;Rechts;4;90;left;no;50;leftarrow;505;true;focus;yes;861452;Chrome;112.0;macOS;10.15.7;undefined;undefined;1512 x 982;1512 x 945
H032;51;Mannelijk;Rechts;4;91;right;no;50;rightarrow;387;true;focus;yes;862609;Chrome;112.0;macOS;10.15.7;undefined;undefined;1512 x 982;1512 x 945
H032;51;Mannelijk;Rechts;4;92;right;no;50;rightarrow;352;true;focus;yes;863726;Chrome;112.0;macOS;10.15.7;undefined;undefined;1512 x 982;1512 x 945
H032;51;Mannelijk;Rechts;4;93;right;yes;50;rightarrow;257;false;focus;yes;864753;Chrome;112.0;macOS;10.15.7;undefined;undefined;1512 x 982;1512 x 945
H032;51;Mannelijk;Rechts;4;94;left;yes;50;leftarrow;368;false;focus;yes;865886;Chrome;112.0;macOS;10.15.7;undefined;undefined;1512 x 982;1512 x 945
H032;51;Mannelijk;Rechts;4;95;left;no;50;leftarrow;410;true;focus;yes;867064;Chrome;112.0;macOS;10.15.7;undefined;undefined;1512 x 982;1512 x 945
H032;51;Mannelijk;Rechts;4;96;left;no;50;rightarrow;256;false;focus;yes;868084;Chrome;112.0;macOS;10.15.7;undefined;undefined;1512 x 982;1512 x 945
H032;51;Mannelijk;Rechts;4;97;left;no;50;rightarrow;-3;false;focus;yes;868845;Chrome;112.0;macOS;10.15.7;undefined;undefined;1512 x 982;1512 x 945
H032;51;Mannelijk;Rechts;4;98;left;no;50;leftarrow;424;true;focus;yes;870046;Chrome;112.0;macOS;10.15.7;undefined;undefined;1512 x 982;1512 x 945
H032;51;Mannelijk;Rechts;4;99;right;no;50;rightarrow;503;true;focus;yes;871317;Chrome;112.0;macOS;10.15.7;undefined;undefined;1512 x 982;1512 x 945
H032;51;Mannelijk;Rechts;4;100;right;no;50;rightarrow;425;true;focus;yes;872505;Chrome;112.0;macOS;10.15.7;undefined;undefined;1512 x 982;1512 x 945
H032;51;Mannelijk;Rechts;4;101;left;yes;50;leftarrow;437;false;focus;yes;873707;Chrome;112.0;macOS;10.15.7;undefined;undefined;1512 x 982;1512 x 945
H032;51;Mannelijk;Rechts;4;102;right;yes;50;rightarrow;353;false;focus;yes;874832;Chrome;112.0;macOS;10.15.7;undefined;undefined;1512 x 982;1512 x 945
H032;51;Mannelijk;Rechts;4;103;right;no;50;rightarrow;370;true;focus;yes;875966;Chrome;112.0;macOS;10.15.7;undefined;undefined;1512 x 982;1512 x 945
H032;51;Mannelijk;Rechts;4;104;left;no;50;leftarrow;393;true;focus;yes;877126;Chrome;112.0;macOS;10.15.7;undefined;undefined;1512 x 982;1512 x 945
H032;51;Mannelijk;Rechts;4;105;right;no;50;rightarrow;393;true;focus;yes;878287;Chrome;112.0;macOS;10.15.7;undefined;undefined;1512 x 982;1512 x 945
H032;51;Mannelijk;Rechts;4;106;right;no;50;rightarrow;343;true;focus;yes;879397;Chrome;112.0;macOS;10.15.7;undefined;undefined;1512 x 982;1512 x 945
H032;51;Mannelijk;Rechts;4;107;left;no;50;leftarrow;396;true;focus;yes;880561;Chrome;112.0;macOS;10.15.7;undefined;undefined;1512 x 982;1512 x 945
H032;51;Mannelijk;Rechts;4;108;right;no;50;rightarrow;286;true;focus;yes;881613;Chrome;112.0;macOS;10.15.7;undefined;undefined;1512 x 982;1512 x 945
H032;51;Mannelijk;Rechts;4;109;right;yes;50;rightarrow;389;false;focus;yes;882773;Chrome;112.0;macOS;10.15.7;undefined;undefined;1512 x 982;1512 x 945
H032;51;Mannelijk;Rechts;4;110;left;no;50;leftarrow;359;true;focus;yes;883901;Chrome;112.0;macOS;10.15.7;undefined;undefined;1512 x 982;1512 x 945
H032;51;Mannelijk;Rechts;4;111;left;yes;50;leftarrow;326;false;focus;yes;884996;Chrome;112.0;macOS;10.15.7;undefined;undefined;1512 x 982;1512 x 945
H032;51;Mannelijk;Rechts;4;112;left;no;50;leftarrow;367;true;focus;yes;886133;Chrome;112.0;macOS;10.15.7;undefined;undefined;1512 x 982;1512 x 945
H032;51;Mannelijk;Rechts;4;113;right;no;50;rightarrow;314;true;focus;yes;887213;Chrome;112.0;macOS;10.15.7;undefined;undefined;1512 x 982;1512 x 945
H032;51;Mannelijk;Rechts;4;114;left;yes;50;leftarrow;360;false;focus;yes;888343;Chrome;112.0;macOS;10.15.7;undefined;undefined;1512 x 982;1512 x 945
H032;51;Mannelijk;Rechts;4;115;right;no;50;rightarrow;365;true;focus;yes;889474;Chrome;112.0;macOS;10.15.7;undefined;undefined;1512 x 982;1512 x 945
H032;51;Mannelijk;Rechts;4;116;left;no;50;leftarrow;322;true;focus;yes;890560;Chrome;112.0;macOS;10.15.7;undefined;undefined;1512 x 982;1512 x 945
H032;51;Mannelijk;Rechts;4;117;right;yes;50;rightarrow;295;false;focus;yes;891622;Chrome;112.0;macOS;10.15.7;undefined;undefined;1512 x 982;1512 x 945
H032;51;Mannelijk;Rechts;4;118;left;no;50;leftarrow;296;true;focus;yes;892685;Chrome;112.0;macOS;10.15.7;undefined;undefined;1512 x 982;1512 x 945
H032;51;Mannelijk;Rechts;4;119;right;no;50;rightarrow;599;true;focus;yes;894055;Chrome;112.0;macOS;10.15.7;undefined;undefined;1512 x 982;1512 x 945
H032;51;Mannelijk;Rechts;4;120;left;no;50;leftarrow;298;true;focus;yes;895119;Chrome;112.0;macOS;10.15.7;undefined;undefined;1512 x 982;1512 x 945
H032;51;Mannelijk;Rechts;4;121;left;yes;50;leftarrow;354;false;focus;yes;896240;Chrome;112.0;macOS;10.15.7;undefined;undefined;1512 x 982;1512 x 945
H032;51;Mannelijk;Rechts;4;122;left;no;50;leftarrow;323;true;focus;yes;897329;Chrome;112.0;macOS;10.15.7;undefined;undefined;1512 x 982;1512 x 945
H032;51;Mannelijk;Rechts;4;123;right;no;50;rightarrow;378;true;focus;yes;898470;Chrome;112.0;macOS;10.15.7;undefined;undefined;1512 x 982;1512 x 945
H032;51;Mannelijk;Rechts;4;124;right;no;50;rightarrow;358;true;focus;yes;899595;Chrome;112.0;macOS;10.15.7;undefined;undefined;1512 x 982;1512 x 945
H032;51;Mannelijk;Rechts;4;125;right;yes;50;rightarrow;378;false;focus;yes;900737;Chrome;112.0;macOS;10.15.7;undefined;undefined;1512 x 982;1512 x 945
H032;51;Mannelijk;Rechts;4;126;right;no;50;rightarrow;371;true;focus;yes;901872;Chrome;112.0;macOS;10.15.7;undefined;undefined;1512 x 982;1512 x 945
H032;51;Mannelijk;Rechts;4;127;left;no;50;rightarrow;258;false;focus;yes;902896;Chrome;112.0;macOS;10.15.7;undefined;undefined;1512 x 982;1512 x 945
H032;51;Mannelijk;Rechts;4;128;left;no;50;leftarrow;325;true;focus;yes;903986;Chrome;112.0;macOS;10.15.7;undefined;undefined;1512 x 982;1512 x 945
H032;51;Mannelijk;Rechts;5;1;left;no;50;leftarrow;523;true;focus;yes;959452;Chrome;112.0;macOS;10.15.7;undefined;undefined;1512 x 982;1512 x 945
H032;51;Mannelijk;Rechts;5;2;right;yes;50;rightarrow;384;false;focus;yes;960604;Chrome;112.0;macOS;10.15.7;undefined;undefined;1512 x 982;1512 x 945
H032;51;Mannelijk;Rechts;5;3;left;no;50;leftarrow;373;true;focus;yes;961750;Chrome;112.0;macOS;10.15.7;undefined;undefined;1512 x 982;1512 x 945
H032;51;Mannelijk;Rechts;5;4;right;no;50;rightarrow;378;true;focus;yes;962891;Chrome;112.0;macOS;10.15.7;undefined;undefined;1512 x 982;1512 x 945
H032;51;Mannelijk;Rechts;5;5;left;no;50;leftarrow;380;true;focus;yes;964040;Chrome;112.0;macOS;10.15.7;undefined;undefined;1512 x 982;1512 x 945
H032;51;Mannelijk;Rechts;5;6;right;no;50;rightarrow;329;true;focus;yes;965134;Chrome;112.0;macOS;10.15.7;undefined;undefined;1512 x 982;1512 x 945
H032;51;Mannelijk;Rechts;5;7;right;no;50;rightarrow;273;true;focus;yes;966175;Chrome;112.0;macOS;10.15.7;undefined;undefined;1512 x 982;1512 x 945
H032;51;Mannelijk;Rechts;5;8;left;yes;50;leftarrow;280;false;focus;yes;967225;Chrome;112.0;macOS;10.15.7;undefined;undefined;1512 x 982;1512 x 945
H032;51;Mannelijk;Rechts;5;9;left;no;50;leftarrow;391;true;focus;yes;968381;Chrome;112.0;macOS;10.15.7;undefined;undefined;1512 x 982;1512 x 945
H032;51;Mannelijk;Rechts;5;10;left;no;50;leftarrow;373;true;focus;yes;969524;Chrome;112.0;macOS;10.15.7;undefined;undefined;1512 x 982;1512 x 945
H032;51;Mannelijk;Rechts;5;11;left;yes;50;leftarrow;414;false;focus;yes;970707;Chrome;112.0;macOS;10.15.7;undefined;undefined;1512 x 982;1512 x 945
H032;51;Mannelijk;Rechts;5;12;right;yes;50;rightarrow;382;false;focus;yes;971853;Chrome;112.0;macOS;10.15.7;undefined;undefined;1512 x 982;1512 x 945
H032;51;Mannelijk;Rechts;5;13;right;no;50;rightarrow;319;true;focus;yes;972943;Chrome;112.0;macOS;10.15.7;undefined;undefined;1512 x 982;1512 x 945
H032;51;Mannelijk;Rechts;5;14;right;no;50;rightarrow;310;true;focus;yes;974019;Chrome;112.0;macOS;10.15.7;undefined;undefined;1512 x 982;1512 x 945
H032;51;Mannelijk;Rechts;5;15;left;no;50;leftarrow;366;true;focus;yes;975166;Chrome;112.0;macOS;10.15.7;undefined;undefined;1512 x 982;1512 x 945
H032;51;Mannelijk;Rechts;5;16;right;no;50;rightarrow;391;true;focus;yes;976334;Chrome;112.0;macOS;10.15.7;undefined;undefined;1512 x 982;1512 x 945
H032;51;Mannelijk;Rechts;5;17;left;no;50;leftarrow;363;true;focus;yes;977464;Chrome;112.0;macOS;10.15.7;undefined;undefined;1512 x 982;1512 x 945
H032;51;Mannelijk;Rechts;5;18;right;yes;50;rightarrow;316;false;focus;yes;978546;Chrome;112.0;macOS;10.15.7;undefined;undefined;1512 x 982;1512 x 945
H032;51;Mannelijk;Rechts;5;19;right;no;50;rightarrow;370;true;focus;yes;979681;Chrome;112.0;macOS;10.15.7;undefined;undefined;1512 x 982;1512 x 945
H032;51;Mannelijk;Rechts;5;20;right;no;50;leftarrow;348;false;focus;yes;980795;Chrome;112.0;macOS;10.15.7;undefined;undefined;1512 x 982;1512 x 945
H032;51;Mannelijk;Rechts;5;21;left;no;50;leftarrow;349;true;focus;yes;981918;Chrome;112.0;macOS;10.15.7;undefined;undefined;1512 x 982;1512 x 945
H032;51;Mannelijk;Rechts;5;22;right;no;50;rightarrow;376;true;focus;yes;983063;Chrome;112.0;macOS;10.15.7;undefined;undefined;1512 x 982;1512 x 945
H032;51;Mannelijk;Rechts;5;23;left;no;50;leftarrow;368;true;focus;yes;984198;Chrome;112.0;macOS;10.15.7;undefined;undefined;1512 x 982;1512 x 945
H032;51;Mannelijk;Rechts;5;24;left;yes;50;leftarrow;435;false;focus;yes;985401;Chrome;112.0;macOS;10.15.7;undefined;undefined;1512 x 982;1512 x 945
H032;51;Mannelijk;Rechts;5;25;left;no;50;leftarrow;358;true;focus;yes;986525;Chrome;112.0;macOS;10.15.7;undefined;undefined;1512 x 982;1512 x 945
H032;51;Mannelijk;Rechts;5;26;right;yes;50;rightarrow;396;false;focus;yes;987693;Chrome;112.0;macOS;10.15.7;undefined;undefined;1512 x 982;1512 x 945
H032;51;Mannelijk;Rechts;5;27;left;yes;50;leftarrow;386;false;focus;yes;988850;Chrome;112.0;macOS;10.15.7;undefined;undefined;1512 x 982;1512 x 945
H032;51;Mannelijk;Rechts;5;28;right;no;50;rightarrow;430;true;focus;yes;990046;Chrome;112.0;macOS;10.15.7;undefined;undefined;1512 x 982;1512 x 945
H032;51;Mannelijk;Rechts;5;29;left;no;50;leftarrow;348;true;focus;yes;991163;Chrome;112.0;macOS;10.15.7;undefined;undefined;1512 x 982;1512 x 945
H032;51;Mannelijk;Rechts;5;30;right;no;50;rightarrow;378;true;focus;yes;992305;Chrome;112.0;macOS;10.15.7;undefined;undefined;1512 x 982;1512 x 945
H032;51;Mannelijk;Rechts;5;31;right;no;50;rightarrow;355;true;focus;yes;993428;Chrome;112.0;macOS;10.15.7;undefined;undefined;1512 x 982;1512 x 945
H032;51;Mannelijk;Rechts;5;32;left;no;50;leftarrow;396;true;focus;yes;994596;Chrome;112.0;macOS;10.15.7;undefined;undefined;1512 x 982;1512 x 945
H032;51;Mannelijk;Rechts;5;33;right;no;50;rightarrow;305;true;focus;yes;995675;Chrome;112.0;macOS;10.15.7;undefined;undefined;1512 x 982;1512 x 945
H032;51;Mannelijk;Rechts;5;34;left;no;50;leftarrow;306;true;focus;yes;996756;Chrome;112.0;macOS;10.15.7;undefined;undefined;1512 x 982;1512 x 945
H032;51;Mannelijk;Rechts;5;35;right;no;50;rightarrow;225;true;focus;yes;997754;Chrome;112.0;macOS;10.15.7;undefined;undefined;1512 x 982;1512 x 945
H032;51;Mannelijk;Rechts;5;36;left;no;50;leftarrow;279;true;focus;yes;998799;Chrome;112.0;macOS;10.15.7;undefined;undefined;1512 x 982;1512 x 945
H032;51;Mannelijk;Rechts;5;37;right;no;50;rightarrow;297;true;focus;yes;999864;Chrome;112.0;macOS;10.15.7;undefined;undefined;1512 x 982;1512 x 945
H032;51;Mannelijk;Rechts;5;38;left;no;50;leftarrow;302;true;focus;yes;1000933;Chrome;112.0;macOS;10.15.7;undefined;undefined;1512 x 982;1512 x 945
H032;51;Mannelijk;Rechts;5;39;right;yes;50;rightarrow;461;false;focus;yes;1002162;Chrome;112.0;macOS;10.15.7;undefined;undefined;1512 x 982;1512 x 945
H032;51;Mannelijk;Rechts;5;40;left;yes;50;leftarrow;392;false;focus;yes;1003320;Chrome;112.0;macOS;10.15.7;undefined;undefined;1512 x 982;1512 x 945
H032;51;Mannelijk;Rechts;5;41;left;no;50;rightarrow;277;false;focus;yes;1004364;Chrome;112.0;macOS;10.15.7;undefined;undefined;1512 x 982;1512 x 945
H032;51;Mannelijk;Rechts;5;42;left;no;50;rightarrow;328;false;focus;yes;1005464;Chrome;112.0;macOS;10.15.7;undefined;undefined;1512 x 982;1512 x 945
H032;51;Mannelijk;Rechts;5;43;left;yes;50;leftarrow;314;false;focus;yes;1006545;Chrome;112.0;macOS;10.15.7;undefined;undefined;1512 x 982;1512 x 945
H032;51;Mannelijk;Rechts;5;44;right;yes;50;rightarrow;415;false;focus;yes;1007725;Chrome;112.0;macOS;10.15.7;undefined;undefined;1512 x 982;1512 x 945
H032;51;Mannelijk;Rechts;5;45;right;no;50;leftarrow;283;false;focus;yes;1008778;Chrome;112.0;macOS;10.15.7;undefined;undefined;1512 x 982;1512 x 945
H032;51;Mannelijk;Rechts;5;46;right;no;50;leftarrow;310;false;focus;yes;1009852;Chrome;112.0;macOS;10.15.7;undefined;undefined;1512 x 982;1512 x 945
H032;51;Mannelijk;Rechts;5;47;left;no;50;leftarrow;509;true;focus;yes;1011132;Chrome;112.0;macOS;10.15.7;undefined;undefined;1512 x 982;1512 x 945
H032;51;Mannelijk;Rechts;5;48;right;no;50;rightarrow;304;true;focus;yes;1012208;Chrome;112.0;macOS;10.15.7;undefined;undefined;1512 x 982;1512 x 945
H032;51;Mannelijk;Rechts;5;49;right;no;50;rightarrow;367;true;focus;yes;1013343;Chrome;112.0;macOS;10.15.7;undefined;undefined;1512 x 982;1512 x 945
H032;51;Mannelijk;Rechts;5;50;left;yes;50;leftarrow;387;false;focus;yes;1014497;Chrome;112.0;macOS;10.15.7;undefined;undefined;1512 x 982;1512 x 945
H032;51;Mannelijk;Rechts;5;51;right;no;50;rightarrow;261;true;focus;yes;1015523;Chrome;112.0;macOS;10.15.7;undefined;undefined;1512 x 982;1512 x 945
H032;51;Mannelijk;Rechts;5;52;right;no;50;rightarrow;343;true;focus;yes;1016638;Chrome;112.0;macOS;10.15.7;undefined;undefined;1512 x 982;1512 x 945
H032;51;Mannelijk;Rechts;5;53;left;no;50;leftarrow;327;true;focus;yes;1017735;Chrome;112.0;macOS;10.15.7;undefined;undefined;1512 x 982;1512 x 945
H032;51;Mannelijk;Rechts;5;54;left;no;50;rightarrow;258;false;focus;yes;1018760;Chrome;112.0;macOS;10.15.7;undefined;undefined;1512 x 982;1512 x 945
H032;51;Mannelijk;Rechts;5;55;left;no;50;leftarrow;477;true;focus;yes;1020004;Chrome;112.0;macOS;10.15.7;undefined;undefined;1512 x 982;1512 x 945
H032;51;Mannelijk;Rechts;5;56;right;yes;50;rightarrow;328;false;focus;yes;1021094;Chrome;112.0;macOS;10.15.7;undefined;undefined;1512 x 982;1512 x 945
H032;51;Mannelijk;Rechts;5;57;right;no;50;rightarrow;402;true;focus;yes;1022264;Chrome;112.0;macOS;10.15.7;undefined;undefined;1512 x 982;1512 x 945
H032;51;Mannelijk;Rechts;5;58;left;no;50;leftarrow;378;true;focus;yes;1023409;Chrome;112.0;macOS;10.15.7;undefined;undefined;1512 x 982;1512 x 945
H032;51;Mannelijk;Rechts;5;59;left;no;50;rightarrow;318;false;focus;yes;1024491;Chrome;112.0;macOS;10.15.7;undefined;undefined;1512 x 982;1512 x 945
H032;51;Mannelijk;Rechts;5;60;right;yes;50;rightarrow;306;false;focus;yes;1025569;Chrome;112.0;macOS;10.15.7;undefined;undefined;1512 x 982;1512 x 945
H032;51;Mannelijk;Rechts;5;61;right;no;50;rightarrow;397;true;focus;yes;1026733;Chrome;112.0;macOS;10.15.7;undefined;undefined;1512 x 982;1512 x 945
H032;51;Mannelijk;Rechts;5;62;left;no;50;leftarrow;266;true;focus;yes;1027770;Chrome;112.0;macOS;10.15.7;undefined;undefined;1512 x 982;1512 x 945
H032;51;Mannelijk;Rechts;5;63;right;no;50;rightarrow;403;true;focus;yes;1028931;Chrome;112.0;macOS;10.15.7;undefined;undefined;1512 x 982;1512 x 945
H032;51;Mannelijk;Rechts;5;64;left;yes;50;leftarrow;282;false;focus;yes;1029977;Chrome;112.0;macOS;10.15.7;undefined;undefined;1512 x 982;1512 x 945
H032;51;Mannelijk;Rechts;5;65;left;no;50;leftarrow;568;true;focus;yes;1031310;Chrome;112.0;macOS;10.15.7;undefined;undefined;1512 x 982;1512 x 945
H032;51;Mannelijk;Rechts;5;66;right;no;50;rightarrow;402;true;focus;yes;1032482;Chrome;112.0;macOS;10.15.7;undefined;undefined;1512 x 982;1512 x 945
H032;51;Mannelijk;Rechts;5;67;left;no;50;leftarrow;312;true;focus;yes;1033560;Chrome;112.0;macOS;10.15.7;undefined;undefined;1512 x 982;1512 x 945
H032;51;Mannelijk;Rechts;5;68;right;yes;50;rightarrow;221;false;focus;yes;1034546;Chrome;112.0;macOS;10.15.7;undefined;undefined;1512 x 982;1512 x 945
H032;51;Mannelijk;Rechts;5;69;left;yes;50;leftarrow;273;false;focus;yes;1035596;Chrome;112.0;macOS;10.15.7;undefined;undefined;1512 x 982;1512 x 945
H032;51;Mannelijk;Rechts;5;70;right;no;50;rightarrow;314;true;focus;yes;1036684;Chrome;112.0;macOS;10.15.7;undefined;undefined;1512 x 982;1512 x 945
H032;51;Mannelijk;Rechts;5;71;left;no;50;leftarrow;253;true;focus;yes;1037700;Chrome;112.0;macOS;10.15.7;undefined;undefined;1512 x 982;1512 x 945
H032;51;Mannelijk;Rechts;5;72;right;no;50;rightarrow;277;true;focus;yes;1038740;Chrome;112.0;macOS;10.15.7;undefined;undefined;1512 x 982;1512 x 945
H032;51;Mannelijk;Rechts;5;73;left;no;50;leftarrow;352;true;focus;yes;1039862;Chrome;112.0;macOS;10.15.7;undefined;undefined;1512 x 982;1512 x 945
H032;51;Mannelijk;Rechts;5;74;right;no;50;rightarrow;287;true;focus;yes;1040912;Chrome;112.0;macOS;10.15.7;undefined;undefined;1512 x 982;1512 x 945
H032;51;Mannelijk;Rechts;5;75;right;yes;50;rightarrow;543;false;focus;yes;1042222;Chrome;112.0;macOS;10.15.7;undefined;undefined;1512 x 982;1512 x 945
H032;51;Mannelijk;Rechts;5;76;left;no;50;leftarrow;326;true;focus;yes;1043318;Chrome;112.0;macOS;10.15.7;undefined;undefined;1512 x 982;1512 x 945
H032;51;Mannelijk;Rechts;5;77;left;yes;50;leftarrow;366;false;focus;yes;1044453;Chrome;112.0;macOS;10.15.7;undefined;undefined;1512 x 982;1512 x 945
H032;51;Mannelijk;Rechts;5;78;left;no;50;rightarrow;227;false;focus;yes;1045445;Chrome;112.0;macOS;10.15.7;undefined;undefined;1512 x 982;1512 x 945
H032;51;Mannelijk;Rechts;5;79;right;no;50;rightarrow;407;true;focus;yes;1046621;Chrome;112.0;macOS;10.15.7;undefined;undefined;1512 x 982;1512 x 945
H032;51;Mannelijk;Rechts;5;80;right;no;50;rightarrow;372;true;focus;yes;1047772;Chrome;112.0;macOS;10.15.7;undefined;undefined;1512 x 982;1512 x 945
H032;51;Mannelijk;Rechts;5;81;right;no;50;rightarrow;305;true;focus;yes;1048849;Chrome;112.0;macOS;10.15.7;undefined;undefined;1512 x 982;1512 x 945
H032;51;Mannelijk;Rechts;5;82;right;yes;50;rightarrow;395;false;focus;yes;1050011;Chrome;112.0;macOS;10.15.7;undefined;undefined;1512 x 982;1512 x 945
H032;51;Mannelijk;Rechts;5;83;left;no;50;leftarrow;402;true;focus;yes;1051177;Chrome;112.0;macOS;10.15.7;undefined;undefined;1512 x 982;1512 x 945
H032;51;Mannelijk;Rechts;5;84;right;no;50;rightarrow;395;true;focus;yes;1052339;Chrome;112.0;macOS;10.15.7;undefined;undefined;1512 x 982;1512 x 945
H032;51;Mannelijk;Rechts;5;85;left;yes;50;leftarrow;350;false;focus;yes;1053461;Chrome;112.0;macOS;10.15.7;undefined;undefined;1512 x 982;1512 x 945
H032;51;Mannelijk;Rechts;5;86;left;no;50;rightarrow;289;false;focus;yes;1054519;Chrome;112.0;macOS;10.15.7;undefined;undefined;1512 x 982;1512 x 945
H032;51;Mannelijk;Rechts;5;87;right;no;50;rightarrow;305;true;focus;yes;1055592;Chrome;112.0;macOS;10.15.7;undefined;undefined;1512 x 982;1512 x 945
H032;51;Mannelijk;Rechts;5;88;left;no;50;leftarrow;282;true;focus;yes;1056641;Chrome;112.0;macOS;10.15.7;undefined;undefined;1512 x 982;1512 x 945
H032;51;Mannelijk;Rechts;5;89;left;no;50;leftarrow;442;true;focus;yes;1057849;Chrome;112.0;macOS;10.15.7;undefined;undefined;1512 x 982;1512 x 945
H032;51;Mannelijk;Rechts;5;90;right;no;50;leftarrow;305;false;focus;yes;1058920;Chrome;112.0;macOS;10.15.7;undefined;undefined;1512 x 982;1512 x 945
H032;51;Mannelijk;Rechts;5;91;left;no;50;rightarrow;221;false;focus;yes;1059907;Chrome;112.0;macOS;10.15.7;undefined;undefined;1512 x 982;1512 x 945
H032;51;Mannelijk;Rechts;5;92;right;no;50;rightarrow;312;true;focus;yes;1060992;Chrome;112.0;macOS;10.15.7;undefined;undefined;1512 x 982;1512 x 945
H032;51;Mannelijk;Rechts;5;93;left;no;50;leftarrow;302;true;focus;yes;1062061;Chrome;112.0;macOS;10.15.7;undefined;undefined;1512 x 982;1512 x 945
H032;51;Mannelijk;Rechts;5;94;right;no;50;rightarrow;270;true;focus;yes;1063101;Chrome;112.0;macOS;10.15.7;undefined;undefined;1512 x 982;1512 x 945
H032;51;Mannelijk;Rechts;5;95;right;yes;50;rightarrow;556;false;focus;yes;1064428;Chrome;112.0;macOS;10.15.7;undefined;undefined;1512 x 982;1512 x 945
H032;51;Mannelijk;Rechts;5;96;left;yes;50;leftarrow;319;false;focus;yes;1065520;Chrome;112.0;macOS;10.15.7;undefined;undefined;1512 x 982;1512 x 945
H032;51;Mannelijk;Rechts;5;97;right;no;50;rightarrow;220;true;focus;yes;1066507;Chrome;112.0;macOS;10.15.7;undefined;undefined;1512 x 982;1512 x 945
H032;51;Mannelijk;Rechts;5;98;right;no;50;rightarrow;398;true;focus;yes;1067680;Chrome;112.0;macOS;10.15.7;undefined;undefined;1512 x 982;1512 x 945
H032;51;Mannelijk;Rechts;5;99;left;yes;50;leftarrow;320;false;focus;yes;1068765;Chrome;112.0;macOS;10.15.7;undefined;undefined;1512 x 982;1512 x 945
H032;51;Mannelijk;Rechts;5;100;left;no;50;rightarrow;259;false;focus;yes;1069797;Chrome;112.0;macOS;10.15.7;undefined;undefined;1512 x 982;1512 x 945
H032;51;Mannelijk;Rechts;5;101;left;no;50;rightarrow;11;false;focus;yes;1070578;Chrome;112.0;macOS;10.15.7;undefined;undefined;1512 x 982;1512 x 945
H032;51;Mannelijk;Rechts;5;102;right;yes;50;rightarrow;431;false;focus;yes;1071783;Chrome;112.0;macOS;10.15.7;undefined;undefined;1512 x 982;1512 x 945
H032;51;Mannelijk;Rechts;5;103;left;no;50;leftarrow;357;true;focus;yes;1072919;Chrome;112.0;macOS;10.15.7;undefined;undefined;1512 x 982;1512 x 945
H032;51;Mannelijk;Rechts;5;104;right;no;50;rightarrow;395;true;focus;yes;1074091;Chrome;112.0;macOS;10.15.7;undefined;undefined;1512 x 982;1512 x 945
H032;51;Mannelijk;Rechts;5;105;left;no;50;leftarrow;348;true;focus;yes;1075203;Chrome;112.0;macOS;10.15.7;undefined;undefined;1512 x 982;1512 x 945
H032;51;Mannelijk;Rechts;5;106;right;yes;50;rightarrow;315;false;focus;yes;1076283;Chrome;112.0;macOS;10.15.7;undefined;undefined;1512 x 982;1512 x 945
H032;51;Mannelijk;Rechts;5;107;right;no;50;rightarrow;402;true;focus;yes;1077449;Chrome;112.0;macOS;10.15.7;undefined;undefined;1512 x 982;1512 x 945
H032;51;Mannelijk;Rechts;5;108;left;yes;50;leftarrow;269;false;focus;yes;1078485;Chrome;112.0;macOS;10.15.7;undefined;undefined;1512 x 982;1512 x 945
H032;51;Mannelijk;Rechts;5;109;right;no;50;rightarrow;326;true;focus;yes;1079580;Chrome;112.0;macOS;10.15.7;undefined;undefined;1512 x 982;1512 x 945
H032;51;Mannelijk;Rechts;5;110;left;no;50;leftarrow;375;true;focus;yes;1080737;Chrome;112.0;macOS;10.15.7;undefined;undefined;1512 x 982;1512 x 945
H032;51;Mannelijk;Rechts;5;111;right;no;50;rightarrow;317;true;focus;yes;1081820;Chrome;112.0;macOS;10.15.7;undefined;undefined;1512 x 982;1512 x 945
H032;51;Mannelijk;Rechts;5;112;left;no;50;leftarrow;684;true;focus;yes;1083277;Chrome;112.0;macOS;10.15.7;undefined;undefined;1512 x 982;1512 x 945
H032;51;Mannelijk;Rechts;5;113;right;yes;50;rightarrow;201;false;focus;yes;1084248;Chrome;112.0;macOS;10.15.7;undefined;undefined;1512 x 982;1512 x 945
H032;51;Mannelijk;Rechts;5;114;left;no;50;leftarrow;293;true;focus;yes;1085308;Chrome;112.0;macOS;10.15.7;undefined;undefined;1512 x 982;1512 x 945
H032;51;Mannelijk;Rechts;5;115;right;no;50;rightarrow;325;true;focus;yes;1086397;Chrome;112.0;macOS;10.15.7;undefined;undefined;1512 x 982;1512 x 945
H032;51;Mannelijk;Rechts;5;116;right;no;50;rightarrow;266;true;focus;yes;1087442;Chrome;112.0;macOS;10.15.7;undefined;undefined;1512 x 982;1512 x 945
H032;51;Mannelijk;Rechts;5;117;left;yes;50;leftarrow;468;false;focus;yes;1088677;Chrome;112.0;macOS;10.15.7;undefined;undefined;1512 x 982;1512 x 945
H032;51;Mannelijk;Rechts;5;118;left;no;50;rightarrow;277;false;focus;yes;1089735;Chrome;112.0;macOS;10.15.7;undefined;undefined;1512 x 982;1512 x 945
H032;51;Mannelijk;Rechts;5;119;right;no;50;rightarrow;6;true;focus;yes;1090507;Chrome;112.0;macOS;10.15.7;undefined;undefined;1512 x 982;1512 x 945
H032;51;Mannelijk;Rechts;5;120;left;no;50;leftarrow;203;true;focus;yes;1091484;Chrome;112.0;macOS;10.15.7;undefined;undefined;1512 x 982;1512 x 945
H032;51;Mannelijk;Rechts;5;121;right;yes;50;rightarrow;56;false;focus;yes;1092313;Chrome;112.0;macOS;10.15.7;undefined;undefined;1512 x 982;1512 x 945
H032;51;Mannelijk;Rechts;5;122;left;no;50;leftarrow;241;true;focus;yes;1093320;Chrome;112.0;macOS;10.15.7;undefined;undefined;1512 x 982;1512 x 945
H032;51;Mannelijk;Rechts;5;123;right;no;50;rightarrow;287;true;focus;yes;1094374;Chrome;112.0;macOS;10.15.7;undefined;undefined;1512 x 982;1512 x 945
H032;51;Mannelijk;Rechts;5;124;left;no;50;leftarrow;325;true;focus;yes;1095478;Chrome;112.0;macOS;10.15.7;undefined;undefined;1512 x 982;1512 x 945
H032;51;Mannelijk;Rechts;5;125;left;no;50;rightarrow;246;false;focus;yes;1096493;Chrome;112.0;macOS;10.15.7;undefined;undefined;1512 x 982;1512 x 945
H032;51;Mannelijk;Rechts;5;126;left;yes;50;rightarrow;185;false;focus;yes;1097450;Chrome;112.0;macOS;10.15.7;undefined;undefined;1512 x 982;1512 x 945
H032;51;Mannelijk;Rechts;5;127;right;no;50;rightarrow;374;true;focus;yes;1098590;Chrome;112.0;macOS;10.15.7;undefined;undefined;1512 x 982;1512 x 945
H032;51;Mannelijk;Rechts;5;128;right;no;50;rightarrow;421;true;focus;yes;1099782;Chrome;112.0;macOS;10.15.7;undefined;undefined;1512 x 982;1512 x 945
H032;51;Mannelijk;Rechts;6;1;left;yes;50;leftarrow;366;false;focus;yes;1120151;Chrome;112.0;macOS;10.15.7;undefined;undefined;1512 x 982;1512 x 945
H032;51;Mannelijk;Rechts;6;2;left;no;50;rightarrow;220;false;focus;yes;1121140;Chrome;112.0;macOS;10.15.7;undefined;undefined;1512 x 982;1512 x 945
H032;51;Mannelijk;Rechts;6;3;right;no;50;rightarrow;269;true;focus;yes;1122171;Chrome;112.0;macOS;10.15.7;undefined;undefined;1512 x 982;1512 x 945
H032;51;Mannelijk;Rechts;6;4;left;no;50;leftarrow;397;true;focus;yes;1123333;Chrome;112.0;macOS;10.15.7;undefined;undefined;1512 x 982;1512 x 945
H032;51;Mannelijk;Rechts;6;5;left;no;50;leftarrow;217;true;focus;yes;1124313;Chrome;112.0;macOS;10.15.7;undefined;undefined;1512 x 982;1512 x 945
H032;51;Mannelijk;Rechts;6;6;right;no;50;rightarrow;256;true;focus;yes;1125335;Chrome;112.0;macOS;10.15.7;undefined;undefined;1512 x 982;1512 x 945
H032;51;Mannelijk;Rechts;6;7;right;yes;50;leftarrow;243;false;focus;yes;1126345;Chrome;112.0;macOS;10.15.7;undefined;undefined;1512 x 982;1512 x 945
H032;51;Mannelijk;Rechts;6;8;right;no;50;leftarrow;281;false;focus;yes;1127391;Chrome;112.0;macOS;10.15.7;undefined;undefined;1512 x 982;1512 x 945
H032;51;Mannelijk;Rechts;6;9;right;no;50;rightarrow;371;true;focus;yes;1128531;Chrome;112.0;macOS;10.15.7;undefined;undefined;1512 x 982;1512 x 945
H032;51;Mannelijk;Rechts;6;10;right;no;50;rightarrow;374;true;focus;yes;1129670;Chrome;112.0;macOS;10.15.7;undefined;undefined;1512 x 982;1512 x 945
H032;51;Mannelijk;Rechts;6;11;right;yes;50;rightarrow;280;false;focus;yes;1130720;Chrome;112.0;macOS;10.15.7;undefined;undefined;1512 x 982;1512 x 945
H032;51;Mannelijk;Rechts;6;12;left;no;50;rightarrow;316;false;focus;yes;1131805;Chrome;112.0;macOS;10.15.7;undefined;undefined;1512 x 982;1512 x 945
H032;51;Mannelijk;Rechts;6;13;left;no;50;leftarrow;246;true;focus;yes;1132825;Chrome;112.0;macOS;10.15.7;undefined;undefined;1512 x 982;1512 x 945
H032;51;Mannelijk;Rechts;6;14;left;no;50;leftarrow;293;true;focus;yes;1133884;Chrome;112.0;macOS;10.15.7;undefined;undefined;1512 x 982;1512 x 945
H032;51;Mannelijk;Rechts;6;15;left;yes;50;leftarrow;441;false;focus;yes;1135099;Chrome;112.0;macOS;10.15.7;undefined;undefined;1512 x 982;1512 x 945
H032;51;Mannelijk;Rechts;6;16;right;no;50;leftarrow;285;false;focus;yes;1136149;Chrome;112.0;macOS;10.15.7;undefined;undefined;1512 x 982;1512 x 945
H032;51;Mannelijk;Rechts;6;17;right;yes;50;rightarrow;369;false;focus;yes;1137285;Chrome;112.0;macOS;10.15.7;undefined;undefined;1512 x 982;1512 x 945
H032;51;Mannelijk;Rechts;6;18;left;no;50;leftarrow;575;true;focus;yes;1138631;Chrome;112.0;macOS;10.15.7;undefined;undefined;1512 x 982;1512 x 945
H032;51;Mannelijk;Rechts;6;19;left;no;50;rightarrow;278;false;focus;yes;1139678;Chrome;112.0;macOS;10.15.7;undefined;undefined;1512 x 982;1512 x 945
H032;51;Mannelijk;Rechts;6;20;right;no;50;rightarrow;316;true;focus;yes;1140764;Chrome;112.0;macOS;10.15.7;undefined;undefined;1512 x 982;1512 x 945
H032;51;Mannelijk;Rechts;6;21;right;no;50;rightarrow;427;true;focus;yes;1141964;Chrome;112.0;macOS;10.15.7;undefined;undefined;1512 x 982;1512 x 945
H032;51;Mannelijk;Rechts;6;22;left;yes;50;leftarrow;252;false;focus;yes;1142987;Chrome;112.0;macOS;10.15.7;undefined;undefined;1512 x 982;1512 x 945
