participantID;age;gender;handedness;block_i;trial_i;stim;signal;SSD;response;rt;correct;focus;Fullscreen;time_elapsed;browser_name;browser_version;os_name;os_version;tablet;mobile;screen_resolution;window_resolution
participantID;age;gender;handedness;block_i;trial_i;stim;signal;SSD;response;rt;correct;focus;Fullscreen;time_elapsed;browser_name;browser_version;os_name;os_version;tablet;mobile;screen_resolution;window_resolution
H043;36;Mannelijk;Rechts;0;1;right;yes;200;rightarrow;475;false;focus;yes;59011;Firefox;89.0;Windows;10;undefined;undefined;1366 x 768;1366 x 768
H043;36;Mannelijk;Rechts;0;2;left;yes;150;rightarrow;259;false;focus;yes;60812;Firefox;89.0;Windows;10;undefined;undefined;1366 x 768;1366 x 768
H043;36;Mannelijk;Rechts;0;3;left;no;100;leftarrow;365;true;focus;yes;62706;Firefox;89.0;Windows;10;undefined;undefined;1366 x 768;1366 x 768
H043;36;Mannelijk;Rechts;0;4;right;no;100;rightarrow;315;true;focus;yes;64557;Firefox;89.0;Windows;10;undefined;undefined;1366 x 768;1366 x 768
H043;36;Mannelijk;Rechts;0;5;right;no;100;rightarrow;373;true;focus;yes;66455;Firefox;89.0;Windows;10;undefined;undefined;1366 x 768;1366 x 768
H043;36;Mannelijk;Rechts;0;6;right;no;100;rightarrow;343;true;focus;yes;68324;Firefox;89.0;Windows;10;undefined;undefined;1366 x 768;1366 x 768
H043;36;Mannelijk;Rechts;0;7;left;no;100;leftarrow;364;true;focus;yes;70223;Firefox;89.0;Windows;10;undefined;undefined;1366 x 768;1366 x 768
H043;36;Mannelijk;Rechts;0;8;left;no;100;leftarrow;382;true;focus;yes;72134;Firefox;89.0;Windows;10;undefined;undefined;1366 x 768;1366 x 768
H043;36;Mannelijk;Rechts;1;1;left;no;100;leftarrow;311;true;focus;yes;97362;Firefox;89.0;Windows;10;undefined;undefined;1366 x 768;1366 x 768
H043;36;Mannelijk;Rechts;1;2;left;no;100;leftarrow;319;true;focus;yes;98453;Firefox;89.0;Windows;10;undefined;undefined;1366 x 768;1366 x 768
H043;36;Mannelijk;Rechts;1;3;right;no;100;rightarrow;506;true;focus;yes;99733;Firefox;89.0;Windows;10;undefined;undefined;1366 x 768;1366 x 768
H043;36;Mannelijk;Rechts;1;4;left;no;100;leftarrow;328;true;focus;yes;100829;Firefox;89.0;Windows;10;undefined;undefined;1366 x 768;1366 x 768
H043;36;Mannelijk;Rechts;1;5;right;yes;100;rightarrow;392;false;focus;yes;101998;Firefox;89.0;Windows;10;undefined;undefined;1366 x 768;1366 x 768
H043;36;Mannelijk;Rechts;1;6;right;no;50;rightarrow;462;true;focus;yes;103218;Firefox;89.0;Windows;10;undefined;undefined;1366 x 768;1366 x 768
H043;36;Mannelijk;Rechts;1;7;left;yes;50;leftarrow;770;false;focus;yes;104758;Firefox;89.0;Windows;10;undefined;undefined;1366 x 768;1366 x 768
H043;36;Mannelijk;Rechts;1;8;right;no;50;rightarrow;520;true;focus;yes;106050;Firefox;89.0;Windows;10;undefined;undefined;1366 x 768;1366 x 768
H043;36;Mannelijk;Rechts;1;9;left;no;50;leftarrow;536;true;focus;yes;107371;Firefox;89.0;Windows;10;undefined;undefined;1366 x 768;1366 x 768
H043;36;Mannelijk;Rechts;1;10;right;no;50;rightarrow;475;true;focus;yes;108620;Firefox;89.0;Windows;10;undefined;undefined;1366 x 768;1366 x 768
H043;36;Mannelijk;Rechts;1;11;left;no;50;leftarrow;434;true;focus;yes;109829;Firefox;89.0;Windows;10;undefined;undefined;1366 x 768;1366 x 768
H043;36;Mannelijk;Rechts;1;12;right;yes;50;rightarrow;587;false;focus;yes;111179;Firefox;89.0;Windows;10;undefined;undefined;1366 x 768;1366 x 768
H043;36;Mannelijk;Rechts;1;13;right;no;50;rightarrow;399;true;focus;yes;112349;Firefox;89.0;Windows;10;undefined;undefined;1366 x 768;1366 x 768
H043;36;Mannelijk;Rechts;1;14;left;no;50;leftarrow;353;true;focus;yes;113469;Firefox;89.0;Windows;10;undefined;undefined;1366 x 768;1366 x 768
H043;36;Mannelijk;Rechts;1;15;left;yes;50;rightarrow;282;false;focus;yes;114518;Firefox;89.0;Windows;10;undefined;undefined;1366 x 768;1366 x 768
H043;36;Mannelijk;Rechts;1;16;right;no;50;rightarrow;393;true;focus;yes;115678;Firefox;89.0;Windows;10;undefined;undefined;1366 x 768;1366 x 768
H043;36;Mannelijk;Rechts;1;17;left;no;50;leftarrow;304;true;focus;yes;116760;Firefox;89.0;Windows;10;undefined;undefined;1366 x 768;1366 x 768
H043;36;Mannelijk;Rechts;1;18;left;no;50;leftarrow;305;true;focus;yes;117840;Firefox;89.0;Windows;10;undefined;undefined;1366 x 768;1366 x 768
H043;36;Mannelijk;Rechts;1;19;left;no;50;leftarrow;297;true;focus;yes;118897;Firefox;89.0;Windows;10;undefined;undefined;1366 x 768;1366 x 768
H043;36;Mannelijk;Rechts;1;20;left;yes;50;rightarrow;476;false;focus;yes;120157;Firefox;89.0;Windows;10;undefined;undefined;1366 x 768;1366 x 768
H043;36;Mannelijk;Rechts;1;21;right;no;50;rightarrow;407;true;focus;yes;121351;Firefox;89.0;Windows;10;undefined;undefined;1366 x 768;1366 x 768
H043;36;Mannelijk;Rechts;1;22;right;yes;50;rightarrow;389;false;focus;yes;122510;Firefox;89.0;Windows;10;undefined;undefined;1366 x 768;1366 x 768
H043;36;Mannelijk;Rechts;1;23;right;no;50;rightarrow;297;true;focus;yes;123578;Firefox;89.0;Windows;10;undefined;undefined;1366 x 768;1366 x 768
H043;36;Mannelijk;Rechts;1;24;right;no;50;leftarrow;321;false;focus;yes;124681;Firefox;89.0;Windows;10;undefined;undefined;1366 x 768;1366 x 768
H043;36;Mannelijk;Rechts;1;25;left;no;50;leftarrow;348;true;focus;yes;125808;Firefox;89.0;Windows;10;undefined;undefined;1366 x 768;1366 x 768
H043;36;Mannelijk;Rechts;1;26;left;no;50;leftarrow;317;true;focus;yes;126908;Firefox;89.0;Windows;10;undefined;undefined;1366 x 768;1366 x 768
H043;36;Mannelijk;Rechts;1;27;right;no;50;leftarrow;296;false;focus;yes;127981;Firefox;89.0;Windows;10;undefined;undefined;1366 x 768;1366 x 768
H043;36;Mannelijk;Rechts;1;28;right;yes;50;rightarrow;416;false;focus;yes;129166;Firefox;89.0;Windows;10;undefined;undefined;1366 x 768;1366 x 768
H043;36;Mannelijk;Rechts;1;29;right;no;50;rightarrow;400;true;focus;yes;130351;Firefox;89.0;Windows;10;undefined;undefined;1366 x 768;1366 x 768
H043;36;Mannelijk;Rechts;1;46;left;no;50;leftarrow;373;true;focus;yes;148994;Firefox;89.0;Windows;10;undefined;undefined;1366 x 768;1366 x 768
H043;36;Mannelijk;Rechts;1;62;left;yes;50;leftarrow;332;false;focus;yes;166202;Firefox;89.0;Windows;10;undefined;undefined;1366 x 768;1366 x 768
H043;36;Mannelijk;Rechts;1;63;right;no;50;rightarrow;337;true;focus;yes;167323;Firefox;89.0;Windows;10;undefined;undefined;1366 x 768;1366 x 768
H043;36;Mannelijk;Rechts;1;61;left;no;50;leftarrow;350;true;focus;yes;165090;Firefox;89.0;Windows;10;undefined;undefined;1366 x 768;1366 x 768
H043;36;Mannelijk;Rechts;1;38;left;no;50;rightarrow;271;false;focus;yes;140352;Firefox;89.0;Windows;10;undefined;undefined;1366 x 768;1366 x 768
H043;36;Mannelijk;Rechts;1;60;left;no;50;rightarrow;357;false;focus;yes;163962;Firefox;89.0;Windows;10;undefined;undefined;1366 x 768;1366 x 768
H043;36;Mannelijk;Rechts;1;39;left;no;50;leftarrow;329;true;focus;yes;141461;Firefox;89.0;Windows;10;undefined;undefined;1366 x 768;1366 x 768
H043;36;Mannelijk;Rechts;1;30;right;no;50;rightarrow;348;true;focus;yes;131478;Firefox;89.0;Windows;10;undefined;undefined;1366 x 768;1366 x 768
H043;36;Mannelijk;Rechts;1;31;left;yes;50;leftarrow;370;false;focus;yes;132621;Firefox;89.0;Windows;10;undefined;undefined;1366 x 768;1366 x 768
H043;36;Mannelijk;Rechts;1;59;right;yes;50;rightarrow;368;false;focus;yes;162842;Firefox;89.0;Windows;10;undefined;undefined;1366 x 768;1366 x 768
H043;36;Mannelijk;Rechts;1;41;left;yes;50;leftarrow;340;false;focus;yes;143671;Firefox;89.0;Windows;10;undefined;undefined;1366 x 768;1366 x 768
H043;36;Mannelijk;Rechts;1;40;right;no;50;rightarrow;332;true;focus;yes;142563;Firefox;89.0;Windows;10;undefined;undefined;1366 x 768;1366 x 768
H043;36;Mannelijk;Rechts;1;58;right;no;50;rightarrow;332;true;focus;yes;161718;Firefox;89.0;Windows;10;undefined;undefined;1366 x 768;1366 x 768
H043;36;Mannelijk;Rechts;1;57;right;no;50;rightarrow;313;true;focus;yes;160616;Firefox;89.0;Windows;10;undefined;undefined;1366 x 768;1366 x 768
H043;36;Mannelijk;Rechts;1;42;right;no;50;rightarrow;272;true;focus;yes;144712;Firefox;89.0;Windows;10;undefined;undefined;1366 x 768;1366 x 768
H043;36;Mannelijk;Rechts;1;56;right;no;50;rightarrow;332;true;focus;yes;159536;Firefox;89.0;Windows;10;undefined;undefined;1366 x 768;1366 x 768
H043;36;Mannelijk;Rechts;1;55;right;no;50;leftarrow;235;false;focus;yes;158435;Firefox;89.0;Windows;10;undefined;undefined;1366 x 768;1366 x 768
H043;36;Mannelijk;Rechts;1;43;left;no;50;leftarrow;262;true;focus;yes;145743;Firefox;89.0;Windows;10;undefined;undefined;1366 x 768;1366 x 768
H043;36;Mannelijk;Rechts;1;44;right;no;50;rightarrow;343;true;focus;yes;146863;Firefox;89.0;Windows;10;undefined;undefined;1366 x 768;1366 x 768
H043;36;Mannelijk;Rechts;1;54;right;no;50;rightarrow;366;true;focus;yes;157426;Firefox;89.0;Windows;10;undefined;undefined;1366 x 768;1366 x 768
H043;36;Mannelijk;Rechts;1;45;left;no;50;leftarrow;213;true;focus;yes;147853;Firefox;89.0;Windows;10;undefined;undefined;1366 x 768;1366 x 768
H043;36;Mannelijk;Rechts;1;37;left;yes;50;leftarrow;362;false;focus;yes;139312;Firefox;89.0;Windows;10;undefined;undefined;1366 x 768;1366 x 768
H043;36;Mannelijk;Rechts;1;53;right;yes;50;leftarrow;252;false;focus;yes;156276;Firefox;89.0;Windows;10;undefined;undefined;1366 x 768;1366 x 768
H043;36;Mannelijk;Rechts;1;64;left;no;50;leftarrow;293;true;focus;yes;168395;Firefox;89.0;Windows;10;undefined;undefined;1366 x 768;1366 x 768
H043;36;Mannelijk;Rechts;1;52;left;no;50;leftarrow;279;true;focus;yes;155247;Firefox;89.0;Windows;10;undefined;undefined;1366 x 768;1366 x 768
H043;36;Mannelijk;Rechts;1;47;right;yes;50;rightarrow;384;false;focus;yes;150153;Firefox;89.0;Windows;10;undefined;undefined;1366 x 768;1366 x 768
H043;36;Mannelijk;Rechts;1;36;right;no;50;rightarrow;342;true;focus;yes;138182;Firefox;89.0;Windows;10;undefined;undefined;1366 x 768;1366 x 768
H043;36;Mannelijk;Rechts;1;51;left;no;50;leftarrow;243;true;focus;yes;154208;Firefox;89.0;Windows;10;undefined;undefined;1366 x 768;1366 x 768
H043;36;Mannelijk;Rechts;1;48;right;no;50;leftarrow;249;false;focus;yes;151175;Firefox;89.0;Windows;10;undefined;undefined;1366 x 768;1366 x 768
H043;36;Mannelijk;Rechts;1;50;left;no;50;leftarrow;187;true;focus;yes;153196;Firefox;89.0;Windows;10;undefined;undefined;1366 x 768;1366 x 768
H043;36;Mannelijk;Rechts;1;49;left;yes;50;leftarrow;286;false;focus;yes;152227;Firefox;89.0;Windows;10;undefined;undefined;1366 x 768;1366 x 768
H043;36;Mannelijk;Rechts;1;33;left;no;50;leftarrow;292;true;focus;yes;134802;Firefox;89.0;Windows;10;undefined;undefined;1366 x 768;1366 x 768
H043;36;Mannelijk;Rechts;1;34;right;no;50;leftarrow;271;false;focus;yes;135851;Firefox;89.0;Windows;10;undefined;undefined;1366 x 768;1366 x 768
H043;36;Mannelijk;Rechts;1;32;left;no;50;leftarrow;350;true;focus;yes;133741;Firefox;89.0;Windows;10;undefined;undefined;1366 x 768;1366 x 768
H043;36;Mannelijk;Rechts;1;35;right;yes;50;rightarrow;441;false;focus;yes;137062;Firefox;89.0;Windows;10;undefined;undefined;1366 x 768;1366 x 768
H043;36;Mannelijk;Rechts;1;65;right;yes;50;leftarrow;219;false;focus;yes;169383;Firefox;89.0;Windows;10;undefined;undefined;1366 x 768;1366 x 768
H043;36;Mannelijk;Rechts;1;66;right;no;50;rightarrow;438;true;focus;yes;170596;Firefox;89.0;Windows;10;undefined;undefined;1366 x 768;1366 x 768
H043;36;Mannelijk;Rechts;1;67;right;no;50;rightarrow;377;true;focus;yes;171746;Firefox;89.0;Windows;10;undefined;undefined;1366 x 768;1366 x 768
H043;36;Mannelijk;Rechts;1;68;left;yes;50;leftarrow;354;false;focus;yes;172867;Firefox;89.0;Windows;10;undefined;undefined;1366 x 768;1366 x 768
H043;36;Mannelijk;Rechts;1;69;left;no;50;leftarrow;374;true;focus;yes;174015;Firefox;89.0;Windows;10;undefined;undefined;1366 x 768;1366 x 768
H043;36;Mannelijk;Rechts;1;70;right;no;50;rightarrow;406;true;focus;yes;175185;Firefox;89.0;Windows;10;undefined;undefined;1366 x 768;1366 x 768
H043;36;Mannelijk;Rechts;1;71;left;no;50;rightarrow;533;false;focus;yes;176479;Firefox;89.0;Windows;10;undefined;undefined;1366 x 768;1366 x 768
H043;36;Mannelijk;Rechts;1;72;left;no;50;leftarrow;737;true;focus;yes;177991;Firefox;89.0;Windows;10;undefined;undefined;1366 x 768;1366 x 768
H043;36;Mannelijk;Rechts;1;73;left;no;50;leftarrow;445;true;focus;yes;179209;Firefox;89.0;Windows;10;undefined;undefined;1366 x 768;1366 x 768
H043;36;Mannelijk;Rechts;1;74;right;no;50;rightarrow;327;true;focus;yes;180312;Firefox;89.0;Windows;10;undefined;undefined;1366 x 768;1366 x 768
H043;36;Mannelijk;Rechts;1;75;left;no;50;leftarrow;374;true;focus;yes;181462;Firefox;89.0;Windows;10;undefined;undefined;1366 x 768;1366 x 768
H043;36;Mannelijk;Rechts;1;76;left;no;50;leftarrow;363;true;focus;yes;182591;Firefox;89.0;Windows;10;undefined;undefined;1366 x 768;1366 x 768
H043;36;Mannelijk;Rechts;1;77;right;no;50;rightarrow;380;true;focus;yes;183739;Firefox;89.0;Windows;10;undefined;undefined;1366 x 768;1366 x 768
H043;36;Mannelijk;Rechts;1;78;right;yes;50;rightarrow;402;false;focus;yes;184922;Firefox;89.0;Windows;10;undefined;undefined;1366 x 768;1366 x 768
H043;36;Mannelijk;Rechts;1;79;left;yes;50;leftarrow;513;false;focus;yes;186202;Firefox;89.0;Windows;10;undefined;undefined;1366 x 768;1366 x 768
H043;36;Mannelijk;Rechts;1;80;right;no;50;rightarrow;394;true;focus;yes;187373;Firefox;89.0;Windows;10;undefined;undefined;1366 x 768;1366 x 768
H043;36;Mannelijk;Rechts;1;81;left;no;50;rightarrow;397;false;focus;yes;188536;Firefox;89.0;Windows;10;undefined;undefined;1366 x 768;1366 x 768
H043;36;Mannelijk;Rechts;1;82;left;no;50;leftarrow;308;true;focus;yes;189628;Firefox;89.0;Windows;10;undefined;undefined;1366 x 768;1366 x 768
H043;36;Mannelijk;Rechts;1;83;right;no;50;rightarrow;386;true;focus;yes;190786;Firefox;89.0;Windows;10;undefined;undefined;1366 x 768;1366 x 768
H043;36;Mannelijk;Rechts;1;84;right;yes;50;rightarrow;489;false;focus;yes;192057;Firefox;89.0;Windows;10;undefined;undefined;1366 x 768;1366 x 768
H043;36;Mannelijk;Rechts;1;85;left;no;50;leftarrow;1171;true;focus;yes;194001;Firefox;89.0;Windows;10;undefined;undefined;1366 x 768;1366 x 768
H043;36;Mannelijk;Rechts;1;86;right;no;50;rightarrow;954;true;focus;yes;195732;Firefox;89.0;Windows;10;undefined;undefined;1366 x 768;1366 x 768
H043;36;Mannelijk;Rechts;1;87;left;yes;50;leftarrow;380;false;focus;yes;196881;Firefox;89.0;Windows;10;undefined;undefined;1366 x 768;1366 x 768
H043;36;Mannelijk;Rechts;1;88;right;no;50;rightarrow;553;true;focus;yes;198212;Firefox;89.0;Windows;10;undefined;undefined;1366 x 768;1366 x 768
H043;36;Mannelijk;Rechts;1;89;right;no;50;rightarrow;887;true;focus;yes;199864;Firefox;89.0;Windows;10;undefined;undefined;1366 x 768;1366 x 768
H043;36;Mannelijk;Rechts;1;90;right;yes;50;rightarrow;354;false;focus;yes;200994;Firefox;89.0;Windows;10;undefined;undefined;1366 x 768;1366 x 768
H043;36;Mannelijk;Rechts;1;91;left;no;50;leftarrow;337;true;focus;yes;202127;Firefox;89.0;Windows;10;undefined;undefined;1366 x 768;1366 x 768
H043;36;Mannelijk;Rechts;1;92;left;no;50;leftarrow;317;true;focus;yes;203226;Firefox;89.0;Windows;10;undefined;undefined;1366 x 768;1366 x 768
H043;36;Mannelijk;Rechts;1;93;left;no;50;leftarrow;449;true;focus;yes;204450;Firefox;89.0;Windows;10;undefined;undefined;1366 x 768;1366 x 768
H043;36;Mannelijk;Rechts;1;94;right;no;50;rightarrow;453;true;focus;yes;205671;Firefox;89.0;Windows;10;undefined;undefined;1366 x 768;1366 x 768
H043;36;Mannelijk;Rechts;1;95;left;yes;50;leftarrow;431;false;focus;yes;206870;Firefox;89.0;Windows;10;undefined;undefined;1366 x 768;1366 x 768
H043;36;Mannelijk;Rechts;1;96;right;no;50;rightarrow;702;true;focus;yes;208351;Firefox;89.0;Windows;10;undefined;undefined;1366 x 768;1366 x 768
H043;36;Mannelijk;Rechts;1;97;right;no;50;rightarrow;423;true;focus;yes;209552;Firefox;89.0;Windows;10;undefined;undefined;1366 x 768;1366 x 768
H043;36;Mannelijk;Rechts;1;98;left;no;50;leftarrow;838;true;focus;yes;211166;Firefox;89.0;Windows;10;undefined;undefined;1366 x 768;1366 x 768
H043;36;Mannelijk;Rechts;1;99;left;no;50;leftarrow;556;true;focus;yes;212505;Firefox;89.0;Windows;10;undefined;undefined;1366 x 768;1366 x 768
H043;36;Mannelijk;Rechts;1;100;left;yes;50;leftarrow;531;false;focus;yes;213821;Firefox;89.0;Windows;10;undefined;undefined;1366 x 768;1366 x 768
H043;36;Mannelijk;Rechts;1;101;right;no;50;undefined;null;false;focus;yes;215845;Firefox;89.0;Windows;10;undefined;undefined;1366 x 768;1366 x 768
H043;36;Mannelijk;Rechts;1;102;right;yes;50;rightarrow;331;false;focus;yes;216941;Firefox;89.0;Windows;10;undefined;undefined;1366 x 768;1366 x 768
H043;36;Mannelijk;Rechts;1;103;right;no;50;rightarrow;438;true;focus;yes;218150;Firefox;89.0;Windows;10;undefined;undefined;1366 x 768;1366 x 768
H043;36;Mannelijk;Rechts;1;104;left;no;50;leftarrow;389;true;focus;yes;219312;Firefox;89.0;Windows;10;undefined;undefined;1366 x 768;1366 x 768
H043;36;Mannelijk;Rechts;1;105;left;no;50;leftarrow;545;true;focus;yes;220614;Firefox;89.0;Windows;10;undefined;undefined;1366 x 768;1366 x 768
H043;36;Mannelijk;Rechts;1;106;right;no;50;rightarrow;405;true;focus;yes;221797;Firefox;89.0;Windows;10;undefined;undefined;1366 x 768;1366 x 768
H043;36;Mannelijk;Rechts;1;107;left;no;50;leftarrow;315;true;focus;yes;222888;Firefox;89.0;Windows;10;undefined;undefined;1366 x 768;1366 x 768
H043;36;Mannelijk;Rechts;1;108;right;no;50;rightarrow;522;true;focus;yes;224170;Firefox;89.0;Windows;10;undefined;undefined;1366 x 768;1366 x 768
H043;36;Mannelijk;Rechts;1;109;right;no;50;rightarrow;687;true;focus;yes;225640;Firefox;89.0;Windows;10;undefined;undefined;1366 x 768;1366 x 768
H043;36;Mannelijk;Rechts;1;110;right;yes;50;undefined;null;true;focus;yes;227662;Firefox;89.0;Windows;10;undefined;undefined;1366 x 768;1366 x 768
H043;36;Mannelijk;Rechts;1;111;left;no;100;leftarrow;338;true;focus;yes;228762;Firefox;89.0;Windows;10;undefined;undefined;1366 x 768;1366 x 768
H043;36;Mannelijk;Rechts;1;112;left;yes;100;leftarrow;1011;false;focus;yes;230546;Firefox;89.0;Windows;10;undefined;undefined;1366 x 768;1366 x 768
H043;36;Mannelijk;Rechts;1;113;left;no;50;leftarrow;1063;true;focus;yes;232379;Firefox;89.0;Windows;10;undefined;undefined;1366 x 768;1366 x 768
H043;36;Mannelijk;Rechts;1;114;right;no;50;rightarrow;610;true;focus;yes;233760;Firefox;89.0;Windows;10;undefined;undefined;1366 x 768;1366 x 768
H043;36;Mannelijk;Rechts;1;115;right;yes;50;rightarrow;411;false;focus;yes;234950;Firefox;89.0;Windows;10;undefined;undefined;1366 x 768;1366 x 768
H043;36;Mannelijk;Rechts;1;116;left;yes;50;leftarrow;615;false;focus;yes;236342;Firefox;89.0;Windows;10;undefined;undefined;1366 x 768;1366 x 768
H043;36;Mannelijk;Rechts;1;117;right;no;50;rightarrow;416;true;focus;yes;237543;Firefox;89.0;Windows;10;undefined;undefined;1366 x 768;1366 x 768
H043;36;Mannelijk;Rechts;1;118;left;no;50;leftarrow;479;true;focus;yes;238797;Firefox;89.0;Windows;10;undefined;undefined;1366 x 768;1366 x 768
H043;36;Mannelijk;Rechts;1;119;left;no;50;leftarrow;657;true;focus;yes;240228;Firefox;89.0;Windows;10;undefined;undefined;1366 x 768;1366 x 768
H043;36;Mannelijk;Rechts;1;120;right;no;50;rightarrow;603;true;focus;yes;241599;Firefox;89.0;Windows;10;undefined;undefined;1366 x 768;1366 x 768
H043;36;Mannelijk;Rechts;1;121;left;no;50;leftarrow;519;true;focus;yes;242892;Firefox;89.0;Windows;10;undefined;undefined;1366 x 768;1366 x 768
H043;36;Mannelijk;Rechts;1;122;left;no;50;leftarrow;733;true;focus;yes;244402;Firefox;89.0;Windows;10;undefined;undefined;1366 x 768;1366 x 768
H043;36;Mannelijk;Rechts;1;123;left;no;50;leftarrow;328;true;focus;yes;245494;Firefox;89.0;Windows;10;undefined;undefined;1366 x 768;1366 x 768
H043;36;Mannelijk;Rechts;1;124;right;no;50;rightarrow;395;true;focus;yes;246653;Firefox;89.0;Windows;10;undefined;undefined;1366 x 768;1366 x 768
H043;36;Mannelijk;Rechts;1;125;right;no;50;rightarrow;437;true;focus;yes;247867;Firefox;89.0;Windows;10;undefined;undefined;1366 x 768;1366 x 768
H043;36;Mannelijk;Rechts;1;126;right;yes;50;rightarrow;473;false;focus;yes;249109;Firefox;89.0;Windows;10;undefined;undefined;1366 x 768;1366 x 768
H043;36;Mannelijk;Rechts;1;127;left;yes;50;leftarrow;354;false;focus;yes;250231;Firefox;89.0;Windows;10;undefined;undefined;1366 x 768;1366 x 768
H043;36;Mannelijk;Rechts;1;128;right;no;50;rightarrow;343;true;focus;yes;251331;Firefox;89.0;Windows;10;undefined;undefined;1366 x 768;1366 x 768
H043;36;Mannelijk;Rechts;2;1;left;no;50;leftarrow;348;true;focus;yes;331121;Firefox;89.0;Windows;10;undefined;undefined;1366 x 768;1366 x 768
H043;36;Mannelijk;Rechts;2;2;left;no;50;leftarrow;373;true;focus;yes;332264;Firefox;89.0;Windows;10;undefined;undefined;1366 x 768;1366 x 768
H043;36;Mannelijk;Rechts;2;3;right;yes;50;rightarrow;341;false;focus;yes;333365;Firefox;89.0;Windows;10;undefined;undefined;1366 x 768;1366 x 768
H043;36;Mannelijk;Rechts;2;4;right;no;50;rightarrow;444;true;focus;yes;334588;Firefox;89.0;Windows;10;undefined;undefined;1366 x 768;1366 x 768
H043;36;Mannelijk;Rechts;2;5;right;no;50;rightarrow;468;true;focus;yes;335821;Firefox;89.0;Windows;10;undefined;undefined;1366 x 768;1366 x 768
H043;36;Mannelijk;Rechts;2;6;left;yes;50;leftarrow;502;false;focus;yes;337095;Firefox;89.0;Windows;10;undefined;undefined;1366 x 768;1366 x 768
H043;36;Mannelijk;Rechts;2;7;left;no;50;leftarrow;575;true;focus;yes;338451;Firefox;89.0;Windows;10;undefined;undefined;1366 x 768;1366 x 768
H043;36;Mannelijk;Rechts;2;8;right;no;50;rightarrow;565;true;focus;yes;339781;Firefox;89.0;Windows;10;undefined;undefined;1366 x 768;1366 x 768
H043;36;Mannelijk;Rechts;2;9;right;yes;50;rightarrow;407;false;focus;yes;340966;Firefox;89.0;Windows;10;undefined;undefined;1366 x 768;1366 x 768
H043;36;Mannelijk;Rechts;2;10;left;no;50;leftarrow;355;true;focus;yes;342099;Firefox;89.0;Windows;10;undefined;undefined;1366 x 768;1366 x 768
H043;36;Mannelijk;Rechts;2;11;right;no;50;rightarrow;481;true;focus;yes;343350;Firefox;89.0;Windows;10;undefined;undefined;1366 x 768;1366 x 768
H043;36;Mannelijk;Rechts;2;12;right;no;50;rightarrow;777;true;focus;yes;344904;Firefox;89.0;Windows;10;undefined;undefined;1366 x 768;1366 x 768
H043;36;Mannelijk;Rechts;2;13;left;no;50;leftarrow;354;true;focus;yes;346040;Firefox;89.0;Windows;10;undefined;undefined;1366 x 768;1366 x 768
H043;36;Mannelijk;Rechts;2;14;left;yes;50;leftarrow;561;false;focus;yes;347368;Firefox;89.0;Windows;10;undefined;undefined;1366 x 768;1366 x 768
H043;36;Mannelijk;Rechts;2;15;right;no;50;rightarrow;451;true;focus;yes;348590;Firefox;89.0;Windows;10;undefined;undefined;1366 x 768;1366 x 768
H043;36;Mannelijk;Rechts;2;16;left;no;50;leftarrow;529;true;focus;yes;349885;Firefox;89.0;Windows;10;undefined;undefined;1366 x 768;1366 x 768
H043;36;Mannelijk;Rechts;2;17;right;no;50;rightarrow;511;true;focus;yes;351169;Firefox;89.0;Windows;10;undefined;undefined;1366 x 768;1366 x 768
H043;36;Mannelijk;Rechts;2;18;left;no;50;leftarrow;580;true;focus;yes;352520;Firefox;89.0;Windows;10;undefined;undefined;1366 x 768;1366 x 768
H043;36;Mannelijk;Rechts;2;19;right;no;50;rightarrow;726;true;focus;yes;354015;Firefox;89.0;Windows;10;undefined;undefined;1366 x 768;1366 x 768
H043;36;Mannelijk;Rechts;2;20;right;no;50;undefined;null;false;focus;yes;356056;Firefox;89.0;Windows;10;undefined;undefined;1366 x 768;1366 x 768
H043;36;Mannelijk;Rechts;2;21;left;yes;50;leftarrow;351;false;focus;yes;357180;Firefox;89.0;Windows;10;undefined;undefined;1366 x 768;1366 x 768
H043;36;Mannelijk;Rechts;2;22;left;no;50;leftarrow;406;true;focus;yes;358353;Firefox;89.0;Windows;10;undefined;undefined;1366 x 768;1366 x 768
H043;36;Mannelijk;Rechts;2;23;left;no;50;leftarrow;350;true;focus;yes;359477;Firefox;89.0;Windows;10;undefined;undefined;1366 x 768;1366 x 768
H043;36;Mannelijk;Rechts;2;24;right;yes;50;rightarrow;380;false;focus;yes;360639;Firefox;89.0;Windows;10;undefined;undefined;1366 x 768;1366 x 768
H043;36;Mannelijk;Rechts;2;25;left;yes;50;rightarrow;813;false;focus;yes;362230;Firefox;89.0;Windows;10;undefined;undefined;1366 x 768;1366 x 768
H043;36;Mannelijk;Rechts;2;26;left;no;50;leftarrow;348;true;focus;yes;363346;Firefox;89.0;Windows;10;undefined;undefined;1366 x 768;1366 x 768
H043;36;Mannelijk;Rechts;2;27;left;no;50;leftarrow;1049;true;focus;yes;365168;Firefox;89.0;Windows;10;undefined;undefined;1366 x 768;1366 x 768
H043;36;Mannelijk;Rechts;2;28;right;no;50;rightarrow;585;true;focus;yes;366524;Firefox;89.0;Windows;10;undefined;undefined;1366 x 768;1366 x 768
H043;36;Mannelijk;Rechts;2;29;right;no;50;rightarrow;968;true;focus;yes;368275;Firefox;89.0;Windows;10;undefined;undefined;1366 x 768;1366 x 768
H043;36;Mannelijk;Rechts;2;30;left;no;50;leftarrow;351;true;focus;yes;369409;Firefox;89.0;Windows;10;undefined;undefined;1366 x 768;1366 x 768
H043;36;Mannelijk;Rechts;2;31;right;no;50;rightarrow;684;true;focus;yes;370872;Firefox;89.0;Windows;10;undefined;undefined;1366 x 768;1366 x 768
H043;36;Mannelijk;Rechts;2;32;right;yes;50;rightarrow;707;false;focus;yes;372357;Firefox;89.0;Windows;10;undefined;undefined;1366 x 768;1366 x 768
H043;36;Mannelijk;Rechts;2;33;left;no;50;leftarrow;451;true;focus;yes;373579;Firefox;89.0;Windows;10;undefined;undefined;1366 x 768;1366 x 768
H043;36;Mannelijk;Rechts;2;34;right;no;50;rightarrow;462;true;focus;yes;374811;Firefox;89.0;Windows;10;undefined;undefined;1366 x 768;1366 x 768
H043;36;Mannelijk;Rechts;2;35;right;no;50;leftarrow;649;false;focus;yes;376236;Firefox;89.0;Windows;10;undefined;undefined;1366 x 768;1366 x 768
H043;36;Mannelijk;Rechts;2;36;left;no;50;leftarrow;542;true;focus;yes;377550;Firefox;89.0;Windows;10;undefined;undefined;1366 x 768;1366 x 768
H043;36;Mannelijk;Rechts;2;37;right;no;50;rightarrow;1091;true;focus;yes;379411;Firefox;89.0;Windows;10;undefined;undefined;1366 x 768;1366 x 768
H043;36;Mannelijk;Rechts;2;38;left;no;50;leftarrow;468;true;focus;yes;380645;Firefox;89.0;Windows;10;undefined;undefined;1366 x 768;1366 x 768
H043;36;Mannelijk;Rechts;2;39;right;yes;50;rightarrow;871;false;focus;yes;382289;Firefox;89.0;Windows;10;undefined;undefined;1366 x 768;1366 x 768
H043;36;Mannelijk;Rechts;2;40;left;yes;50;leftarrow;1055;false;focus;yes;384113;Firefox;89.0;Windows;10;undefined;undefined;1366 x 768;1366 x 768
H043;36;Mannelijk;Rechts;2;41;left;no;50;leftarrow;380;true;focus;yes;385277;Firefox;89.0;Windows;10;undefined;undefined;1366 x 768;1366 x 768
H043;36;Mannelijk;Rechts;2;42;right;no;50;rightarrow;383;true;focus;yes;386429;Firefox;89.0;Windows;10;undefined;undefined;1366 x 768;1366 x 768
H043;36;Mannelijk;Rechts;2;43;right;no;50;rightarrow;787;true;focus;yes;387985;Firefox;89.0;Windows;10;undefined;undefined;1366 x 768;1366 x 768
H043;36;Mannelijk;Rechts;2;44;left;no;50;leftarrow;668;true;focus;yes;389426;Firefox;89.0;Windows;10;undefined;undefined;1366 x 768;1366 x 768
H043;36;Mannelijk;Rechts;2;45;right;yes;50;leftarrow;553;false;focus;yes;390750;Firefox;89.0;Windows;10;undefined;undefined;1366 x 768;1366 x 768
H043;36;Mannelijk;Rechts;2;46;left;yes;50;leftarrow;365;false;focus;yes;391893;Firefox;89.0;Windows;10;undefined;undefined;1366 x 768;1366 x 768
H043;36;Mannelijk;Rechts;2;47;right;no;50;rightarrow;344;true;focus;yes;393007;Firefox;89.0;Windows;10;undefined;undefined;1366 x 768;1366 x 768
H043;36;Mannelijk;Rechts;2;48;left;no;50;leftarrow;378;true;focus;yes;394168;Firefox;89.0;Windows;10;undefined;undefined;1366 x 768;1366 x 768
H043;36;Mannelijk;Rechts;2;49;left;no;50;leftarrow;467;true;focus;yes;395414;Firefox;89.0;Windows;10;undefined;undefined;1366 x 768;1366 x 768
H043;36;Mannelijk;Rechts;2;50;right;no;50;rightarrow;510;true;focus;yes;396708;Firefox;89.0;Windows;10;undefined;undefined;1366 x 768;1366 x 768
H043;36;Mannelijk;Rechts;2;51;right;yes;50;rightarrow;513;false;focus;yes;398000;Firefox;89.0;Windows;10;undefined;undefined;1366 x 768;1366 x 768
H043;36;Mannelijk;Rechts;2;52;left;no;50;leftarrow;1020;true;focus;yes;399795;Firefox;89.0;Windows;10;undefined;undefined;1366 x 768;1366 x 768
H043;36;Mannelijk;Rechts;2;53;right;no;50;rightarrow;456;true;focus;yes;401018;Firefox;89.0;Windows;10;undefined;undefined;1366 x 768;1366 x 768
H043;36;Mannelijk;Rechts;2;54;left;no;50;leftarrow;412;true;focus;yes;402199;Firefox;89.0;Windows;10;undefined;undefined;1366 x 768;1366 x 768
H043;36;Mannelijk;Rechts;2;55;right;no;50;rightarrow;332;true;focus;yes;403294;Firefox;89.0;Windows;10;undefined;undefined;1366 x 768;1366 x 768
H043;36;Mannelijk;Rechts;2;56;left;yes;50;leftarrow;510;false;focus;yes;404577;Firefox;89.0;Windows;10;undefined;undefined;1366 x 768;1366 x 768
H043;36;Mannelijk;Rechts;2;57;left;no;50;leftarrow;418;true;focus;yes;405758;Firefox;89.0;Windows;10;undefined;undefined;1366 x 768;1366 x 768
H043;36;Mannelijk;Rechts;2;58;right;yes;50;rightarrow;566;false;focus;yes;407092;Firefox;89.0;Windows;10;undefined;undefined;1366 x 768;1366 x 768
H043;36;Mannelijk;Rechts;2;59;right;no;50;leftarrow;449;false;focus;yes;408307;Firefox;89.0;Windows;10;undefined;undefined;1366 x 768;1366 x 768
H043;36;Mannelijk;Rechts;2;60;left;no;50;leftarrow;332;true;focus;yes;409409;Firefox;89.0;Windows;10;undefined;undefined;1366 x 768;1366 x 768
H043;36;Mannelijk;Rechts;2;61;right;no;50;rightarrow;482;true;focus;yes;410661;Firefox;89.0;Windows;10;undefined;undefined;1366 x 768;1366 x 768
H043;36;Mannelijk;Rechts;2;62;right;no;50;rightarrow;420;true;focus;yes;411867;Firefox;89.0;Windows;10;undefined;undefined;1366 x 768;1366 x 768
H043;36;Mannelijk;Rechts;2;63;left;yes;50;leftarrow;663;false;focus;yes;413310;Firefox;89.0;Windows;10;undefined;undefined;1366 x 768;1366 x 768
H043;36;Mannelijk;Rechts;2;64;left;no;50;rightarrow;584;false;focus;yes;414672;Firefox;89.0;Windows;10;undefined;undefined;1366 x 768;1366 x 768
H043;36;Mannelijk;Rechts;2;65;right;yes;50;rightarrow;529;false;focus;yes;415977;Firefox;89.0;Windows;10;undefined;undefined;1366 x 768;1366 x 768
H043;36;Mannelijk;Rechts;2;66;left;no;50;leftarrow;392;true;focus;yes;417140;Firefox;89.0;Windows;10;undefined;undefined;1366 x 768;1366 x 768
H043;36;Mannelijk;Rechts;2;67;left;yes;50;leftarrow;487;false;focus;yes;418396;Firefox;89.0;Windows;10;undefined;undefined;1366 x 768;1366 x 768
H043;36;Mannelijk;Rechts;2;68;left;no;50;leftarrow;391;true;focus;yes;419559;Firefox;89.0;Windows;10;undefined;undefined;1366 x 768;1366 x 768
H043;36;Mannelijk;Rechts;2;69;right;no;50;rightarrow;391;true;focus;yes;420730;Firefox;89.0;Windows;10;undefined;undefined;1366 x 768;1366 x 768
H043;36;Mannelijk;Rechts;2;70;left;no;50;leftarrow;337;true;focus;yes;421836;Firefox;89.0;Windows;10;undefined;undefined;1366 x 768;1366 x 768
H043;36;Mannelijk;Rechts;2;71;right;no;50;rightarrow;782;true;focus;yes;423400;Firefox;89.0;Windows;10;undefined;undefined;1366 x 768;1366 x 768
H043;36;Mannelijk;Rechts;2;72;right;no;50;rightarrow;393;true;focus;yes;424571;Firefox;89.0;Windows;10;undefined;undefined;1366 x 768;1366 x 768
H043;36;Mannelijk;Rechts;2;73;left;no;50;leftarrow;618;true;focus;yes;425957;Firefox;89.0;Windows;10;undefined;undefined;1366 x 768;1366 x 768
H043;36;Mannelijk;Rechts;2;74;left;yes;50;rightarrow;380;false;focus;yes;427119;Firefox;89.0;Windows;10;undefined;undefined;1366 x 768;1366 x 768
H043;36;Mannelijk;Rechts;2;75;right;no;50;rightarrow;356;true;focus;yes;428254;Firefox;89.0;Windows;10;undefined;undefined;1366 x 768;1366 x 768
H043;36;Mannelijk;Rechts;2;76;left;no;50;leftarrow;660;true;focus;yes;429687;Firefox;89.0;Windows;10;undefined;undefined;1366 x 768;1366 x 768
H043;36;Mannelijk;Rechts;2;77;left;no;50;leftarrow;370;true;focus;yes;430839;Firefox;89.0;Windows;10;undefined;undefined;1366 x 768;1366 x 768
H043;36;Mannelijk;Rechts;2;78;right;yes;50;rightarrow;395;false;focus;yes;432005;Firefox;89.0;Windows;10;undefined;undefined;1366 x 768;1366 x 768
H043;36;Mannelijk;Rechts;2;79;right;no;50;rightarrow;451;true;focus;yes;433238;Firefox;89.0;Windows;10;undefined;undefined;1366 x 768;1366 x 768
H043;36;Mannelijk;Rechts;2;80;right;no;50;rightarrow;401;true;focus;yes;434409;Firefox;89.0;Windows;10;undefined;undefined;1366 x 768;1366 x 768
H043;36;Mannelijk;Rechts;2;81;right;no;50;rightarrow;398;true;focus;yes;435585;Firefox;89.0;Windows;10;undefined;undefined;1366 x 768;1366 x 768
H043;36;Mannelijk;Rechts;2;82;right;no;50;rightarrow;411;true;focus;yes;436789;Firefox;89.0;Windows;10;undefined;undefined;1366 x 768;1366 x 768
H043;36;Mannelijk;Rechts;2;83;right;no;50;rightarrow;351;true;focus;yes;437929;Firefox;89.0;Windows;10;undefined;undefined;1366 x 768;1366 x 768
H043;36;Mannelijk;Rechts;2;84;left;no;50;leftarrow;408;true;focus;yes;439105;Firefox;89.0;Windows;10;undefined;undefined;1366 x 768;1366 x 768
H043;36;Mannelijk;Rechts;2;85;left;yes;50;leftarrow;470;false;focus;yes;440336;Firefox;89.0;Windows;10;undefined;undefined;1366 x 768;1366 x 768
H043;36;Mannelijk;Rechts;2;86;left;no;50;leftarrow;319;true;focus;yes;441430;Firefox;89.0;Windows;10;undefined;undefined;1366 x 768;1366 x 768
H043;36;Mannelijk;Rechts;2;87;right;yes;50;rightarrow;618;false;focus;yes;442822;Firefox;89.0;Windows;10;undefined;undefined;1366 x 768;1366 x 768
H043;36;Mannelijk;Rechts;2;88;left;no;50;rightarrow;648;false;focus;yes;444249;Firefox;89.0;Windows;10;undefined;undefined;1366 x 768;1366 x 768
H043;36;Mannelijk;Rechts;2;89;right;no;50;leftarrow;382;false;focus;yes;445405;Firefox;89.0;Windows;10;undefined;undefined;1366 x 768;1366 x 768
H043;36;Mannelijk;Rechts;2;90;right;yes;50;rightarrow;459;false;focus;yes;446625;Firefox;89.0;Windows;10;undefined;undefined;1366 x 768;1366 x 768
H043;36;Mannelijk;Rechts;2;91;left;no;50;leftarrow;315;true;focus;yes;447716;Firefox;89.0;Windows;10;undefined;undefined;1366 x 768;1366 x 768
H043;36;Mannelijk;Rechts;2;92;right;no;50;rightarrow;354;true;focus;yes;448850;Firefox;89.0;Windows;10;undefined;undefined;1366 x 768;1366 x 768
H043;36;Mannelijk;Rechts;2;93;right;no;50;rightarrow;492;true;focus;yes;450108;Firefox;89.0;Windows;10;undefined;undefined;1366 x 768;1366 x 768
H043;36;Mannelijk;Rechts;2;94;left;no;50;leftarrow;499;true;focus;yes;451379;Firefox;89.0;Windows;10;undefined;undefined;1366 x 768;1366 x 768
H043;36;Mannelijk;Rechts;2;95;left;no;50;leftarrow;529;true;focus;yes;452686;Firefox;89.0;Windows;10;undefined;undefined;1366 x 768;1366 x 768
H043;36;Mannelijk;Rechts;2;96;left;yes;50;leftarrow;290;false;focus;yes;453747;Firefox;89.0;Windows;10;undefined;undefined;1366 x 768;1366 x 768
H043;36;Mannelijk;Rechts;2;97;left;no;50;leftarrow;322;true;focus;yes;454832;Firefox;89.0;Windows;10;undefined;undefined;1366 x 768;1366 x 768
H043;36;Mannelijk;Rechts;2;98;left;no;50;leftarrow;301;true;focus;yes;455905;Firefox;89.0;Windows;10;undefined;undefined;1366 x 768;1366 x 768
H043;36;Mannelijk;Rechts;2;99;right;no;50;rightarrow;376;true;focus;yes;457048;Firefox;89.0;Windows;10;undefined;undefined;1366 x 768;1366 x 768
H043;36;Mannelijk;Rechts;2;100;right;yes;50;rightarrow;361;false;focus;yes;458192;Firefox;89.0;Windows;10;undefined;undefined;1366 x 768;1366 x 768
H043;36;Mannelijk;Rechts;2;101;left;yes;50;leftarrow;539;false;focus;yes;459503;Firefox;89.0;Windows;10;undefined;undefined;1366 x 768;1366 x 768
H043;36;Mannelijk;Rechts;2;102;left;no;50;leftarrow;410;true;focus;yes;460689;Firefox;89.0;Windows;10;undefined;undefined;1366 x 768;1366 x 768
H043;36;Mannelijk;Rechts;2;103;right;no;50;rightarrow;338;true;focus;yes;461803;Firefox;89.0;Windows;10;undefined;undefined;1366 x 768;1366 x 768
H043;36;Mannelijk;Rechts;2;104;right;no;50;rightarrow;707;true;focus;yes;463285;Firefox;89.0;Windows;10;undefined;undefined;1366 x 768;1366 x 768
H043;36;Mannelijk;Rechts;2;105;left;no;50;leftarrow;1114;true;focus;yes;465165;Firefox;89.0;Windows;10;undefined;undefined;1366 x 768;1366 x 768
H043;36;Mannelijk;Rechts;2;106;right;yes;50;rightarrow;403;false;focus;yes;466338;Firefox;89.0;Windows;10;undefined;undefined;1366 x 768;1366 x 768
H043;36;Mannelijk;Rechts;2;107;left;yes;50;leftarrow;519;false;focus;yes;467632;Firefox;89.0;Windows;10;undefined;undefined;1366 x 768;1366 x 768
H043;36;Mannelijk;Rechts;2;108;right;no;50;rightarrow;871;true;focus;yes;469277;Firefox;89.0;Windows;10;undefined;undefined;1366 x 768;1366 x 768
H043;36;Mannelijk;Rechts;2;109;right;no;50;rightarrow;388;true;focus;yes;470448;Firefox;89.0;Windows;10;undefined;undefined;1366 x 768;1366 x 768
H043;36;Mannelijk;Rechts;2;110;left;no;50;leftarrow;355;true;focus;yes;471563;Firefox;89.0;Windows;10;undefined;undefined;1366 x 768;1366 x 768
H043;36;Mannelijk;Rechts;2;111;right;no;50;rightarrow;371;true;focus;yes;472698;Firefox;89.0;Windows;10;undefined;undefined;1366 x 768;1366 x 768
H043;36;Mannelijk;Rechts;2;112;left;no;50;leftarrow;336;true;focus;yes;473803;Firefox;89.0;Windows;10;undefined;undefined;1366 x 768;1366 x 768
H043;36;Mannelijk;Rechts;2;113;left;no;50;leftarrow;387;true;focus;yes;474962;Firefox;89.0;Windows;10;undefined;undefined;1366 x 768;1366 x 768
H043;36;Mannelijk;Rechts;2;114;right;yes;50;rightarrow;368;false;focus;yes;476097;Firefox;89.0;Windows;10;undefined;undefined;1366 x 768;1366 x 768
H043;36;Mannelijk;Rechts;2;115;left;no;50;leftarrow;311;true;focus;yes;477180;Firefox;89.0;Windows;10;undefined;undefined;1366 x 768;1366 x 768
H043;36;Mannelijk;Rechts;2;116;right;no;50;rightarrow;368;true;focus;yes;478327;Firefox;89.0;Windows;10;undefined;undefined;1366 x 768;1366 x 768
H043;36;Mannelijk;Rechts;2;117;left;no;50;leftarrow;948;true;focus;yes;480054;Firefox;89.0;Windows;10;undefined;undefined;1366 x 768;1366 x 768
H043;36;Mannelijk;Rechts;2;118;left;yes;50;leftarrow;866;false;focus;yes;481697;Firefox;89.0;Windows;10;undefined;undefined;1366 x 768;1366 x 768
H043;36;Mannelijk;Rechts;2;119;right;no;50;rightarrow;427;true;focus;yes;482892;Firefox;89.0;Windows;10;undefined;undefined;1366 x 768;1366 x 768
H043;36;Mannelijk;Rechts;2;120;right;no;50;rightarrow;461;true;focus;yes;484138;Firefox;89.0;Windows;10;undefined;undefined;1366 x 768;1366 x 768
H043;36;Mannelijk;Rechts;2;121;right;no;50;rightarrow;619;true;focus;yes;485521;Firefox;89.0;Windows;10;undefined;undefined;1366 x 768;1366 x 768
H043;36;Mannelijk;Rechts;2;122;left;no;50;leftarrow;404;true;focus;yes;486695;Firefox;89.0;Windows;10;undefined;undefined;1366 x 768;1366 x 768
H043;36;Mannelijk;Rechts;2;123;right;yes;50;rightarrow;383;false;focus;yes;487838;Firefox;89.0;Windows;10;undefined;undefined;1366 x 768;1366 x 768
H043;36;Mannelijk;Rechts;2;124;left;yes;50;leftarrow;483;false;focus;yes;489104;Firefox;89.0;Windows;10;undefined;undefined;1366 x 768;1366 x 768
H043;36;Mannelijk;Rechts;2;125;left;no;50;leftarrow;525;true;focus;yes;490399;Firefox;89.0;Windows;10;undefined;undefined;1366 x 768;1366 x 768
H043;36;Mannelijk;Rechts;2;126;right;no;50;undefined;null;false;focus;yes;492429;Firefox;89.0;Windows;10;undefined;undefined;1366 x 768;1366 x 768
H043;36;Mannelijk;Rechts;2;127;right;no;50;rightarrow;620;true;focus;yes;493819;Firefox;89.0;Windows;10;undefined;undefined;1366 x 768;1366 x 768
H043;36;Mannelijk;Rechts;2;128;left;no;50;leftarrow;345;true;focus;yes;494935;Firefox;89.0;Windows;10;undefined;undefined;1366 x 768;1366 x 768
H043;36;Mannelijk;Rechts;3;1;left;yes;50;leftarrow;564;false;focus;yes;544122;Firefox;89.0;Windows;10;undefined;undefined;1366 x 768;1366 x 768
H043;36;Mannelijk;Rechts;3;2;left;no;50;leftarrow;591;true;focus;yes;545498;Firefox;89.0;Windows;10;undefined;undefined;1366 x 768;1366 x 768
H043;36;Mannelijk;Rechts;3;3;right;no;50;rightarrow;514;true;focus;yes;546785;Firefox;89.0;Windows;10;undefined;undefined;1366 x 768;1366 x 768
H043;36;Mannelijk;Rechts;3;4;left;no;50;leftarrow;512;true;focus;yes;548078;Firefox;89.0;Windows;10;undefined;undefined;1366 x 768;1366 x 768
H043;36;Mannelijk;Rechts;3;5;right;yes;50;rightarrow;387;false;focus;yes;549235;Firefox;89.0;Windows;10;undefined;undefined;1366 x 768;1366 x 768
H043;36;Mannelijk;Rechts;3;6;right;no;50;rightarrow;460;true;focus;yes;550466;Firefox;89.0;Windows;10;undefined;undefined;1366 x 768;1366 x 768
H043;36;Mannelijk;Rechts;3;7;left;no;50;leftarrow;649;true;focus;yes;551895;Firefox;89.0;Windows;10;undefined;undefined;1366 x 768;1366 x 768
H043;36;Mannelijk;Rechts;3;8;right;no;50;rightarrow;491;true;focus;yes;553168;Firefox;89.0;Windows;10;undefined;undefined;1366 x 768;1366 x 768
H043;36;Mannelijk;Rechts;3;9;left;yes;50;leftarrow;425;false;focus;yes;554362;Firefox;89.0;Windows;10;undefined;undefined;1366 x 768;1366 x 768
H043;36;Mannelijk;Rechts;3;10;right;no;50;rightarrow;511;true;focus;yes;555657;Firefox;89.0;Windows;10;undefined;undefined;1366 x 768;1366 x 768
H043;36;Mannelijk;Rechts;3;11;right;yes;50;rightarrow;536;false;focus;yes;556973;Firefox;89.0;Windows;10;undefined;undefined;1366 x 768;1366 x 768
H043;36;Mannelijk;Rechts;3;12;left;no;50;leftarrow;481;true;focus;yes;558237;Firefox;89.0;Windows;10;undefined;undefined;1366 x 768;1366 x 768
H043;36;Mannelijk;Rechts;3;13;right;no;50;rightarrow;427;true;focus;yes;559434;Firefox;89.0;Windows;10;undefined;undefined;1366 x 768;1366 x 768
H043;36;Mannelijk;Rechts;3;14;left;no;50;leftarrow;460;true;focus;yes;560676;Firefox;89.0;Windows;10;undefined;undefined;1366 x 768;1366 x 768
H043;36;Mannelijk;Rechts;3;15;left;no;50;leftarrow;737;true;focus;yes;562185;Firefox;89.0;Windows;10;undefined;undefined;1366 x 768;1366 x 768
H043;36;Mannelijk;Rechts;3;16;right;no;50;rightarrow;592;true;focus;yes;563568;Firefox;89.0;Windows;10;undefined;undefined;1366 x 768;1366 x 768
H043;36;Mannelijk;Rechts;3;17;right;no;50;rightarrow;326;true;focus;yes;564672;Firefox;89.0;Windows;10;undefined;undefined;1366 x 768;1366 x 768
H043;36;Mannelijk;Rechts;3;18;left;no;50;leftarrow;381;true;focus;yes;565837;Firefox;89.0;Windows;10;undefined;undefined;1366 x 768;1366 x 768
H043;36;Mannelijk;Rechts;3;19;left;yes;50;leftarrow;856;false;focus;yes;567465;Firefox;89.0;Windows;10;undefined;undefined;1366 x 768;1366 x 768
H043;36;Mannelijk;Rechts;3;20;right;no;50;rightarrow;490;true;focus;yes;568737;Firefox;89.0;Windows;10;undefined;undefined;1366 x 768;1366 x 768
H043;36;Mannelijk;Rechts;3;21;right;yes;50;rightarrow;466;false;focus;yes;569983;Firefox;89.0;Windows;10;undefined;undefined;1366 x 768;1366 x 768
H043;36;Mannelijk;Rechts;3;22;left;no;50;leftarrow;350;true;focus;yes;571117;Firefox;89.0;Windows;10;undefined;undefined;1366 x 768;1366 x 768
H043;36;Mannelijk;Rechts;3;23;right;no;50;rightarrow;384;true;focus;yes;572280;Firefox;89.0;Windows;10;undefined;undefined;1366 x 768;1366 x 768
H043;36;Mannelijk;Rechts;3;24;left;no;50;leftarrow;380;true;focus;yes;573436;Firefox;89.0;Windows;10;undefined;undefined;1366 x 768;1366 x 768
H043;36;Mannelijk;Rechts;3;25;right;no;50;rightarrow;436;true;focus;yes;574651;Firefox;89.0;Windows;10;undefined;undefined;1366 x 768;1366 x 768
H043;36;Mannelijk;Rechts;3;26;left;no;50;leftarrow;392;true;focus;yes;575825;Firefox;89.0;Windows;10;undefined;undefined;1366 x 768;1366 x 768
H043;36;Mannelijk;Rechts;3;27;left;no;50;leftarrow;431;true;focus;yes;577030;Firefox;89.0;Windows;10;undefined;undefined;1366 x 768;1366 x 768
H043;36;Mannelijk;Rechts;3;28;left;yes;50;leftarrow;521;false;focus;yes;578327;Firefox;89.0;Windows;10;undefined;undefined;1366 x 768;1366 x 768
H043;36;Mannelijk;Rechts;3;29;left;no;50;rightarrow;643;false;focus;yes;579742;Firefox;89.0;Windows;10;undefined;undefined;1366 x 768;1366 x 768
H043;36;Mannelijk;Rechts;3;30;right;yes;50;rightarrow;502;false;focus;yes;581018;Firefox;89.0;Windows;10;undefined;undefined;1366 x 768;1366 x 768
H043;36;Mannelijk;Rechts;3;31;right;no;50;rightarrow;515;true;focus;yes;582321;Firefox;89.0;Windows;10;undefined;undefined;1366 x 768;1366 x 768
H043;36;Mannelijk;Rechts;3;32;right;no;50;leftarrow;706;false;focus;yes;583792;Firefox;89.0;Windows;10;undefined;undefined;1366 x 768;1366 x 768
H043;36;Mannelijk;Rechts;3;33;left;no;50;leftarrow;432;true;focus;yes;584994;Firefox;89.0;Windows;10;undefined;undefined;1366 x 768;1366 x 768
H043;36;Mannelijk;Rechts;3;34;left;no;50;leftarrow;602;true;focus;yes;586366;Firefox;89.0;Windows;10;undefined;undefined;1366 x 768;1366 x 768
H043;36;Mannelijk;Rechts;3;35;left;yes;50;leftarrow;418;false;focus;yes;587568;Firefox;89.0;Windows;10;undefined;undefined;1366 x 768;1366 x 768
H043;36;Mannelijk;Rechts;3;36;left;no;50;leftarrow;421;true;focus;yes;588757;Firefox;89.0;Windows;10;undefined;undefined;1366 x 768;1366 x 768
H043;36;Mannelijk;Rechts;3;37;right;no;50;leftarrow;562;false;focus;yes;590098;Firefox;89.0;Windows;10;undefined;undefined;1366 x 768;1366 x 768
H043;36;Mannelijk;Rechts;3;38;right;no;50;rightarrow;454;true;focus;yes;591325;Firefox;89.0;Windows;10;undefined;undefined;1366 x 768;1366 x 768
H043;36;Mannelijk;Rechts;3;39;right;no;50;rightarrow;362;true;focus;yes;592466;Firefox;89.0;Windows;10;undefined;undefined;1366 x 768;1366 x 768
H043;36;Mannelijk;Rechts;3;40;right;yes;50;rightarrow;370;false;focus;yes;593616;Firefox;89.0;Windows;10;undefined;undefined;1366 x 768;1366 x 768
H043;36;Mannelijk;Rechts;3;41;right;no;50;rightarrow;410;true;focus;yes;594796;Firefox;89.0;Windows;10;undefined;undefined;1366 x 768;1366 x 768
H043;36;Mannelijk;Rechts;3;42;left;no;50;leftarrow;540;true;focus;yes;596105;Firefox;89.0;Windows;10;undefined;undefined;1366 x 768;1366 x 768
H043;36;Mannelijk;Rechts;3;43;right;no;50;rightarrow;470;true;focus;yes;597345;Firefox;89.0;Windows;10;undefined;undefined;1366 x 768;1366 x 768
H043;36;Mannelijk;Rechts;3;44;right;no;50;rightarrow;530;true;focus;yes;598647;Firefox;89.0;Windows;10;undefined;undefined;1366 x 768;1366 x 768
H043;36;Mannelijk;Rechts;3;45;left;yes;50;leftarrow;369;false;focus;yes;599796;Firefox;89.0;Windows;10;undefined;undefined;1366 x 768;1366 x 768
H043;36;Mannelijk;Rechts;3;46;left;no;50;leftarrow;431;true;focus;yes;600996;Firefox;89.0;Windows;10;undefined;undefined;1366 x 768;1366 x 768
H043;36;Mannelijk;Rechts;3;47;left;no;50;leftarrow;539;true;focus;yes;602306;Firefox;89.0;Windows;10;undefined;undefined;1366 x 768;1366 x 768
H043;36;Mannelijk;Rechts;3;48;right;yes;50;rightarrow;490;false;focus;yes;603575;Firefox;89.0;Windows;10;undefined;undefined;1366 x 768;1366 x 768
H043;36;Mannelijk;Rechts;3;49;right;no;50;rightarrow;679;true;focus;yes;605023;Firefox;89.0;Windows;10;undefined;undefined;1366 x 768;1366 x 768
H043;36;Mannelijk;Rechts;3;50;right;no;50;rightarrow;622;true;focus;yes;606427;Firefox;89.0;Windows;10;undefined;undefined;1366 x 768;1366 x 768
H043;36;Mannelijk;Rechts;3;51;left;yes;50;leftarrow;653;false;focus;yes;607848;Firefox;89.0;Windows;10;undefined;undefined;1366 x 768;1366 x 768
H043;36;Mannelijk;Rechts;3;52;left;no;50;leftarrow;503;true;focus;yes;609116;Firefox;89.0;Windows;10;undefined;undefined;1366 x 768;1366 x 768
H043;36;Mannelijk;Rechts;3;53;right;no;50;rightarrow;572;true;focus;yes;610467;Firefox;89.0;Windows;10;undefined;undefined;1366 x 768;1366 x 768
H043;36;Mannelijk;Rechts;3;54;right;yes;50;rightarrow;626;false;focus;yes;611864;Firefox;89.0;Windows;10;undefined;undefined;1366 x 768;1366 x 768
H043;36;Mannelijk;Rechts;3;55;left;no;50;leftarrow;758;true;focus;yes;613393;Firefox;89.0;Windows;10;undefined;undefined;1366 x 768;1366 x 768
H043;36;Mannelijk;Rechts;3;56;left;no;50;leftarrow;636;true;focus;yes;614812;Firefox;89.0;Windows;10;undefined;undefined;1366 x 768;1366 x 768
H043;36;Mannelijk;Rechts;3;57;left;yes;50;leftarrow;343;false;focus;yes;615939;Firefox;89.0;Windows;10;undefined;undefined;1366 x 768;1366 x 768
H043;36;Mannelijk;Rechts;3;58;right;no;50;leftarrow;445;false;focus;yes;617171;Firefox;89.0;Windows;10;undefined;undefined;1366 x 768;1366 x 768
H043;36;Mannelijk;Rechts;3;59;right;no;50;rightarrow;425;true;focus;yes;618371;Firefox;89.0;Windows;10;undefined;undefined;1366 x 768;1366 x 768
H043;36;Mannelijk;Rechts;3;60;left;no;50;leftarrow;337;true;focus;yes;619481;Firefox;89.0;Windows;10;undefined;undefined;1366 x 768;1366 x 768
H043;36;Mannelijk;Rechts;3;61;right;no;50;rightarrow;416;true;focus;yes;620663;Firefox;89.0;Windows;10;undefined;undefined;1366 x 768;1366 x 768
H043;36;Mannelijk;Rechts;3;62;right;yes;50;rightarrow;1007;false;focus;yes;622438;Firefox;89.0;Windows;10;undefined;undefined;1366 x 768;1366 x 768
H043;36;Mannelijk;Rechts;3;63;left;no;50;leftarrow;441;true;focus;yes;623666;Firefox;89.0;Windows;10;undefined;undefined;1366 x 768;1366 x 768
H043;36;Mannelijk;Rechts;3;64;left;no;50;leftarrow;362;true;focus;yes;624808;Firefox;89.0;Windows;10;undefined;undefined;1366 x 768;1366 x 768
H043;36;Mannelijk;Rechts;3;65;left;yes;50;leftarrow;432;false;focus;yes;626006;Firefox;89.0;Windows;10;undefined;undefined;1366 x 768;1366 x 768
H043;36;Mannelijk;Rechts;3;66;right;no;50;rightarrow;665;true;focus;yes;627445;Firefox;89.0;Windows;10;undefined;undefined;1366 x 768;1366 x 768
H043;36;Mannelijk;Rechts;3;67;right;no;50;rightarrow;797;true;focus;yes;629021;Firefox;89.0;Windows;10;undefined;undefined;1366 x 768;1366 x 768
H043;36;Mannelijk;Rechts;3;68;right;no;50;rightarrow;706;true;focus;yes;630500;Firefox;89.0;Windows;10;undefined;undefined;1366 x 768;1366 x 768
H043;36;Mannelijk;Rechts;3;69;left;no;50;leftarrow;393;true;focus;yes;631670;Firefox;89.0;Windows;10;undefined;undefined;1366 x 768;1366 x 768
H043;36;Mannelijk;Rechts;3;70;right;yes;50;rightarrow;369;false;focus;yes;632814;Firefox;89.0;Windows;10;undefined;undefined;1366 x 768;1366 x 768
H043;36;Mannelijk;Rechts;3;71;left;no;50;leftarrow;337;true;focus;yes;633922;Firefox;89.0;Windows;10;undefined;undefined;1366 x 768;1366 x 768
H043;36;Mannelijk;Rechts;3;72;left;no;50;leftarrow;521;true;focus;yes;635212;Firefox;89.0;Windows;10;undefined;undefined;1366 x 768;1366 x 768
H043;36;Mannelijk;Rechts;3;73;left;yes;50;leftarrow;610;false;focus;yes;636591;Firefox;89.0;Windows;10;undefined;undefined;1366 x 768;1366 x 768
H043;36;Mannelijk;Rechts;3;74;right;no;50;rightarrow;363;true;focus;yes;637734;Firefox;89.0;Windows;10;undefined;undefined;1366 x 768;1366 x 768
H043;36;Mannelijk;Rechts;3;75;left;no;50;leftarrow;314;true;focus;yes;638825;Firefox;89.0;Windows;10;undefined;undefined;1366 x 768;1366 x 768
H043;36;Mannelijk;Rechts;3;76;right;yes;50;rightarrow;311;false;focus;yes;639914;Firefox;89.0;Windows;10;undefined;undefined;1366 x 768;1366 x 768
H043;36;Mannelijk;Rechts;3;77;right;no;50;rightarrow;404;true;focus;yes;641094;Firefox;89.0;Windows;10;undefined;undefined;1366 x 768;1366 x 768
H043;36;Mannelijk;Rechts;3;78;left;no;50;leftarrow;323;true;focus;yes;642186;Firefox;89.0;Windows;10;undefined;undefined;1366 x 768;1366 x 768
H043;36;Mannelijk;Rechts;3;79;left;no;50;leftarrow;382;true;focus;yes;643356;Firefox;89.0;Windows;10;undefined;undefined;1366 x 768;1366 x 768
H043;36;Mannelijk;Rechts;3;80;right;no;50;rightarrow;454;true;focus;yes;644588;Firefox;89.0;Windows;10;undefined;undefined;1366 x 768;1366 x 768
H043;36;Mannelijk;Rechts;3;81;right;no;50;leftarrow;258;false;focus;yes;645628;Firefox;89.0;Windows;10;undefined;undefined;1366 x 768;1366 x 768
H043;36;Mannelijk;Rechts;3;82;left;no;50;leftarrow;374;true;focus;yes;646781;Firefox;89.0;Windows;10;undefined;undefined;1366 x 768;1366 x 768
H043;36;Mannelijk;Rechts;3;83;right;no;50;rightarrow;326;true;focus;yes;647890;Firefox;89.0;Windows;10;undefined;undefined;1366 x 768;1366 x 768
H043;36;Mannelijk;Rechts;3;84;right;no;50;rightarrow;627;true;focus;yes;649291;Firefox;89.0;Windows;10;undefined;undefined;1366 x 768;1366 x 768
H043;36;Mannelijk;Rechts;3;85;left;no;50;leftarrow;638;true;focus;yes;650707;Firefox;89.0;Windows;10;undefined;undefined;1366 x 768;1366 x 768
H043;36;Mannelijk;Rechts;3;86;right;yes;50;rightarrow;657;false;focus;yes;652126;Firefox;89.0;Windows;10;undefined;undefined;1366 x 768;1366 x 768
H043;36;Mannelijk;Rechts;3;87;left;no;50;leftarrow;517;true;focus;yes;653415;Firefox;89.0;Windows;10;undefined;undefined;1366 x 768;1366 x 768
H043;36;Mannelijk;Rechts;3;88;left;yes;50;leftarrow;486;false;focus;yes;654676;Firefox;89.0;Windows;10;undefined;undefined;1366 x 768;1366 x 768
H043;36;Mannelijk;Rechts;3;89;left;no;50;leftarrow;607;true;focus;yes;656056;Firefox;89.0;Windows;10;undefined;undefined;1366 x 768;1366 x 768
H043;36;Mannelijk;Rechts;3;90;right;yes;50;rightarrow;744;false;focus;yes;657575;Firefox;89.0;Windows;10;undefined;undefined;1366 x 768;1366 x 768
H043;36;Mannelijk;Rechts;3;91;left;yes;50;leftarrow;634;false;focus;yes;658983;Firefox;89.0;Windows;10;undefined;undefined;1366 x 768;1366 x 768
H043;36;Mannelijk;Rechts;3;92;right;no;50;rightarrow;642;true;focus;yes;660402;Firefox;89.0;Windows;10;undefined;undefined;1366 x 768;1366 x 768
H043;36;Mannelijk;Rechts;3;93;left;no;50;leftarrow;432;true;focus;yes;661613;Firefox;89.0;Windows;10;undefined;undefined;1366 x 768;1366 x 768
H043;36;Mannelijk;Rechts;3;94;right;no;50;rightarrow;420;true;focus;yes;662804;Firefox;89.0;Windows;10;undefined;undefined;1366 x 768;1366 x 768
H043;36;Mannelijk;Rechts;3;95;right;no;50;rightarrow;482;true;focus;yes;664055;Firefox;89.0;Windows;10;undefined;undefined;1366 x 768;1366 x 768
H043;36;Mannelijk;Rechts;3;96;left;no;50;leftarrow;985;true;focus;yes;665818;Firefox;89.0;Windows;10;undefined;undefined;1366 x 768;1366 x 768
H043;36;Mannelijk;Rechts;3;97;right;yes;50;undefined;null;true;focus;yes;667851;Firefox;89.0;Windows;10;undefined;undefined;1366 x 768;1366 x 768
H043;36;Mannelijk;Rechts;3;98;right;no;100;rightarrow;401;true;focus;yes;669024;Firefox;89.0;Windows;10;undefined;undefined;1366 x 768;1366 x 768
H043;36;Mannelijk;Rechts;3;99;left;yes;100;leftarrow;481;false;focus;yes;670284;Firefox;89.0;Windows;10;undefined;undefined;1366 x 768;1366 x 768
H043;36;Mannelijk;Rechts;3;100;right;no;50;rightarrow;593;true;focus;yes;671643;Firefox;89.0;Windows;10;undefined;undefined;1366 x 768;1366 x 768
H043;36;Mannelijk;Rechts;3;101;right;no;50;rightarrow;451;true;focus;yes;672873;Firefox;89.0;Windows;10;undefined;undefined;1366 x 768;1366 x 768
H043;36;Mannelijk;Rechts;3;102;left;no;50;leftarrow;473;true;focus;yes;674124;Firefox;89.0;Windows;10;undefined;undefined;1366 x 768;1366 x 768
H043;36;Mannelijk;Rechts;3;103;left;no;50;leftarrow;461;true;focus;yes;675353;Firefox;89.0;Windows;10;undefined;undefined;1366 x 768;1366 x 768
H043;36;Mannelijk;Rechts;3;104;left;no;50;leftarrow;439;true;focus;yes;676554;Firefox;89.0;Windows;10;undefined;undefined;1366 x 768;1366 x 768
H043;36;Mannelijk;Rechts;3;105;right;yes;50;rightarrow;669;false;focus;yes;677994;Firefox;89.0;Windows;10;undefined;undefined;1366 x 768;1366 x 768
H043;36;Mannelijk;Rechts;3;106;left;no;50;leftarrow;1035;true;focus;yes;679809;Firefox;89.0;Windows;10;undefined;undefined;1366 x 768;1366 x 768
H043;36;Mannelijk;Rechts;3;107;right;no;50;rightarrow;871;true;focus;yes;681464;Firefox;89.0;Windows;10;undefined;undefined;1366 x 768;1366 x 768
H043;36;Mannelijk;Rechts;3;108;left;no;50;leftarrow;639;true;focus;yes;682875;Firefox;89.0;Windows;10;undefined;undefined;1366 x 768;1366 x 768
H043;36;Mannelijk;Rechts;3;109;right;no;50;rightarrow;391;true;focus;yes;684046;Firefox;89.0;Windows;10;undefined;undefined;1366 x 768;1366 x 768
H043;36;Mannelijk;Rechts;3;110;right;no;50;rightarrow;601;true;focus;yes;685415;Firefox;89.0;Windows;10;undefined;undefined;1366 x 768;1366 x 768
H043;36;Mannelijk;Rechts;3;111;left;yes;50;leftarrow;966;false;focus;yes;687151;Firefox;89.0;Windows;10;undefined;undefined;1366 x 768;1366 x 768
H043;36;Mannelijk;Rechts;3;112;left;no;50;leftarrow;479;true;focus;yes;688404;Firefox;89.0;Windows;10;undefined;undefined;1366 x 768;1366 x 768
H043;36;Mannelijk;Rechts;3;113;right;no;50;undefined;null;false;focus;yes;690452;Firefox;89.0;Windows;10;undefined;undefined;1366 x 768;1366 x 768
H043;36;Mannelijk;Rechts;3;114;right;yes;50;rightarrow;640;false;focus;yes;691864;Firefox;89.0;Windows;10;undefined;undefined;1366 x 768;1366 x 768
H043;36;Mannelijk;Rechts;3;115;left;no;50;leftarrow;390;true;focus;yes;693026;Firefox;89.0;Windows;10;undefined;undefined;1366 x 768;1366 x 768
H043;36;Mannelijk;Rechts;3;116;left;no;50;leftarrow;331;true;focus;yes;694126;Firefox;89.0;Windows;10;undefined;undefined;1366 x 768;1366 x 768
H043;36;Mannelijk;Rechts;3;117;right;no;50;rightarrow;342;true;focus;yes;695237;Firefox;89.0;Windows;10;undefined;undefined;1366 x 768;1366 x 768
H043;36;Mannelijk;Rechts;3;118;left;yes;50;leftarrow;324;false;focus;yes;696339;Firefox;89.0;Windows;10;undefined;undefined;1366 x 768;1366 x 768
H043;36;Mannelijk;Rechts;3;119;right;no;50;rightarrow;297;true;focus;yes;697423;Firefox;89.0;Windows;10;undefined;undefined;1366 x 768;1366 x 768
H043;36;Mannelijk;Rechts;3;120;left;no;50;leftarrow;310;true;focus;yes;698514;Firefox;89.0;Windows;10;undefined;undefined;1366 x 768;1366 x 768
H043;36;Mannelijk;Rechts;3;121;right;no;50;rightarrow;280;true;focus;yes;699566;Firefox;89.0;Windows;10;undefined;undefined;1366 x 768;1366 x 768
H043;36;Mannelijk;Rechts;3;122;left;no;50;leftarrow;271;true;focus;yes;700606;Firefox;89.0;Windows;10;undefined;undefined;1366 x 768;1366 x 768
H043;36;Mannelijk;Rechts;3;123;right;no;50;rightarrow;244;true;focus;yes;701619;Firefox;89.0;Windows;10;undefined;undefined;1366 x 768;1366 x 768
H043;36;Mannelijk;Rechts;3;124;left;no;50;leftarrow;268;true;focus;yes;702663;Firefox;89.0;Windows;10;undefined;undefined;1366 x 768;1366 x 768
H043;36;Mannelijk;Rechts;3;125;left;no;50;rightarrow;290;false;focus;yes;703724;Firefox;89.0;Windows;10;undefined;undefined;1366 x 768;1366 x 768
H043;36;Mannelijk;Rechts;3;126;left;yes;50;leftarrow;411;false;focus;yes;704905;Firefox;89.0;Windows;10;undefined;undefined;1366 x 768;1366 x 768
H043;36;Mannelijk;Rechts;3;127;right;yes;50;rightarrow;402;false;focus;yes;706085;Firefox;89.0;Windows;10;undefined;undefined;1366 x 768;1366 x 768
H043;36;Mannelijk;Rechts;3;128;right;no;50;rightarrow;359;true;focus;yes;707214;Firefox;89.0;Windows;10;undefined;undefined;1366 x 768;1366 x 768
H043;36;Mannelijk;Rechts;4;1;left;yes;50;leftarrow;577;false;focus;yes;743522;Firefox;89.0;Windows;10;undefined;undefined;1366 x 768;1366 x 768
H043;36;Mannelijk;Rechts;4;2;left;no;50;leftarrow;589;true;focus;yes;744894;Firefox;89.0;Windows;10;undefined;undefined;1366 x 768;1366 x 768
H043;36;Mannelijk;Rechts;4;3;left;no;50;leftarrow;788;true;focus;yes;746463;Firefox;89.0;Windows;10;undefined;undefined;1366 x 768;1366 x 768
H043;36;Mannelijk;Rechts;4;4;left;no;50;leftarrow;489;true;focus;yes;747733;Firefox;89.0;Windows;10;undefined;undefined;1366 x 768;1366 x 768
H043;36;Mannelijk;Rechts;4;5;right;yes;50;rightarrow;450;false;focus;yes;748964;Firefox;89.0;Windows;10;undefined;undefined;1366 x 768;1366 x 768
H043;36;Mannelijk;Rechts;4;6;right;no;50;rightarrow;580;true;focus;yes;750314;Firefox;89.0;Windows;10;undefined;undefined;1366 x 768;1366 x 768
H043;36;Mannelijk;Rechts;4;7;right;no;50;rightarrow;631;true;focus;yes;751724;Firefox;89.0;Windows;10;undefined;undefined;1366 x 768;1366 x 768
H043;36;Mannelijk;Rechts;4;8;right;no;50;rightarrow;679;true;focus;yes;753182;Firefox;89.0;Windows;10;undefined;undefined;1366 x 768;1366 x 768
H043;36;Mannelijk;Rechts;4;9;left;yes;50;leftarrow;497;false;focus;yes;754461;Firefox;89.0;Windows;10;undefined;undefined;1366 x 768;1366 x 768
H043;36;Mannelijk;Rechts;4;10;right;yes;50;rightarrow;816;false;focus;yes;756061;Firefox;89.0;Windows;10;undefined;undefined;1366 x 768;1366 x 768
H043;36;Mannelijk;Rechts;4;11;left;no;50;leftarrow;912;true;focus;yes;757746;Firefox;89.0;Windows;10;undefined;undefined;1366 x 768;1366 x 768
H043;36;Mannelijk;Rechts;4;12;right;no;50;rightarrow;460;true;focus;yes;758986;Firefox;89.0;Windows;10;undefined;undefined;1366 x 768;1366 x 768
H043;36;Mannelijk;Rechts;4;13;left;no;50;leftarrow;952;true;focus;yes;760705;Firefox;89.0;Windows;10;undefined;undefined;1366 x 768;1366 x 768
H043;36;Mannelijk;Rechts;4;14;right;no;50;rightarrow;383;true;focus;yes;761856;Firefox;89.0;Windows;10;undefined;undefined;1366 x 768;1366 x 768
H043;36;Mannelijk;Rechts;4;15;left;no;50;leftarrow;315;true;focus;yes;762950;Firefox;89.0;Windows;10;undefined;undefined;1366 x 768;1366 x 768
H043;36;Mannelijk;Rechts;4;16;right;no;50;rightarrow;337;true;focus;yes;764071;Firefox;89.0;Windows;10;undefined;undefined;1366 x 768;1366 x 768
H043;36;Mannelijk;Rechts;4;17;left;yes;50;leftarrow;287;false;focus;yes;765142;Firefox;89.0;Windows;10;undefined;undefined;1366 x 768;1366 x 768
H043;36;Mannelijk;Rechts;4;18;right;no;50;rightarrow;331;true;focus;yes;766244;Firefox;89.0;Windows;10;undefined;undefined;1366 x 768;1366 x 768
H043;36;Mannelijk;Rechts;4;19;left;no;50;leftarrow;410;true;focus;yes;767425;Firefox;89.0;Windows;10;undefined;undefined;1366 x 768;1366 x 768
H043;36;Mannelijk;Rechts;4;20;right;no;50;rightarrow;402;true;focus;yes;768596;Firefox;89.0;Windows;10;undefined;undefined;1366 x 768;1366 x 768
H043;36;Mannelijk;Rechts;4;21;right;yes;50;rightarrow;949;false;focus;yes;770333;Firefox;89.0;Windows;10;undefined;undefined;1366 x 768;1366 x 768
H043;36;Mannelijk;Rechts;4;22;left;no;50;leftarrow;648;true;focus;yes;771762;Firefox;89.0;Windows;10;undefined;undefined;1366 x 768;1366 x 768
H043;36;Mannelijk;Rechts;4;23;left;no;50;rightarrow;730;false;focus;yes;773273;Firefox;89.0;Windows;10;undefined;undefined;1366 x 768;1366 x 768
H043;36;Mannelijk;Rechts;4;24;right;no;50;rightarrow;369;true;focus;yes;774413;Firefox;89.0;Windows;10;undefined;undefined;1366 x 768;1366 x 768
H043;36;Mannelijk;Rechts;4;25;left;yes;50;leftarrow;421;false;focus;yes;775604;Firefox;89.0;Windows;10;undefined;undefined;1366 x 768;1366 x 768
H043;36;Mannelijk;Rechts;4;26;right;yes;50;rightarrow;530;false;focus;yes;776914;Firefox;89.0;Windows;10;undefined;undefined;1366 x 768;1366 x 768
H043;36;Mannelijk;Rechts;4;27;left;no;50;leftarrow;480;true;focus;yes;778165;Firefox;89.0;Windows;10;undefined;undefined;1366 x 768;1366 x 768
H043;36;Mannelijk;Rechts;4;28;left;no;50;leftarrow;423;true;focus;yes;779366;Firefox;89.0;Windows;10;undefined;undefined;1366 x 768;1366 x 768
H043;36;Mannelijk;Rechts;4;29;right;no;50;rightarrow;484;true;focus;yes;780629;Firefox;89.0;Windows;10;undefined;undefined;1366 x 768;1366 x 768
H043;36;Mannelijk;Rechts;4;30;left;no;50;leftarrow;545;true;focus;yes;781949;Firefox;89.0;Windows;10;undefined;undefined;1366 x 768;1366 x 768
H043;36;Mannelijk;Rechts;4;31;right;no;50;rightarrow;536;true;focus;yes;783259;Firefox;89.0;Windows;10;undefined;undefined;1366 x 768;1366 x 768
H043;36;Mannelijk;Rechts;4;32;right;no;50;rightarrow;495;true;focus;yes;784529;Firefox;89.0;Windows;10;undefined;undefined;1366 x 768;1366 x 768
H043;36;Mannelijk;Rechts;4;33;left;no;50;leftarrow;475;true;focus;yes;785791;Firefox;89.0;Windows;10;undefined;undefined;1366 x 768;1366 x 768
H043;36;Mannelijk;Rechts;4;34;right;yes;50;rightarrow;696;false;focus;yes;787270;Firefox;89.0;Windows;10;undefined;undefined;1366 x 768;1366 x 768
H043;36;Mannelijk;Rechts;4;35;left;no;50;leftarrow;1000;true;focus;yes;789055;Firefox;89.0;Windows;10;undefined;undefined;1366 x 768;1366 x 768
H043;36;Mannelijk;Rechts;4;36;right;no;50;rightarrow;388;true;focus;yes;790212;Firefox;89.0;Windows;10;undefined;undefined;1366 x 768;1366 x 768
H043;36;Mannelijk;Rechts;4;37;right;no;50;rightarrow;736;true;focus;yes;791716;Firefox;89.0;Windows;10;undefined;undefined;1366 x 768;1366 x 768
H043;36;Mannelijk;Rechts;4;38;left;no;50;leftarrow;630;true;focus;yes;793115;Firefox;89.0;Windows;10;undefined;undefined;1366 x 768;1366 x 768
H043;36;Mannelijk;Rechts;4;39;left;yes;50;leftarrow;928;false;focus;yes;794813;Firefox;89.0;Windows;10;undefined;undefined;1366 x 768;1366 x 768
H043;36;Mannelijk;Rechts;4;40;right;no;50;rightarrow;411;true;focus;yes;795994;Firefox;89.0;Windows;10;undefined;undefined;1366 x 768;1366 x 768
H043;36;Mannelijk;Rechts;4;41;right;yes;50;rightarrow;423;false;focus;yes;797185;Firefox;89.0;Windows;10;undefined;undefined;1366 x 768;1366 x 768
H043;36;Mannelijk;Rechts;4;42;left;yes;50;leftarrow;485;false;focus;yes;798448;Firefox;89.0;Windows;10;undefined;undefined;1366 x 768;1366 x 768
H043;36;Mannelijk;Rechts;4;43;right;no;50;rightarrow;433;true;focus;yes;799657;Firefox;89.0;Windows;10;undefined;undefined;1366 x 768;1366 x 768
H043;36;Mannelijk;Rechts;4;44;left;no;50;leftarrow;496;true;focus;yes;800931;Firefox;89.0;Windows;10;undefined;undefined;1366 x 768;1366 x 768
H043;36;Mannelijk;Rechts;4;45;right;no;50;rightarrow;528;true;focus;yes;802241;Firefox;89.0;Windows;10;undefined;undefined;1366 x 768;1366 x 768
H043;36;Mannelijk;Rechts;4;46;right;no;50;rightarrow;365;true;focus;yes;803391;Firefox;89.0;Windows;10;undefined;undefined;1366 x 768;1366 x 768
H043;36;Mannelijk;Rechts;4;47;left;no;50;leftarrow;397;true;focus;yes;804562;Firefox;89.0;Windows;10;undefined;undefined;1366 x 768;1366 x 768
H043;36;Mannelijk;Rechts;4;48;left;no;50;leftarrow;660;true;focus;yes;806004;Firefox;89.0;Windows;10;undefined;undefined;1366 x 768;1366 x 768
H043;36;Mannelijk;Rechts;4;49;right;no;50;rightarrow;511;true;focus;yes;807294;Firefox;89.0;Windows;10;undefined;undefined;1366 x 768;1366 x 768
H043;36;Mannelijk;Rechts;4;50;right;no;50;rightarrow;430;true;focus;yes;808494;Firefox;89.0;Windows;10;undefined;undefined;1366 x 768;1366 x 768
H043;36;Mannelijk;Rechts;4;51;left;no;50;leftarrow;353;true;focus;yes;809616;Firefox;89.0;Windows;10;undefined;undefined;1366 x 768;1366 x 768
H043;36;Mannelijk;Rechts;4;52;right;no;50;rightarrow;592;true;focus;yes;810976;Firefox;89.0;Windows;10;undefined;undefined;1366 x 768;1366 x 768
H043;36;Mannelijk;Rechts;4;53;left;yes;50;leftarrow;404;false;focus;yes;812168;Firefox;89.0;Windows;10;undefined;undefined;1366 x 768;1366 x 768
H043;36;Mannelijk;Rechts;4;54;right;yes;50;rightarrow;625;false;focus;yes;813570;Firefox;89.0;Windows;10;undefined;undefined;1366 x 768;1366 x 768
H043;36;Mannelijk;Rechts;4;55;left;no;50;leftarrow;453;true;focus;yes;814796;Firefox;89.0;Windows;10;undefined;undefined;1366 x 768;1366 x 768
H043;36;Mannelijk;Rechts;4;56;left;no;50;leftarrow;478;true;focus;yes;816042;Firefox;89.0;Windows;10;undefined;undefined;1366 x 768;1366 x 768
H043;36;Mannelijk;Rechts;4;57;right;no;50;rightarrow;391;true;focus;yes;817213;Firefox;89.0;Windows;10;undefined;undefined;1366 x 768;1366 x 768
H043;36;Mannelijk;Rechts;4;58;right;yes;50;rightarrow;501;false;focus;yes;818484;Firefox;89.0;Windows;10;undefined;undefined;1366 x 768;1366 x 768
H043;36;Mannelijk;Rechts;4;59;left;no;50;leftarrow;398;true;focus;yes;819664;Firefox;89.0;Windows;10;undefined;undefined;1366 x 768;1366 x 768
H043;36;Mannelijk;Rechts;4;60;right;no;50;rightarrow;371;true;focus;yes;820815;Firefox;89.0;Windows;10;undefined;undefined;1366 x 768;1366 x 768
H043;36;Mannelijk;Rechts;4;61;left;no;50;leftarrow;970;true;focus;yes;822553;Firefox;89.0;Windows;10;undefined;undefined;1366 x 768;1366 x 768
H043;36;Mannelijk;Rechts;4;62;left;no;50;leftarrow;470;true;focus;yes;823803;Firefox;89.0;Windows;10;undefined;undefined;1366 x 768;1366 x 768
H043;36;Mannelijk;Rechts;4;63;left;yes;50;leftarrow;549;false;focus;yes;825124;Firefox;89.0;Windows;10;undefined;undefined;1366 x 768;1366 x 768
H043;36;Mannelijk;Rechts;4;64;right;no;50;rightarrow;461;true;focus;yes;826356;Firefox;89.0;Windows;10;undefined;undefined;1366 x 768;1366 x 768
H043;36;Mannelijk;Rechts;4;65;right;no;50;rightarrow;859;true;focus;yes;828003;Firefox;89.0;Windows;10;undefined;undefined;1366 x 768;1366 x 768
H043;36;Mannelijk;Rechts;4;66;right;no;50;rightarrow;781;true;focus;yes;829565;Firefox;89.0;Windows;10;undefined;undefined;1366 x 768;1366 x 768
H043;36;Mannelijk;Rechts;4;67;left;yes;50;leftarrow;392;false;focus;yes;830734;Firefox;89.0;Windows;10;undefined;undefined;1366 x 768;1366 x 768
H043;36;Mannelijk;Rechts;4;68;left;no;50;leftarrow;456;true;focus;yes;831966;Firefox;89.0;Windows;10;undefined;undefined;1366 x 768;1366 x 768
H043;36;Mannelijk;Rechts;4;69;left;no;50;leftarrow;386;true;focus;yes;833119;Firefox;89.0;Windows;10;undefined;undefined;1366 x 768;1366 x 768
H043;36;Mannelijk;Rechts;4;70;right;yes;50;leftarrow;434;false;focus;yes;834340;Firefox;89.0;Windows;10;undefined;undefined;1366 x 768;1366 x 768
H043;36;Mannelijk;Rechts;4;71;left;no;50;leftarrow;366;true;focus;yes;835493;Firefox;89.0;Windows;10;undefined;undefined;1366 x 768;1366 x 768
H043;36;Mannelijk;Rechts;4;72;right;no;50;rightarrow;512;true;focus;yes;836774;Firefox;89.0;Windows;10;undefined;undefined;1366 x 768;1366 x 768
H043;36;Mannelijk;Rechts;4;73;left;no;50;leftarrow;409;true;focus;yes;837964;Firefox;89.0;Windows;10;undefined;undefined;1366 x 768;1366 x 768
H043;36;Mannelijk;Rechts;4;74;right;no;50;rightarrow;471;true;focus;yes;839205;Firefox;89.0;Windows;10;undefined;undefined;1366 x 768;1366 x 768
H043;36;Mannelijk;Rechts;4;75;left;no;50;leftarrow;437;true;focus;yes;840409;Firefox;89.0;Windows;10;undefined;undefined;1366 x 768;1366 x 768
H043;36;Mannelijk;Rechts;4;76;left;no;50;leftarrow;466;true;focus;yes;841659;Firefox;89.0;Windows;10;undefined;undefined;1366 x 768;1366 x 768
H043;36;Mannelijk;Rechts;4;77;right;no;50;rightarrow;1062;true;focus;yes;843495;Firefox;89.0;Windows;10;undefined;undefined;1366 x 768;1366 x 768
H043;36;Mannelijk;Rechts;4;78;right;yes;50;rightarrow;651;false;focus;yes;844925;Firefox;89.0;Windows;10;undefined;undefined;1366 x 768;1366 x 768
H043;36;Mannelijk;Rechts;4;79;right;no;50;undefined;null;false;focus;yes;846949;Firefox;89.0;Windows;10;undefined;undefined;1366 x 768;1366 x 768
H043;36;Mannelijk;Rechts;4;80;left;yes;50;leftarrow;486;false;focus;yes;848214;Firefox;89.0;Windows;10;undefined;undefined;1366 x 768;1366 x 768
H043;36;Mannelijk;Rechts;4;81;right;yes;50;rightarrow;262;false;focus;yes;849245;Firefox;89.0;Windows;10;undefined;undefined;1366 x 768;1366 x 768
H043;36;Mannelijk;Rechts;4;82;left;no;50;leftarrow;360;true;focus;yes;850379;Firefox;89.0;Windows;10;undefined;undefined;1366 x 768;1366 x 768
H043;36;Mannelijk;Rechts;4;83;right;no;50;rightarrow;381;true;focus;yes;851542;Firefox;89.0;Windows;10;undefined;undefined;1366 x 768;1366 x 768
H043;36;Mannelijk;Rechts;4;84;right;no;50;rightarrow;330;true;focus;yes;852641;Firefox;89.0;Windows;10;undefined;undefined;1366 x 768;1366 x 768
H043;36;Mannelijk;Rechts;4;85;right;no;50;rightarrow;337;true;focus;yes;853744;Firefox;89.0;Windows;10;undefined;undefined;1366 x 768;1366 x 768
H043;36;Mannelijk;Rechts;4;86;left;no;50;leftarrow;303;true;focus;yes;854818;Firefox;89.0;Windows;10;undefined;undefined;1366 x 768;1366 x 768
H043;36;Mannelijk;Rechts;4;87;left;yes;50;leftarrow;484;false;focus;yes;856078;Firefox;89.0;Windows;10;undefined;undefined;1366 x 768;1366 x 768
H043;36;Mannelijk;Rechts;4;88;left;no;50;leftarrow;490;true;focus;yes;857341;Firefox;89.0;Windows;10;undefined;undefined;1366 x 768;1366 x 768
H043;36;Mannelijk;Rechts;4;89;right;no;50;rightarrow;462;true;focus;yes;858589;Firefox;89.0;Windows;10;undefined;undefined;1366 x 768;1366 x 768
H043;36;Mannelijk;Rechts;4;90;left;no;50;leftarrow;463;true;focus;yes;859833;Firefox;89.0;Windows;10;undefined;undefined;1366 x 768;1366 x 768
H043;36;Mannelijk;Rechts;4;91;right;no;50;rightarrow;504;true;focus;yes;861104;Firefox;89.0;Windows;10;undefined;undefined;1366 x 768;1366 x 768
H043;36;Mannelijk;Rechts;4;92;right;yes;50;rightarrow;579;false;focus;yes;862463;Firefox;89.0;Windows;10;undefined;undefined;1366 x 768;1366 x 768
H043;36;Mannelijk;Rechts;4;93;left;no;50;leftarrow;668;true;focus;yes;863902;Firefox;89.0;Windows;10;undefined;undefined;1366 x 768;1366 x 768
H043;36;Mannelijk;Rechts;4;94;right;no;50;rightarrow;402;true;focus;yes;865064;Firefox;89.0;Windows;10;undefined;undefined;1366 x 768;1366 x 768
H043;36;Mannelijk;Rechts;4;95;left;yes;50;leftarrow;650;false;focus;yes;866494;Firefox;89.0;Windows;10;undefined;undefined;1366 x 768;1366 x 768
H043;36;Mannelijk;Rechts;4;96;left;no;50;leftarrow;476;true;focus;yes;867747;Firefox;89.0;Windows;10;undefined;undefined;1366 x 768;1366 x 768
H043;36;Mannelijk;Rechts;4;97;right;no;50;rightarrow;1164;true;focus;yes;869684;Firefox;89.0;Windows;10;undefined;undefined;1366 x 768;1366 x 768
H043;36;Mannelijk;Rechts;4;98;right;yes;50;rightarrow;494;false;focus;yes;870964;Firefox;89.0;Windows;10;undefined;undefined;1366 x 768;1366 x 768
H043;36;Mannelijk;Rechts;4;99;left;no;50;leftarrow;395;true;focus;yes;872126;Firefox;89.0;Windows;10;undefined;undefined;1366 x 768;1366 x 768
H043;36;Mannelijk;Rechts;4;100;left;no;50;leftarrow;488;true;focus;yes;873397;Firefox;89.0;Windows;10;undefined;undefined;1366 x 768;1366 x 768
H043;36;Mannelijk;Rechts;4;101;left;no;50;leftarrow;443;true;focus;yes;874619;Firefox;89.0;Windows;10;undefined;undefined;1366 x 768;1366 x 768
H043;36;Mannelijk;Rechts;4;102;right;no;50;rightarrow;416;true;focus;yes;875802;Firefox;89.0;Windows;10;undefined;undefined;1366 x 768;1366 x 768
H043;36;Mannelijk;Rechts;4;103;left;yes;50;leftarrow;502;false;focus;yes;877074;Firefox;89.0;Windows;10;undefined;undefined;1366 x 768;1366 x 768
H043;36;Mannelijk;Rechts;4;104;right;no;50;rightarrow;471;true;focus;yes;878313;Firefox;89.0;Windows;10;undefined;undefined;1366 x 768;1366 x 768
H043;36;Mannelijk;Rechts;4;105;right;no;50;rightarrow;928;true;focus;yes;880021;Firefox;89.0;Windows;10;undefined;undefined;1366 x 768;1366 x 768
H043;36;Mannelijk;Rechts;4;106;left;yes;50;leftarrow;880;false;focus;yes;881672;Firefox;89.0;Windows;10;undefined;undefined;1366 x 768;1366 x 768
H043;36;Mannelijk;Rechts;4;107;right;no;50;rightarrow;1057;true;focus;yes;883509;Firefox;89.0;Windows;10;undefined;undefined;1366 x 768;1366 x 768
H043;36;Mannelijk;Rechts;4;108;left;no;50;undefined;null;false;focus;yes;885550;Firefox;89.0;Windows;10;undefined;undefined;1366 x 768;1366 x 768
H043;36;Mannelijk;Rechts;4;109;left;no;50;rightarrow;531;false;focus;yes;886865;Firefox;89.0;Windows;10;undefined;undefined;1366 x 768;1366 x 768
H043;36;Mannelijk;Rechts;4;110;right;no;50;rightarrow;424;true;focus;yes;888058;Firefox;89.0;Windows;10;undefined;undefined;1366 x 768;1366 x 768
H043;36;Mannelijk;Rechts;4;111;left;no;50;leftarrow;556;true;focus;yes;889389;Firefox;89.0;Windows;10;undefined;undefined;1366 x 768;1366 x 768
H043;36;Mannelijk;Rechts;4;112;right;yes;50;rightarrow;465;false;focus;yes;890638;Firefox;89.0;Windows;10;undefined;undefined;1366 x 768;1366 x 768
H043;36;Mannelijk;Rechts;4;113;left;no;50;leftarrow;704;true;focus;yes;892121;Firefox;89.0;Windows;10;undefined;undefined;1366 x 768;1366 x 768
H043;36;Mannelijk;Rechts;4;114;left;yes;50;leftarrow;876;false;focus;yes;893770;Firefox;89.0;Windows;10;undefined;undefined;1366 x 768;1366 x 768
H043;36;Mannelijk;Rechts;4;115;right;yes;50;rightarrow;368;false;focus;yes;894932;Firefox;89.0;Windows;10;undefined;undefined;1366 x 768;1366 x 768
H043;36;Mannelijk;Rechts;4;116;right;no;50;rightarrow;905;true;focus;yes;896608;Firefox;89.0;Windows;10;undefined;undefined;1366 x 768;1366 x 768
H043;36;Mannelijk;Rechts;4;117;right;no;50;rightarrow;895;true;focus;yes;898287;Firefox;89.0;Windows;10;undefined;undefined;1366 x 768;1366 x 768
H043;36;Mannelijk;Rechts;4;118;left;no;50;leftarrow;417;true;focus;yes;899491;Firefox;89.0;Windows;10;undefined;undefined;1366 x 768;1366 x 768
H043;36;Mannelijk;Rechts;4;119;right;no;50;rightarrow;706;true;focus;yes;900971;Firefox;89.0;Windows;10;undefined;undefined;1366 x 768;1366 x 768
H043;36;Mannelijk;Rechts;4;120;left;no;50;leftarrow;996;true;focus;yes;902760;Firefox;89.0;Windows;10;undefined;undefined;1366 x 768;1366 x 768
H043;36;Mannelijk;Rechts;4;121;right;yes;50;rightarrow;575;false;focus;yes;904120;Firefox;89.0;Windows;10;undefined;undefined;1366 x 768;1366 x 768
H043;36;Mannelijk;Rechts;4;122;right;no;50;rightarrow;1006;true;focus;yes;905908;Firefox;89.0;Windows;10;undefined;undefined;1366 x 768;1366 x 768
H043;36;Mannelijk;Rechts;4;123;left;yes;50;leftarrow;633;false;focus;yes;907336;Firefox;89.0;Windows;10;undefined;undefined;1366 x 768;1366 x 768
H043;36;Mannelijk;Rechts;4;124;right;no;50;undefined;null;false;focus;yes;909390;Firefox;89.0;Windows;10;undefined;undefined;1366 x 768;1366 x 768
H043;36;Mannelijk;Rechts;4;125;left;no;50;leftarrow;405;true;focus;yes;910567;Firefox;89.0;Windows;10;undefined;undefined;1366 x 768;1366 x 768
H043;36;Mannelijk;Rechts;4;126;left;no;50;leftarrow;427;true;focus;yes;911770;Firefox;89.0;Windows;10;undefined;undefined;1366 x 768;1366 x 768
H043;36;Mannelijk;Rechts;4;127;right;no;50;rightarrow;528;true;focus;yes;913071;Firefox;89.0;Windows;10;undefined;undefined;1366 x 768;1366 x 768
H043;36;Mannelijk;Rechts;4;128;left;no;50;leftarrow;567;true;focus;yes;914410;Firefox;89.0;Windows;10;undefined;undefined;1366 x 768;1366 x 768
H043;36;Mannelijk;Rechts;5;1;right;yes;50;rightarrow;500;false;focus;yes;952892;Firefox;89.0;Windows;10;undefined;undefined;1366 x 768;1366 x 768
H043;36;Mannelijk;Rechts;5;2;right;no;50;rightarrow;590;true;focus;yes;954263;Firefox;89.0;Windows;10;undefined;undefined;1366 x 768;1366 x 768
H043;36;Mannelijk;Rechts;5;3;left;no;50;leftarrow;630;true;focus;yes;955673;Firefox;89.0;Windows;10;undefined;undefined;1366 x 768;1366 x 768
H043;36;Mannelijk;Rechts;5;4;left;no;50;rightarrow;417;false;focus;yes;956878;Firefox;89.0;Windows;10;undefined;undefined;1366 x 768;1366 x 768
H043;36;Mannelijk;Rechts;5;5;left;yes;50;leftarrow;368;false;focus;yes;958031;Firefox;89.0;Windows;10;undefined;undefined;1366 x 768;1366 x 768
H043;36;Mannelijk;Rechts;5;6;right;no;50;rightarrow;785;true;focus;yes;959591;Firefox;89.0;Windows;10;undefined;undefined;1366 x 768;1366 x 768
H043;36;Mannelijk;Rechts;5;7;left;no;50;leftarrow;807;true;focus;yes;961169;Firefox;89.0;Windows;10;undefined;undefined;1366 x 768;1366 x 768
H043;36;Mannelijk;Rechts;5;8;right;no;50;rightarrow;468;true;focus;yes;962420;Firefox;89.0;Windows;10;undefined;undefined;1366 x 768;1366 x 768
H043;36;Mannelijk;Rechts;5;9;left;no;50;leftarrow;379;true;focus;yes;963573;Firefox;89.0;Windows;10;undefined;undefined;1366 x 768;1366 x 768
H043;36;Mannelijk;Rechts;5;10;right;no;50;rightarrow;769;true;focus;yes;965111;Firefox;89.0;Windows;10;undefined;undefined;1366 x 768;1366 x 768
H043;36;Mannelijk;Rechts;5;11;left;yes;50;leftarrow;650;false;focus;yes;966542;Firefox;89.0;Windows;10;undefined;undefined;1366 x 768;1366 x 768
H043;36;Mannelijk;Rechts;5;12;left;no;50;leftarrow;589;true;focus;yes;967903;Firefox;89.0;Windows;10;undefined;undefined;1366 x 768;1366 x 768
H043;36;Mannelijk;Rechts;5;13;right;yes;50;rightarrow;364;false;focus;yes;969048;Firefox;89.0;Windows;10;undefined;undefined;1366 x 768;1366 x 768
H043;36;Mannelijk;Rechts;5;14;right;no;50;rightarrow;326;true;focus;yes;970150;Firefox;89.0;Windows;10;undefined;undefined;1366 x 768;1366 x 768
H043;36;Mannelijk;Rechts;5;15;right;no;50;rightarrow;300;true;focus;yes;971221;Firefox;89.0;Windows;10;undefined;undefined;1366 x 768;1366 x 768
H043;36;Mannelijk;Rechts;5;16;left;no;50;rightarrow;401;false;focus;yes;972403;Firefox;89.0;Windows;10;undefined;undefined;1366 x 768;1366 x 768
H043;36;Mannelijk;Rechts;5;17;left;no;50;leftarrow;327;true;focus;yes;973509;Firefox;89.0;Windows;10;undefined;undefined;1366 x 768;1366 x 768
H043;36;Mannelijk;Rechts;5;18;left;no;50;leftarrow;418;true;focus;yes;974700;Firefox;89.0;Windows;10;undefined;undefined;1366 x 768;1366 x 768
H043;36;Mannelijk;Rechts;5;19;right;no;50;rightarrow;381;true;focus;yes;975852;Firefox;89.0;Windows;10;undefined;undefined;1366 x 768;1366 x 768
H043;36;Mannelijk;Rechts;5;20;right;no;50;rightarrow;351;true;focus;yes;976973;Firefox;89.0;Windows;10;undefined;undefined;1366 x 768;1366 x 768
H043;36;Mannelijk;Rechts;5;21;left;no;50;leftarrow;476;true;focus;yes;978228;Firefox;89.0;Windows;10;undefined;undefined;1366 x 768;1366 x 768
H043;36;Mannelijk;Rechts;5;22;left;yes;50;leftarrow;445;false;focus;yes;979458;Firefox;89.0;Windows;10;undefined;undefined;1366 x 768;1366 x 768
H043;36;Mannelijk;Rechts;5;23;right;no;50;rightarrow;350;true;focus;yes;980582;Firefox;89.0;Windows;10;undefined;undefined;1366 x 768;1366 x 768
H043;36;Mannelijk;Rechts;5;24;right;yes;50;rightarrow;421;false;focus;yes;981773;Firefox;89.0;Windows;10;undefined;undefined;1366 x 768;1366 x 768
H043;36;Mannelijk;Rechts;5;25;left;no;50;leftarrow;352;true;focus;yes;982905;Firefox;89.0;Windows;10;undefined;undefined;1366 x 768;1366 x 768
H043;36;Mannelijk;Rechts;5;26;right;no;50;rightarrow;320;true;focus;yes;984000;Firefox;89.0;Windows;10;undefined;undefined;1366 x 768;1366 x 768
H043;36;Mannelijk;Rechts;5;27;left;no;50;leftarrow;282;true;focus;yes;985063;Firefox;89.0;Windows;10;undefined;undefined;1366 x 768;1366 x 768
H043;36;Mannelijk;Rechts;5;28;left;yes;50;leftarrow;340;false;focus;yes;986184;Firefox;89.0;Windows;10;undefined;undefined;1366 x 768;1366 x 768
H043;36;Mannelijk;Rechts;5;29;right;yes;50;rightarrow;365;false;focus;yes;987329;Firefox;89.0;Windows;10;undefined;undefined;1366 x 768;1366 x 768
H043;36;Mannelijk;Rechts;5;30;right;no;50;rightarrow;390;true;focus;yes;988491;Firefox;89.0;Windows;10;undefined;undefined;1366 x 768;1366 x 768
H043;36;Mannelijk;Rechts;5;31;right;no;50;rightarrow;398;true;focus;yes;989662;Firefox;89.0;Windows;10;undefined;undefined;1366 x 768;1366 x 768
H043;36;Mannelijk;Rechts;5;32;left;no;50;leftarrow;421;true;focus;yes;990863;Firefox;89.0;Windows;10;undefined;undefined;1366 x 768;1366 x 768
H043;36;Mannelijk;Rechts;5;33;right;no;50;rightarrow;386;true;focus;yes;992029;Firefox;89.0;Windows;10;undefined;undefined;1366 x 768;1366 x 768
H043;36;Mannelijk;Rechts;5;34;left;no;50;leftarrow;399;true;focus;yes;993201;Firefox;89.0;Windows;10;undefined;undefined;1366 x 768;1366 x 768
H043;36;Mannelijk;Rechts;5;35;left;no;50;leftarrow;682;true;focus;yes;994672;Firefox;89.0;Windows;10;undefined;undefined;1366 x 768;1366 x 768
H043;36;Mannelijk;Rechts;5;36;right;yes;50;rightarrow;761;false;focus;yes;996202;Firefox;89.0;Windows;10;undefined;undefined;1366 x 768;1366 x 768
H043;36;Mannelijk;Rechts;5;37;left;no;50;leftarrow;633;true;focus;yes;997613;Firefox;89.0;Windows;10;undefined;undefined;1366 x 768;1366 x 768
H043;36;Mannelijk;Rechts;5;38;right;no;50;rightarrow;957;true;focus;yes;999340;Firefox;89.0;Windows;10;undefined;undefined;1366 x 768;1366 x 768
H043;36;Mannelijk;Rechts;5;39;right;no;50;rightarrow;369;true;focus;yes;1000482;Firefox;89.0;Windows;10;undefined;undefined;1366 x 768;1366 x 768
H043;36;Mannelijk;Rechts;5;40;left;yes;50;leftarrow;809;false;focus;yes;1002081;Firefox;89.0;Windows;10;undefined;undefined;1366 x 768;1366 x 768
H043;36;Mannelijk;Rechts;5;41;left;no;50;leftarrow;910;true;focus;yes;1003762;Firefox;89.0;Windows;10;undefined;undefined;1366 x 768;1366 x 768
H043;36;Mannelijk;Rechts;5;42;left;no;50;leftarrow;780;true;focus;yes;1005312;Firefox;89.0;Windows;10;undefined;undefined;1366 x 768;1366 x 768
H043;36;Mannelijk;Rechts;5;43;right;no;50;undefined;null;false;focus;yes;1007348;Firefox;89.0;Windows;10;undefined;undefined;1366 x 768;1366 x 768
H043;36;Mannelijk;Rechts;5;44;right;no;50;rightarrow;378;true;focus;yes;1008501;Firefox;89.0;Windows;10;undefined;undefined;1366 x 768;1366 x 768
H043;36;Mannelijk;Rechts;5;45;right;no;50;rightarrow;1006;true;focus;yes;1010288;Firefox;89.0;Windows;10;undefined;undefined;1366 x 768;1366 x 768
H043;36;Mannelijk;Rechts;5;46;left;no;50;leftarrow;370;true;focus;yes;1011432;Firefox;89.0;Windows;10;undefined;undefined;1366 x 768;1366 x 768
H043;36;Mannelijk;Rechts;5;47;left;yes;50;leftarrow;402;false;focus;yes;1012614;Firefox;89.0;Windows;10;undefined;undefined;1366 x 768;1366 x 768
H043;36;Mannelijk;Rechts;5;48;right;yes;50;rightarrow;338;false;focus;yes;1013730;Firefox;89.0;Windows;10;undefined;undefined;1366 x 768;1366 x 768
H043;36;Mannelijk;Rechts;5;49;left;yes;50;leftarrow;350;false;focus;yes;1014862;Firefox;89.0;Windows;10;undefined;undefined;1366 x 768;1366 x 768
H043;36;Mannelijk;Rechts;5;50;left;no;50;leftarrow;400;true;focus;yes;1016033;Firefox;89.0;Windows;10;undefined;undefined;1366 x 768;1366 x 768
H043;36;Mannelijk;Rechts;5;51;right;no;50;rightarrow;354;true;focus;yes;1017166;Firefox;89.0;Windows;10;undefined;undefined;1366 x 768;1366 x 768
H043;36;Mannelijk;Rechts;5;52;right;no;50;rightarrow;418;true;focus;yes;1018370;Firefox;89.0;Windows;10;undefined;undefined;1366 x 768;1366 x 768
H043;36;Mannelijk;Rechts;5;53;right;yes;50;rightarrow;391;false;focus;yes;1019542;Firefox;89.0;Windows;10;undefined;undefined;1366 x 768;1366 x 768
H043;36;Mannelijk;Rechts;5;54;right;no;50;rightarrow;355;true;focus;yes;1020667;Firefox;89.0;Windows;10;undefined;undefined;1366 x 768;1366 x 768
H043;36;Mannelijk;Rechts;5;55;left;no;50;rightarrow;318;false;focus;yes;1021769;Firefox;89.0;Windows;10;undefined;undefined;1366 x 768;1366 x 768
H043;36;Mannelijk;Rechts;5;56;left;no;50;leftarrow;469;true;focus;yes;1023020;Firefox;89.0;Windows;10;undefined;undefined;1366 x 768;1366 x 768
H043;36;Mannelijk;Rechts;5;57;right;no;50;rightarrow;558;true;focus;yes;1024351;Firefox;89.0;Windows;10;undefined;undefined;1366 x 768;1366 x 768
H043;36;Mannelijk;Rechts;5;58;left;yes;50;leftarrow;462;false;focus;yes;1025593;Firefox;89.0;Windows;10;undefined;undefined;1366 x 768;1366 x 768
H043;36;Mannelijk;Rechts;5;59;right;yes;50;rightarrow;386;false;focus;yes;1026769;Firefox;89.0;Windows;10;undefined;undefined;1366 x 768;1366 x 768
H043;36;Mannelijk;Rechts;5;60;left;no;50;leftarrow;718;true;focus;yes;1028259;Firefox;89.0;Windows;10;undefined;undefined;1366 x 768;1366 x 768
H043;36;Mannelijk;Rechts;5;61;left;no;50;leftarrow;549;true;focus;yes;1029591;Firefox;89.0;Windows;10;undefined;undefined;1366 x 768;1366 x 768
H043;36;Mannelijk;Rechts;5;62;right;no;50;rightarrow;858;true;focus;yes;1031240;Firefox;89.0;Windows;10;undefined;undefined;1366 x 768;1366 x 768
H043;36;Mannelijk;Rechts;5;63;left;no;50;leftarrow;629;true;focus;yes;1032652;Firefox;89.0;Windows;10;undefined;undefined;1366 x 768;1366 x 768
H043;36;Mannelijk;Rechts;5;64;right;no;50;rightarrow;708;true;focus;yes;1034139;Firefox;89.0;Windows;10;undefined;undefined;1366 x 768;1366 x 768
H043;36;Mannelijk;Rechts;5;65;left;no;50;undefined;null;false;focus;yes;1036174;Firefox;89.0;Windows;10;undefined;undefined;1366 x 768;1366 x 768
H043;36;Mannelijk;Rechts;5;66;right;no;50;rightarrow;449;true;focus;yes;1037660;Firefox;89.0;Windows;10;undefined;undefined;1366 x 768;1366 x 768
H043;36;Mannelijk;Rechts;5;67;left;no;50;leftarrow;324;true;focus;yes;1038752;Firefox;89.0;Windows;10;undefined;undefined;1366 x 768;1366 x 768
H043;36;Mannelijk;Rechts;5;68;right;yes;50;rightarrow;452;false;focus;yes;1039984;Firefox;89.0;Windows;10;undefined;undefined;1366 x 768;1366 x 768
H043;36;Mannelijk;Rechts;5;69;right;no;50;rightarrow;405;true;focus;yes;1041177;Firefox;89.0;Windows;10;undefined;undefined;1366 x 768;1366 x 768
H043;36;Mannelijk;Rechts;5;70;left;no;50;leftarrow;419;true;focus;yes;1042381;Firefox;89.0;Windows;10;undefined;undefined;1366 x 768;1366 x 768
H043;36;Mannelijk;Rechts;5;71;right;no;50;rightarrow;371;true;focus;yes;1043532;Firefox;89.0;Windows;10;undefined;undefined;1366 x 768;1366 x 768
H043;36;Mannelijk;Rechts;5;72;left;yes;50;leftarrow;482;false;focus;yes;1044784;Firefox;89.0;Windows;10;undefined;undefined;1366 x 768;1366 x 768
H043;36;Mannelijk;Rechts;5;73;right;no;50;rightarrow;375;true;focus;yes;1045937;Firefox;89.0;Windows;10;undefined;undefined;1366 x 768;1366 x 768
H043;36;Mannelijk;Rechts;5;74;left;no;50;leftarrow;608;true;focus;yes;1047330;Firefox;89.0;Windows;10;undefined;undefined;1366 x 768;1366 x 768
H043;36;Mannelijk;Rechts;5;75;right;yes;50;rightarrow;609;false;focus;yes;1048711;Firefox;89.0;Windows;10;undefined;undefined;1366 x 768;1366 x 768
H043;36;Mannelijk;Rechts;5;76;left;yes;50;leftarrow;503;false;focus;yes;1049993;Firefox;89.0;Windows;10;undefined;undefined;1366 x 768;1366 x 768
H043;36;Mannelijk;Rechts;5;77;left;no;50;leftarrow;912;true;focus;yes;1051682;Firefox;89.0;Windows;10;undefined;undefined;1366 x 768;1366 x 768
H043;36;Mannelijk;Rechts;5;78;right;no;50;undefined;null;false;focus;yes;1053718;Firefox;89.0;Windows;10;undefined;undefined;1366 x 768;1366 x 768
H043;36;Mannelijk;Rechts;5;79;left;no;50;leftarrow;699;true;focus;yes;1055191;Firefox;89.0;Windows;10;undefined;undefined;1366 x 768;1366 x 768
H043;36;Mannelijk;Rechts;5;80;right;no;50;rightarrow;521;true;focus;yes;1056492;Firefox;89.0;Windows;10;undefined;undefined;1366 x 768;1366 x 768
H043;36;Mannelijk;Rechts;5;81;left;no;50;leftarrow;375;true;focus;yes;1057666;Firefox;89.0;Windows;10;undefined;undefined;1366 x 768;1366 x 768
H043;36;Mannelijk;Rechts;5;82;right;no;50;rightarrow;526;true;focus;yes;1058970;Firefox;89.0;Windows;10;undefined;undefined;1366 x 768;1366 x 768
H043;36;Mannelijk;Rechts;5;83;left;yes;50;leftarrow;489;false;focus;yes;1060231;Firefox;89.0;Windows;10;undefined;undefined;1366 x 768;1366 x 768
H043;36;Mannelijk;Rechts;5;84;right;yes;50;rightarrow;398;false;focus;yes;1061398;Firefox;89.0;Windows;10;undefined;undefined;1366 x 768;1366 x 768
H043;36;Mannelijk;Rechts;5;85;right;no;50;leftarrow;692;false;focus;yes;1062875;Firefox;89.0;Windows;10;undefined;undefined;1366 x 768;1366 x 768
H043;36;Mannelijk;Rechts;5;86;left;no;50;leftarrow;467;true;focus;yes;1064118;Firefox;89.0;Windows;10;undefined;undefined;1366 x 768;1366 x 768
H043;36;Mannelijk;Rechts;5;87;left;no;50;leftarrow;567;true;focus;yes;1065478;Firefox;89.0;Windows;10;undefined;undefined;1366 x 768;1366 x 768
H043;36;Mannelijk;Rechts;5;88;right;no;50;rightarrow;489;true;focus;yes;1066741;Firefox;89.0;Windows;10;undefined;undefined;1366 x 768;1366 x 768
H043;36;Mannelijk;Rechts;5;89;left;yes;50;leftarrow;630;false;focus;yes;1068142;Firefox;89.0;Windows;10;undefined;undefined;1366 x 768;1366 x 768
H043;36;Mannelijk;Rechts;5;90;right;yes;50;rightarrow;457;false;focus;yes;1069388;Firefox;89.0;Windows;10;undefined;undefined;1366 x 768;1366 x 768
H043;36;Mannelijk;Rechts;5;91;left;no;50;leftarrow;706;true;focus;yes;1070879;Firefox;89.0;Windows;10;undefined;undefined;1366 x 768;1366 x 768
H043;36;Mannelijk;Rechts;5;92;right;no;50;leftarrow;777;false;focus;yes;1072429;Firefox;89.0;Windows;10;undefined;undefined;1366 x 768;1366 x 768
H043;36;Mannelijk;Rechts;5;93;left;no;50;leftarrow;290;true;focus;yes;1073501;Firefox;89.0;Windows;10;undefined;undefined;1366 x 768;1366 x 768
H043;36;Mannelijk;Rechts;5;94;right;no;50;rightarrow;402;true;focus;yes;1074673;Firefox;89.0;Windows;10;undefined;undefined;1366 x 768;1366 x 768
H043;36;Mannelijk;Rechts;5;95;right;no;50;rightarrow;617;true;focus;yes;1076068;Firefox;89.0;Windows;10;undefined;undefined;1366 x 768;1366 x 768
H043;36;Mannelijk;Rechts;5;96;left;no;50;leftarrow;347;true;focus;yes;1077199;Firefox;89.0;Windows;10;undefined;undefined;1366 x 768;1366 x 768
H043;36;Mannelijk;Rechts;5;97;right;no;50;rightarrow;316;true;focus;yes;1078297;Firefox;89.0;Windows;10;undefined;undefined;1366 x 768;1366 x 768
H043;36;Mannelijk;Rechts;5;98;left;no;50;leftarrow;264;true;focus;yes;1079346;Firefox;89.0;Windows;10;undefined;undefined;1366 x 768;1366 x 768
H043;36;Mannelijk;Rechts;5;99;right;yes;50;rightarrow;360;false;focus;yes;1080481;Firefox;89.0;Windows;10;undefined;undefined;1366 x 768;1366 x 768
H043;36;Mannelijk;Rechts;5;100;left;no;50;leftarrow;321;true;focus;yes;1081583;Firefox;89.0;Windows;10;undefined;undefined;1366 x 768;1366 x 768
H043;36;Mannelijk;Rechts;5;101;right;no;50;rightarrow;294;true;focus;yes;1082657;Firefox;89.0;Windows;10;undefined;undefined;1366 x 768;1366 x 768
H043;36;Mannelijk;Rechts;5;102;left;no;50;leftarrow;315;true;focus;yes;1083760;Firefox;89.0;Windows;10;undefined;undefined;1366 x 768;1366 x 768
H043;36;Mannelijk;Rechts;5;103;right;no;50;rightarrow;314;true;focus;yes;1084856;Firefox;89.0;Windows;10;undefined;undefined;1366 x 768;1366 x 768
H043;36;Mannelijk;Rechts;5;104;left;yes;50;leftarrow;296;false;focus;yes;1085935;Firefox;89.0;Windows;10;undefined;undefined;1366 x 768;1366 x 768
H043;36;Mannelijk;Rechts;5;105;left;no;50;rightarrow;270;false;focus;yes;1086989;Firefox;89.0;Windows;10;undefined;undefined;1366 x 768;1366 x 768
H043;36;Mannelijk;Rechts;5;106;left;no;50;leftarrow;373;true;focus;yes;1088132;Firefox;89.0;Windows;10;undefined;undefined;1366 x 768;1366 x 768
H043;36;Mannelijk;Rechts;5;107;left;yes;50;leftarrow;307;false;focus;yes;1089206;Firefox;89.0;Windows;10;undefined;undefined;1366 x 768;1366 x 768
H043;36;Mannelijk;Rechts;5;108;right;no;50;rightarrow;398;true;focus;yes;1090390;Firefox;89.0;Windows;10;undefined;undefined;1366 x 768;1366 x 768
H043;36;Mannelijk;Rechts;5;109;left;no;50;leftarrow;413;true;focus;yes;1091584;Firefox;89.0;Windows;10;undefined;undefined;1366 x 768;1366 x 768
H043;36;Mannelijk;Rechts;5;110;right;no;50;rightarrow;378;true;focus;yes;1092749;Firefox;89.0;Windows;10;undefined;undefined;1366 x 768;1366 x 768
H043;36;Mannelijk;Rechts;5;111;right;yes;50;leftarrow;319;false;focus;yes;1093850;Firefox;89.0;Windows;10;undefined;undefined;1366 x 768;1366 x 768
H043;36;Mannelijk;Rechts;5;112;right;no;50;rightarrow;354;true;focus;yes;1094985;Firefox;89.0;Windows;10;undefined;undefined;1366 x 768;1366 x 768
H043;36;Mannelijk;Rechts;5;113;right;no;50;rightarrow;368;true;focus;yes;1096130;Firefox;89.0;Windows;10;undefined;undefined;1366 x 768;1366 x 768
H043;36;Mannelijk;Rechts;5;114;right;no;50;rightarrow;350;true;focus;yes;1097250;Firefox;89.0;Windows;10;undefined;undefined;1366 x 768;1366 x 768
H043;36;Mannelijk;Rechts;5;115;right;no;50;rightarrow;333;true;focus;yes;1098354;Firefox;89.0;Windows;10;undefined;undefined;1366 x 768;1366 x 768
H043;36;Mannelijk;Rechts;5;116;left;yes;50;rightarrow;398;false;focus;yes;1099539;Firefox;89.0;Windows;10;undefined;undefined;1366 x 768;1366 x 768
H043;36;Mannelijk;Rechts;5;117;left;no;50;leftarrow;350;true;focus;yes;1100671;Firefox;89.0;Windows;10;undefined;undefined;1366 x 768;1366 x 768
H043;36;Mannelijk;Rechts;5;118;right;yes;50;rightarrow;365;false;focus;yes;1101826;Firefox;89.0;Windows;10;undefined;undefined;1366 x 768;1366 x 768
H043;36;Mannelijk;Rechts;5;119;left;no;50;leftarrow;308;true;focus;yes;1102909;Firefox;89.0;Windows;10;undefined;undefined;1366 x 768;1366 x 768
H043;36;Mannelijk;Rechts;5;120;left;no;50;leftarrow;309;true;focus;yes;1103991;Firefox;89.0;Windows;10;undefined;undefined;1366 x 768;1366 x 768
H043;36;Mannelijk;Rechts;5;121;left;no;50;leftarrow;554;true;focus;yes;1105314;Firefox;89.0;Windows;10;undefined;undefined;1366 x 768;1366 x 768
H043;36;Mannelijk;Rechts;5;122;right;yes;50;leftarrow;295;false;focus;yes;1106397;Firefox;89.0;Windows;10;undefined;undefined;1366 x 768;1366 x 768
H043;36;Mannelijk;Rechts;5;123;left;yes;50;leftarrow;318;false;focus;yes;1107500;Firefox;89.0;Windows;10;undefined;undefined;1366 x 768;1366 x 768
H043;36;Mannelijk;Rechts;5;124;left;no;50;leftarrow;731;true;focus;yes;1109011;Firefox;89.0;Windows;10;undefined;undefined;1366 x 768;1366 x 768
H043;36;Mannelijk;Rechts;5;125;left;no;50;undefined;null;false;focus;yes;1111047;Firefox;89.0;Windows;10;undefined;undefined;1366 x 768;1366 x 768
H043;36;Mannelijk;Rechts;5;126;right;no;50;leftarrow;177;false;focus;yes;1111993;Firefox;89.0;Windows;10;undefined;undefined;1366 x 768;1366 x 768
H043;36;Mannelijk;Rechts;5;127;right;no;50;leftarrow;253;false;focus;yes;1113036;Firefox;89.0;Windows;10;undefined;undefined;1366 x 768;1366 x 768
H043;36;Mannelijk;Rechts;5;128;right;no;50;rightarrow;519;true;focus;yes;1114328;Firefox;89.0;Windows;10;undefined;undefined;1366 x 768;1366 x 768
H043;36;Mannelijk;Rechts;6;1;left;no;50;leftarrow;645;true;focus;yes;1136461;Firefox;89.0;Windows;10;undefined;undefined;1366 x 768;1366 x 768
H043;36;Mannelijk;Rechts;6;2;right;no;50;rightarrow;571;true;focus;yes;1137811;Firefox;89.0;Windows;10;undefined;undefined;1366 x 768;1366 x 768
H043;36;Mannelijk;Rechts;6;3;left;no;50;leftarrow;873;true;focus;yes;1139462;Firefox;89.0;Windows;10;undefined;undefined;1366 x 768;1366 x 768
H043;36;Mannelijk;Rechts;6;4;left;no;50;leftarrow;640;true;focus;yes;1140876;Firefox;89.0;Windows;10;undefined;undefined;1366 x 768;1366 x 768
H043;36;Mannelijk;Rechts;6;5;left;yes;50;leftarrow;296;false;focus;yes;1141947;Firefox;89.0;Windows;10;undefined;undefined;1366 x 768;1366 x 768
H043;36;Mannelijk;Rechts;6;6;right;yes;50;rightarrow;370;false;focus;yes;1143100;Firefox;89.0;Windows;10;undefined;undefined;1366 x 768;1366 x 768
H043;36;Mannelijk;Rechts;6;7;right;no;50;rightarrow;462;true;focus;yes;1144335;Firefox;89.0;Windows;10;undefined;undefined;1366 x 768;1366 x 768
H043;36;Mannelijk;Rechts;6;8;right;no;50;rightarrow;535;true;focus;yes;1145646;Firefox;89.0;Windows;10;undefined;undefined;1366 x 768;1366 x 768
H043;36;Mannelijk;Rechts;6;9;right;no;50;rightarrow;457;true;focus;yes;1146879;Firefox;89.0;Windows;10;undefined;undefined;1366 x 768;1366 x 768
H043;36;Mannelijk;Rechts;6;10;left;no;50;leftarrow;460;true;focus;yes;1148121;Firefox;89.0;Windows;10;undefined;undefined;1366 x 768;1366 x 768
H043;36;Mannelijk;Rechts;6;11;left;no;50;leftarrow;614;true;focus;yes;1149522;Firefox;89.0;Windows;10;undefined;undefined;1366 x 768;1366 x 768
H043;36;Mannelijk;Rechts;6;12;right;yes;50;rightarrow;645;false;focus;yes;1150957;Firefox;89.0;Windows;10;undefined;undefined;1366 x 768;1366 x 768
H043;36;Mannelijk;Rechts;6;13;left;no;50;leftarrow;626;true;focus;yes;1152356;Firefox;89.0;Windows;10;undefined;undefined;1366 x 768;1366 x 768
H043;36;Mannelijk;Rechts;6;14;right;no;50;rightarrow;498;true;focus;yes;1153631;Firefox;89.0;Windows;10;undefined;undefined;1366 x 768;1366 x 768
H043;36;Mannelijk;Rechts;6;15;left;yes;50;leftarrow;729;false;focus;yes;1155139;Firefox;89.0;Windows;10;undefined;undefined;1366 x 768;1366 x 768
H043;36;Mannelijk;Rechts;6;16;right;no;50;rightarrow;659;true;focus;yes;1156582;Firefox;89.0;Windows;10;undefined;undefined;1366 x 768;1366 x 768
H043;36;Mannelijk;Rechts;6;17;left;yes;50;leftarrow;545;false;focus;yes;1157906;Firefox;89.0;Windows;10;undefined;undefined;1366 x 768;1366 x 768
H043;36;Mannelijk;Rechts;6;18;right;no;50;undefined;null;false;focus;yes;1159946;Firefox;89.0;Windows;10;undefined;undefined;1366 x 768;1366 x 768
H043;36;Mannelijk;Rechts;6;19;right;yes;50;rightarrow;346;false;focus;yes;1161067;Firefox;89.0;Windows;10;undefined;undefined;1366 x 768;1366 x 768
H043;36;Mannelijk;Rechts;6;20;left;no;50;leftarrow;817;true;focus;yes;1162658;Firefox;89.0;Windows;10;undefined;undefined;1366 x 768;1366 x 768
H043;36;Mannelijk;Rechts;6;21;right;no;50;rightarrow;360;true;focus;yes;1163792;Firefox;89.0;Windows;10;undefined;undefined;1366 x 768;1366 x 768
H043;36;Mannelijk;Rechts;6;22;right;no;50;rightarrow;481;true;focus;yes;1165062;Firefox;89.0;Windows;10;undefined;undefined;1366 x 768;1366 x 768
H043;36;Mannelijk;Rechts;6;23;left;no;50;leftarrow;533;true;focus;yes;1166375;Firefox;89.0;Windows;10;undefined;undefined;1366 x 768;1366 x 768
H043;36;Mannelijk;Rechts;6;24;left;no;50;leftarrow;528;true;focus;yes;1167689;Firefox;89.0;Windows;10;undefined;undefined;1366 x 768;1366 x 768
H043;36;Mannelijk;Rechts;6;25;right;yes;50;rightarrow;640;false;focus;yes;1169099;Firefox;89.0;Windows;10;undefined;undefined;1366 x 768;1366 x 768
H043;36;Mannelijk;Rechts;6;26;left;no;50;leftarrow;432;true;focus;yes;1170311;Firefox;89.0;Windows;10;undefined;undefined;1366 x 768;1366 x 768
H043;36;Mannelijk;Rechts;6;27;right;no;50;leftarrow;347;false;focus;yes;1171447;Firefox;89.0;Windows;10;undefined;undefined;1366 x 768;1366 x 768
H043;36;Mannelijk;Rechts;6;28;right;no;50;rightarrow;520;true;focus;yes;1172741;Firefox;89.0;Windows;10;undefined;undefined;1366 x 768;1366 x 768
H043;36;Mannelijk;Rechts;6;29;right;no;50;rightarrow;659;true;focus;yes;1174190;Firefox;89.0;Windows;10;undefined;undefined;1366 x 768;1366 x 768
H043;36;Mannelijk;Rechts;6;30;left;yes;50;leftarrow;789;false;focus;yes;1175760;Firefox;89.0;Windows;10;undefined;undefined;1366 x 768;1366 x 768
H043;36;Mannelijk;Rechts;6;31;left;no;50;leftarrow;583;true;focus;yes;1177113;Firefox;89.0;Windows;10;undefined;undefined;1366 x 768;1366 x 768
H043;36;Mannelijk;Rechts;6;32;left;no;50;leftarrow;707;true;focus;yes;1178596;Firefox;89.0;Windows;10;undefined;undefined;1366 x 768;1366 x 768
H043;36;Mannelijk;Rechts;6;33;right;no;50;rightarrow;487;true;focus;yes;1179858;Firefox;89.0;Windows;10;undefined;undefined;1366 x 768;1366 x 768
H043;36;Mannelijk;Rechts;6;34;left;no;50;leftarrow;489;true;focus;yes;1181138;Firefox;89.0;Windows;10;undefined;undefined;1366 x 768;1366 x 768
