participantID;age;gender;handedness;block_i;trial_i;stim;signal;SSD;response;rt;correct;focus;Fullscreen;time_elapsed;browser_name;browser_version;os_name;os_version;tablet;mobile;screen_resolution;window_resolution
H040;21;Vrouwelijk;Rechts;0;1;left;no;200;leftarrow;526;true;focus;yes;98684;Chrome;112.0;macOS;10.15.7;undefined;undefined;1440 x 900;1440 x 900
H040;21;Vrouwelijk;Rechts;0;2;left;no;200;leftarrow;422;true;focus;yes;100630;Chrome;112.0;macOS;10.15.7;undefined;undefined;1440 x 900;1440 x 900
H040;21;Vrouwelijk;Rechts;0;3;left;no;200;leftarrow;398;true;focus;yes;102559;Chrome;112.0;macOS;10.15.7;undefined;undefined;1440 x 900;1440 x 900
H040;21;Vrouwelijk;Rechts;0;4;left;yes;200;leftarrow;348;false;focus;yes;104435;Chrome;112.0;macOS;10.15.7;undefined;undefined;1440 x 900;1440 x 900
H040;21;Vrouwelijk;Rechts;0;5;right;yes;150;rightarrow;453;false;focus;yes;106417;Chrome;112.0;macOS;10.15.7;undefined;undefined;1440 x 900;1440 x 900
H040;21;Vrouwelijk;Rechts;0;6;right;no;100;rightarrow;674;true;focus;yes;108614;Chrome;112.0;macOS;10.15.7;undefined;undefined;1440 x 900;1440 x 900
H040;21;Vrouwelijk;Rechts;0;7;right;no;100;rightarrow;489;true;focus;yes;110632;Chrome;112.0;macOS;10.15.7;undefined;undefined;1440 x 900;1440 x 900
H040;21;Vrouwelijk;Rechts;0;8;right;no;100;rightarrow;598;true;focus;yes;112757;Chrome;112.0;macOS;10.15.7;undefined;undefined;1440 x 900;1440 x 900
H040;21;Vrouwelijk;Rechts;1;1;left;no;100;leftarrow;397;true;focus;yes;134405;Chrome;112.0;macOS;10.15.7;undefined;undefined;1440 x 900;1440 x 900
H040;21;Vrouwelijk;Rechts;1;2;right;no;100;rightarrow;559;true;focus;yes;135728;Chrome;112.0;macOS;10.15.7;undefined;undefined;1440 x 900;1440 x 900
H040;21;Vrouwelijk;Rechts;1;3;left;no;100;leftarrow;313;true;focus;yes;136803;Chrome;112.0;macOS;10.15.7;undefined;undefined;1440 x 900;1440 x 900
H040;21;Vrouwelijk;Rechts;1;4;right;yes;100;rightarrow;297;false;focus;yes;137867;Chrome;112.0;macOS;10.15.7;undefined;undefined;1440 x 900;1440 x 900
H040;21;Vrouwelijk;Rechts;1;5;left;no;50;leftarrow;374;true;focus;yes;139009;Chrome;112.0;macOS;10.15.7;undefined;undefined;1440 x 900;1440 x 900
H040;21;Vrouwelijk;Rechts;1;6;left;yes;50;rightarrow;479;false;focus;yes;140260;Chrome;112.0;macOS;10.15.7;undefined;undefined;1440 x 900;1440 x 900
H040;21;Vrouwelijk;Rechts;1;7;right;no;50;rightarrow;632;true;focus;yes;141657;Chrome;112.0;macOS;10.15.7;undefined;undefined;1440 x 900;1440 x 900
H040;21;Vrouwelijk;Rechts;1;8;right;no;50;rightarrow;474;true;focus;yes;142902;Chrome;112.0;macOS;10.15.7;undefined;undefined;1440 x 900;1440 x 900
H040;21;Vrouwelijk;Rechts;1;9;right;no;50;rightarrow;429;true;focus;yes;144095;Chrome;112.0;macOS;10.15.7;undefined;undefined;1440 x 900;1440 x 900
H040;21;Vrouwelijk;Rechts;1;10;right;yes;50;rightarrow;500;false;focus;yes;145357;Chrome;112.0;macOS;10.15.7;undefined;undefined;1440 x 900;1440 x 900
H040;21;Vrouwelijk;Rechts;1;11;left;yes;50;undefined;null;true;focus;yes;147386;Chrome;112.0;macOS;10.15.7;undefined;undefined;1440 x 900;1440 x 900
H040;21;Vrouwelijk;Rechts;1;12;left;no;100;leftarrow;491;true;focus;yes;148646;Chrome;112.0;macOS;10.15.7;undefined;undefined;1440 x 900;1440 x 900
H040;21;Vrouwelijk;Rechts;1;13;right;no;100;rightarrow;405;true;focus;yes;149815;Chrome;112.0;macOS;10.15.7;undefined;undefined;1440 x 900;1440 x 900
H040;21;Vrouwelijk;Rechts;1;14;left;no;100;leftarrow;471;true;focus;yes;151048;Chrome;112.0;macOS;10.15.7;undefined;undefined;1440 x 900;1440 x 900
H040;21;Vrouwelijk;Rechts;1;15;right;no;100;rightarrow;484;true;focus;yes;152301;Chrome;112.0;macOS;10.15.7;undefined;undefined;1440 x 900;1440 x 900
H040;21;Vrouwelijk;Rechts;1;16;left;no;100;leftarrow;522;true;focus;yes;153587;Chrome;112.0;macOS;10.15.7;undefined;undefined;1440 x 900;1440 x 900
H040;21;Vrouwelijk;Rechts;1;17;right;no;100;rightarrow;542;true;focus;yes;154895;Chrome;112.0;macOS;10.15.7;undefined;undefined;1440 x 900;1440 x 900
H040;21;Vrouwelijk;Rechts;1;18;left;yes;100;undefined;null;true;focus;yes;156911;Chrome;112.0;macOS;10.15.7;undefined;undefined;1440 x 900;1440 x 900
H040;21;Vrouwelijk;Rechts;1;19;left;no;150;leftarrow;420;true;focus;yes;158097;Chrome;112.0;macOS;10.15.7;undefined;undefined;1440 x 900;1440 x 900
H040;21;Vrouwelijk;Rechts;1;20;right;no;150;rightarrow;372;true;focus;yes;159237;Chrome;112.0;macOS;10.15.7;undefined;undefined;1440 x 900;1440 x 900
H040;21;Vrouwelijk;Rechts;1;21;right;yes;150;undefined;null;true;focus;yes;161254;Chrome;112.0;macOS;10.15.7;undefined;undefined;1440 x 900;1440 x 900
H040;21;Vrouwelijk;Rechts;1;22;left;no;200;leftarrow;386;true;focus;yes;162408;Chrome;112.0;macOS;10.15.7;undefined;undefined;1440 x 900;1440 x 900
H040;21;Vrouwelijk;Rechts;1;23;left;no;200;leftarrow;438;true;focus;yes;163607;Chrome;112.0;macOS;10.15.7;undefined;undefined;1440 x 900;1440 x 900
H040;21;Vrouwelijk;Rechts;1;24;right;no;200;rightarrow;543;true;focus;yes;164911;Chrome;112.0;macOS;10.15.7;undefined;undefined;1440 x 900;1440 x 900
H040;21;Vrouwelijk;Rechts;1;25;left;no;200;leftarrow;368;true;focus;yes;166040;Chrome;112.0;macOS;10.15.7;undefined;undefined;1440 x 900;1440 x 900
H040;21;Vrouwelijk;Rechts;1;26;right;no;200;rightarrow;384;true;focus;yes;167188;Chrome;112.0;macOS;10.15.7;undefined;undefined;1440 x 900;1440 x 900
H040;21;Vrouwelijk;Rechts;1;27;right;yes;200;undefined;null;true;focus;yes;169205;Chrome;112.0;macOS;10.15.7;undefined;undefined;1440 x 900;1440 x 900
H040;21;Vrouwelijk;Rechts;1;28;right;no;250;rightarrow;393;true;focus;yes;170365;Chrome;112.0;macOS;10.15.7;undefined;undefined;1440 x 900;1440 x 900
H040;21;Vrouwelijk;Rechts;1;29;right;no;250;rightarrow;441;true;focus;yes;171569;Chrome;112.0;macOS;10.15.7;undefined;undefined;1440 x 900;1440 x 900
H040;21;Vrouwelijk;Rechts;1;30;left;yes;250;leftarrow;390;false;focus;yes;172726;Chrome;112.0;macOS;10.15.7;undefined;undefined;1440 x 900;1440 x 900
H040;21;Vrouwelijk;Rechts;1;31;left;no;200;leftarrow;533;true;focus;yes;174021;Chrome;112.0;macOS;10.15.7;undefined;undefined;1440 x 900;1440 x 900
H040;21;Vrouwelijk;Rechts;1;32;left;no;200;leftarrow;541;true;focus;yes;175325;Chrome;112.0;macOS;10.15.7;undefined;undefined;1440 x 900;1440 x 900
H040;21;Vrouwelijk;Rechts;1;33;left;yes;200;undefined;null;true;focus;yes;177341;Chrome;112.0;macOS;10.15.7;undefined;undefined;1440 x 900;1440 x 900
H040;21;Vrouwelijk;Rechts;1;34;left;no;250;leftarrow;591;true;focus;yes;178700;Chrome;112.0;macOS;10.15.7;undefined;undefined;1440 x 900;1440 x 900
H040;21;Vrouwelijk;Rechts;1;35;right;no;250;rightarrow;382;true;focus;yes;179843;Chrome;112.0;macOS;10.15.7;undefined;undefined;1440 x 900;1440 x 900
H040;21;Vrouwelijk;Rechts;1;36;left;no;250;leftarrow;418;true;focus;yes;181026;Chrome;112.0;macOS;10.15.7;undefined;undefined;1440 x 900;1440 x 900
H040;21;Vrouwelijk;Rechts;1;37;right;no;250;rightarrow;478;true;focus;yes;182270;Chrome;112.0;macOS;10.15.7;undefined;undefined;1440 x 900;1440 x 900
H040;21;Vrouwelijk;Rechts;1;38;left;no;250;leftarrow;508;true;focus;yes;183536;Chrome;112.0;macOS;10.15.7;undefined;undefined;1440 x 900;1440 x 900
H040;21;Vrouwelijk;Rechts;1;39;right;no;250;rightarrow;509;true;focus;yes;184812;Chrome;112.0;macOS;10.15.7;undefined;undefined;1440 x 900;1440 x 900
H040;21;Vrouwelijk;Rechts;1;40;right;yes;250;undefined;null;true;focus;yes;186830;Chrome;112.0;macOS;10.15.7;undefined;undefined;1440 x 900;1440 x 900
H040;21;Vrouwelijk;Rechts;1;41;right;no;300;rightarrow;423;true;focus;yes;188015;Chrome;112.0;macOS;10.15.7;undefined;undefined;1440 x 900;1440 x 900
H040;21;Vrouwelijk;Rechts;1;42;left;no;300;leftarrow;398;true;focus;yes;189184;Chrome;112.0;macOS;10.15.7;undefined;undefined;1440 x 900;1440 x 900
H040;21;Vrouwelijk;Rechts;1;43;left;no;300;leftarrow;480;true;focus;yes;190431;Chrome;112.0;macOS;10.15.7;undefined;undefined;1440 x 900;1440 x 900
H040;21;Vrouwelijk;Rechts;1;44;left;no;300;leftarrow;536;true;focus;yes;191736;Chrome;112.0;macOS;10.15.7;undefined;undefined;1440 x 900;1440 x 900
H040;21;Vrouwelijk;Rechts;1;45;right;no;300;rightarrow;578;true;focus;yes;193078;Chrome;112.0;macOS;10.15.7;undefined;undefined;1440 x 900;1440 x 900
H040;21;Vrouwelijk;Rechts;1;46;right;yes;300;rightarrow;457;false;focus;yes;194297;Chrome;112.0;macOS;10.15.7;undefined;undefined;1440 x 900;1440 x 900
H040;21;Vrouwelijk;Rechts;1;47;left;yes;250;leftarrow;452;false;focus;yes;195516;Chrome;112.0;macOS;10.15.7;undefined;undefined;1440 x 900;1440 x 900
H040;21;Vrouwelijk;Rechts;1;48;right;no;200;rightarrow;639;true;focus;yes;196918;Chrome;112.0;macOS;10.15.7;undefined;undefined;1440 x 900;1440 x 900
H040;21;Vrouwelijk;Rechts;1;49;right;no;200;rightarrow;607;true;focus;yes;198297;Chrome;112.0;macOS;10.15.7;undefined;undefined;1440 x 900;1440 x 900
H040;21;Vrouwelijk;Rechts;1;50;left;yes;200;undefined;null;true;focus;yes;200317;Chrome;112.0;macOS;10.15.7;undefined;undefined;1440 x 900;1440 x 900
H040;21;Vrouwelijk;Rechts;1;51;left;no;250;leftarrow;359;true;focus;yes;201440;Chrome;112.0;macOS;10.15.7;undefined;undefined;1440 x 900;1440 x 900
H040;21;Vrouwelijk;Rechts;1;52;right;no;250;rightarrow;526;true;focus;yes;202732;Chrome;112.0;macOS;10.15.7;undefined;undefined;1440 x 900;1440 x 900
H040;21;Vrouwelijk;Rechts;1;53;right;no;250;rightarrow;628;true;focus;yes;204131;Chrome;112.0;macOS;10.15.7;undefined;undefined;1440 x 900;1440 x 900
H040;21;Vrouwelijk;Rechts;1;54;right;yes;250;rightarrow;419;false;focus;yes;205315;Chrome;112.0;macOS;10.15.7;undefined;undefined;1440 x 900;1440 x 900
H040;21;Vrouwelijk;Rechts;1;55;left;no;200;leftarrow;644;true;focus;yes;206723;Chrome;112.0;macOS;10.15.7;undefined;undefined;1440 x 900;1440 x 900
H040;21;Vrouwelijk;Rechts;1;56;left;no;200;leftarrow;530;true;focus;yes;208012;Chrome;112.0;macOS;10.15.7;undefined;undefined;1440 x 900;1440 x 900
H040;21;Vrouwelijk;Rechts;1;57;right;no;200;rightarrow;652;true;focus;yes;209427;Chrome;112.0;macOS;10.15.7;undefined;undefined;1440 x 900;1440 x 900
H040;21;Vrouwelijk;Rechts;1;58;right;yes;200;rightarrow;428;false;focus;yes;210618;Chrome;112.0;macOS;10.15.7;undefined;undefined;1440 x 900;1440 x 900
H040;21;Vrouwelijk;Rechts;1;59;right;no;150;rightarrow;724;true;focus;yes;212106;Chrome;112.0;macOS;10.15.7;undefined;undefined;1440 x 900;1440 x 900
H040;21;Vrouwelijk;Rechts;1;60;left;no;150;leftarrow;494;true;focus;yes;213365;Chrome;112.0;macOS;10.15.7;undefined;undefined;1440 x 900;1440 x 900
H040;21;Vrouwelijk;Rechts;1;61;left;yes;150;undefined;null;true;focus;yes;215399;Chrome;112.0;macOS;10.15.7;undefined;undefined;1440 x 900;1440 x 900
H040;21;Vrouwelijk;Rechts;1;62;left;no;200;leftarrow;377;true;focus;yes;216553;Chrome;112.0;macOS;10.15.7;undefined;undefined;1440 x 900;1440 x 900
H040;21;Vrouwelijk;Rechts;1;63;left;no;200;leftarrow;532;true;focus;yes;217850;Chrome;112.0;macOS;10.15.7;undefined;undefined;1440 x 900;1440 x 900
H040;21;Vrouwelijk;Rechts;1;64;right;no;200;rightarrow;593;true;focus;yes;219207;Chrome;112.0;macOS;10.15.7;undefined;undefined;1440 x 900;1440 x 900
H040;21;Vrouwelijk;Rechts;1;65;right;no;200;rightarrow;491;true;focus;yes;220466;Chrome;112.0;macOS;10.15.7;undefined;undefined;1440 x 900;1440 x 900
H040;21;Vrouwelijk;Rechts;1;66;right;no;200;rightarrow;574;true;focus;yes;221805;Chrome;112.0;macOS;10.15.7;undefined;undefined;1440 x 900;1440 x 900
H040;21;Vrouwelijk;Rechts;1;67;left;no;200;leftarrow;404;true;focus;yes;222981;Chrome;112.0;macOS;10.15.7;undefined;undefined;1440 x 900;1440 x 900
H040;21;Vrouwelijk;Rechts;1;68;left;yes;200;undefined;null;true;focus;yes;224997;Chrome;112.0;macOS;10.15.7;undefined;undefined;1440 x 900;1440 x 900
H040;21;Vrouwelijk;Rechts;1;69;left;no;250;leftarrow;363;true;focus;yes;226133;Chrome;112.0;macOS;10.15.7;undefined;undefined;1440 x 900;1440 x 900
H040;21;Vrouwelijk;Rechts;1;70;left;no;250;leftarrow;576;true;focus;yes;227470;Chrome;112.0;macOS;10.15.7;undefined;undefined;1440 x 900;1440 x 900
H040;21;Vrouwelijk;Rechts;1;71;right;no;250;rightarrow;550;true;focus;yes;228795;Chrome;112.0;macOS;10.15.7;undefined;undefined;1440 x 900;1440 x 900
H040;21;Vrouwelijk;Rechts;1;72;right;yes;250;rightarrow;417;false;focus;yes;229976;Chrome;112.0;macOS;10.15.7;undefined;undefined;1440 x 900;1440 x 900
H040;21;Vrouwelijk;Rechts;1;73;left;yes;200;undefined;null;true;focus;yes;231994;Chrome;112.0;macOS;10.15.7;undefined;undefined;1440 x 900;1440 x 900
H040;21;Vrouwelijk;Rechts;1;74;left;no;250;leftarrow;420;true;focus;yes;233188;Chrome;112.0;macOS;10.15.7;undefined;undefined;1440 x 900;1440 x 900
H040;21;Vrouwelijk;Rechts;1;75;right;yes;250;undefined;null;true;focus;yes;235206;Chrome;112.0;macOS;10.15.7;undefined;undefined;1440 x 900;1440 x 900
H040;21;Vrouwelijk;Rechts;1;76;left;no;300;leftarrow;443;true;focus;yes;236428;Chrome;112.0;macOS;10.15.7;undefined;undefined;1440 x 900;1440 x 900
H040;21;Vrouwelijk;Rechts;1;77;right;no;300;rightarrow;573;true;focus;yes;237771;Chrome;112.0;macOS;10.15.7;undefined;undefined;1440 x 900;1440 x 900
H040;21;Vrouwelijk;Rechts;1;78;right;no;300;rightarrow;577;true;focus;yes;239106;Chrome;112.0;macOS;10.15.7;undefined;undefined;1440 x 900;1440 x 900
H040;21;Vrouwelijk;Rechts;1;79;left;no;300;leftarrow;618;true;focus;yes;240487;Chrome;112.0;macOS;10.15.7;undefined;undefined;1440 x 900;1440 x 900
H040;21;Vrouwelijk;Rechts;1;80;right;no;300;rightarrow;612;true;focus;yes;241866;Chrome;112.0;macOS;10.15.7;undefined;undefined;1440 x 900;1440 x 900
H040;21;Vrouwelijk;Rechts;1;81;right;yes;300;rightarrow;476;false;focus;yes;243105;Chrome;112.0;macOS;10.15.7;undefined;undefined;1440 x 900;1440 x 900
H040;21;Vrouwelijk;Rechts;1;82;left;no;250;undefined;null;false;focus;yes;245123;Chrome;112.0;macOS;10.15.7;undefined;undefined;1440 x 900;1440 x 900
H040;21;Vrouwelijk;Rechts;1;83;right;no;250;rightarrow;623;true;focus;yes;246512;Chrome;112.0;macOS;10.15.7;undefined;undefined;1440 x 900;1440 x 900
H040;21;Vrouwelijk;Rechts;1;84;left;yes;250;leftarrow;428;false;focus;yes;247714;Chrome;112.0;macOS;10.15.7;undefined;undefined;1440 x 900;1440 x 900
H040;21;Vrouwelijk;Rechts;1;85;right;no;200;rightarrow;667;true;focus;yes;249143;Chrome;112.0;macOS;10.15.7;undefined;undefined;1440 x 900;1440 x 900
H040;21;Vrouwelijk;Rechts;1;86;right;no;200;rightarrow;564;true;focus;yes;250473;Chrome;112.0;macOS;10.15.7;undefined;undefined;1440 x 900;1440 x 900
H040;21;Vrouwelijk;Rechts;1;87;left;no;200;leftarrow;482;true;focus;yes;251719;Chrome;112.0;macOS;10.15.7;undefined;undefined;1440 x 900;1440 x 900
H040;21;Vrouwelijk;Rechts;1;88;left;no;200;leftarrow;584;true;focus;yes;253079;Chrome;112.0;macOS;10.15.7;undefined;undefined;1440 x 900;1440 x 900
H040;21;Vrouwelijk;Rechts;1;89;right;no;200;rightarrow;501;true;focus;yes;254341;Chrome;112.0;macOS;10.15.7;undefined;undefined;1440 x 900;1440 x 900
H040;21;Vrouwelijk;Rechts;1;90;right;no;200;rightarrow;538;true;focus;yes;255642;Chrome;112.0;macOS;10.15.7;undefined;undefined;1440 x 900;1440 x 900
H040;21;Vrouwelijk;Rechts;1;91;left;yes;200;undefined;null;true;focus;yes;257660;Chrome;112.0;macOS;10.15.7;undefined;undefined;1440 x 900;1440 x 900
H040;21;Vrouwelijk;Rechts;1;92;right;yes;250;rightarrow;455;false;focus;yes;258894;Chrome;112.0;macOS;10.15.7;undefined;undefined;1440 x 900;1440 x 900
H040;21;Vrouwelijk;Rechts;1;93;left;no;200;leftarrow;630;true;focus;yes;260291;Chrome;112.0;macOS;10.15.7;undefined;undefined;1440 x 900;1440 x 900
H040;21;Vrouwelijk;Rechts;1;94;left;no;200;leftarrow;529;true;focus;yes;261580;Chrome;112.0;macOS;10.15.7;undefined;undefined;1440 x 900;1440 x 900
H040;21;Vrouwelijk;Rechts;1;95;left;no;200;leftarrow;529;true;focus;yes;262877;Chrome;112.0;macOS;10.15.7;undefined;undefined;1440 x 900;1440 x 900
H040;21;Vrouwelijk;Rechts;1;96;right;no;200;rightarrow;555;true;focus;yes;264211;Chrome;112.0;macOS;10.15.7;undefined;undefined;1440 x 900;1440 x 900
H040;21;Vrouwelijk;Rechts;1;97;right;no;200;rightarrow;487;true;focus;yes;265479;Chrome;112.0;macOS;10.15.7;undefined;undefined;1440 x 900;1440 x 900
H040;21;Vrouwelijk;Rechts;1;98;left;yes;200;undefined;null;true;focus;yes;267497;Chrome;112.0;macOS;10.15.7;undefined;undefined;1440 x 900;1440 x 900
H040;21;Vrouwelijk;Rechts;1;99;right;yes;250;undefined;null;true;focus;yes;269522;Chrome;112.0;macOS;10.15.7;undefined;undefined;1440 x 900;1440 x 900
H040;21;Vrouwelijk;Rechts;1;100;right;no;300;rightarrow;576;true;focus;yes;270865;Chrome;112.0;macOS;10.15.7;undefined;undefined;1440 x 900;1440 x 900
H040;21;Vrouwelijk;Rechts;1;101;left;no;300;leftarrow;518;true;focus;yes;272147;Chrome;112.0;macOS;10.15.7;undefined;undefined;1440 x 900;1440 x 900
H040;21;Vrouwelijk;Rechts;1;102;left;no;300;leftarrow;432;true;focus;yes;273358;Chrome;112.0;macOS;10.15.7;undefined;undefined;1440 x 900;1440 x 900
H040;21;Vrouwelijk;Rechts;1;103;left;no;300;leftarrow;456;true;focus;yes;274590;Chrome;112.0;macOS;10.15.7;undefined;undefined;1440 x 900;1440 x 900
H040;21;Vrouwelijk;Rechts;1;104;right;no;300;rightarrow;640;true;focus;yes;275991;Chrome;112.0;macOS;10.15.7;undefined;undefined;1440 x 900;1440 x 900
H040;21;Vrouwelijk;Rechts;1;105;left;yes;300;leftarrow;420;false;focus;yes;277176;Chrome;112.0;macOS;10.15.7;undefined;undefined;1440 x 900;1440 x 900
H040;21;Vrouwelijk;Rechts;1;106;right;yes;250;undefined;null;true;focus;yes;279196;Chrome;112.0;macOS;10.15.7;undefined;undefined;1440 x 900;1440 x 900
H040;21;Vrouwelijk;Rechts;1;107;left;no;300;leftarrow;454;true;focus;yes;280420;Chrome;112.0;macOS;10.15.7;undefined;undefined;1440 x 900;1440 x 900
H040;21;Vrouwelijk;Rechts;1;108;right;no;300;rightarrow;668;true;focus;yes;281855;Chrome;112.0;macOS;10.15.7;undefined;undefined;1440 x 900;1440 x 900
H040;21;Vrouwelijk;Rechts;1;109;left;no;300;leftarrow;481;true;focus;yes;283101;Chrome;112.0;macOS;10.15.7;undefined;undefined;1440 x 900;1440 x 900
H040;21;Vrouwelijk;Rechts;1;110;right;no;300;rightarrow;465;true;focus;yes;284333;Chrome;112.0;macOS;10.15.7;undefined;undefined;1440 x 900;1440 x 900
H040;21;Vrouwelijk;Rechts;1;111;right;no;300;rightarrow;488;true;focus;yes;285587;Chrome;112.0;macOS;10.15.7;undefined;undefined;1440 x 900;1440 x 900
H040;21;Vrouwelijk;Rechts;1;112;left;no;300;leftarrow;528;true;focus;yes;286883;Chrome;112.0;macOS;10.15.7;undefined;undefined;1440 x 900;1440 x 900
H040;21;Vrouwelijk;Rechts;1;113;left;no;300;leftarrow;420;true;focus;yes;288073;Chrome;112.0;macOS;10.15.7;undefined;undefined;1440 x 900;1440 x 900
H040;21;Vrouwelijk;Rechts;1;114;right;no;300;rightarrow;623;true;focus;yes;289454;Chrome;112.0;macOS;10.15.7;undefined;undefined;1440 x 900;1440 x 900
H040;21;Vrouwelijk;Rechts;1;115;left;no;300;leftarrow;479;true;focus;yes;290698;Chrome;112.0;macOS;10.15.7;undefined;undefined;1440 x 900;1440 x 900
H040;21;Vrouwelijk;Rechts;1;116;right;no;300;rightarrow;531;true;focus;yes;291999;Chrome;112.0;macOS;10.15.7;undefined;undefined;1440 x 900;1440 x 900
H040;21;Vrouwelijk;Rechts;1;117;left;no;300;leftarrow;533;true;focus;yes;293296;Chrome;112.0;macOS;10.15.7;undefined;undefined;1440 x 900;1440 x 900
H040;21;Vrouwelijk;Rechts;1;118;left;yes;300;leftarrow;451;false;focus;yes;294518;Chrome;112.0;macOS;10.15.7;undefined;undefined;1440 x 900;1440 x 900
H040;21;Vrouwelijk;Rechts;1;119;right;no;250;rightarrow;754;true;focus;yes;296037;Chrome;112.0;macOS;10.15.7;undefined;undefined;1440 x 900;1440 x 900
H040;21;Vrouwelijk;Rechts;1;120;right;yes;250;rightarrow;404;false;focus;yes;297207;Chrome;112.0;macOS;10.15.7;undefined;undefined;1440 x 900;1440 x 900
H040;21;Vrouwelijk;Rechts;1;121;right;no;200;rightarrow;656;true;focus;yes;298627;Chrome;112.0;macOS;10.15.7;undefined;undefined;1440 x 900;1440 x 900
H040;21;Vrouwelijk;Rechts;1;122;left;yes;200;undefined;null;true;focus;yes;300651;Chrome;112.0;macOS;10.15.7;undefined;undefined;1440 x 900;1440 x 900
H040;21;Vrouwelijk;Rechts;1;123;left;no;250;leftarrow;390;true;focus;yes;301812;Chrome;112.0;macOS;10.15.7;undefined;undefined;1440 x 900;1440 x 900
H040;21;Vrouwelijk;Rechts;1;124;right;no;250;rightarrow;578;true;focus;yes;303156;Chrome;112.0;macOS;10.15.7;undefined;undefined;1440 x 900;1440 x 900
H040;21;Vrouwelijk;Rechts;1;125;left;no;250;leftarrow;440;true;focus;yes;304363;Chrome;112.0;macOS;10.15.7;undefined;undefined;1440 x 900;1440 x 900
H040;21;Vrouwelijk;Rechts;1;126;right;yes;250;undefined;null;true;focus;yes;306383;Chrome;112.0;macOS;10.15.7;undefined;undefined;1440 x 900;1440 x 900
H040;21;Vrouwelijk;Rechts;1;127;left;no;300;leftarrow;402;true;focus;yes;307548;Chrome;112.0;macOS;10.15.7;undefined;undefined;1440 x 900;1440 x 900
H040;21;Vrouwelijk;Rechts;1;128;right;no;300;rightarrow;423;true;focus;yes;308737;Chrome;112.0;macOS;10.15.7;undefined;undefined;1440 x 900;1440 x 900
H040;21;Vrouwelijk;Rechts;2;1;left;yes;300;leftarrow;537;false;focus;yes;331183;Chrome;112.0;macOS;10.15.7;undefined;undefined;1440 x 900;1440 x 900
H040;21;Vrouwelijk;Rechts;2;2;right;no;250;rightarrow;454;true;focus;yes;332410;Chrome;112.0;macOS;10.15.7;undefined;undefined;1440 x 900;1440 x 900
H040;21;Vrouwelijk;Rechts;2;3;right;no;250;rightarrow;441;true;focus;yes;333618;Chrome;112.0;macOS;10.15.7;undefined;undefined;1440 x 900;1440 x 900
H040;21;Vrouwelijk;Rechts;2;4;right;no;250;rightarrow;367;true;focus;yes;334762;Chrome;112.0;macOS;10.15.7;undefined;undefined;1440 x 900;1440 x 900
H040;21;Vrouwelijk;Rechts;2;5;right;yes;250;rightarrow;365;false;focus;yes;335889;Chrome;112.0;macOS;10.15.7;undefined;undefined;1440 x 900;1440 x 900
H040;21;Vrouwelijk;Rechts;2;6;left;no;200;leftarrow;570;true;focus;yes;337223;Chrome;112.0;macOS;10.15.7;undefined;undefined;1440 x 900;1440 x 900
H040;21;Vrouwelijk;Rechts;2;7;left;no;200;leftarrow;427;true;focus;yes;338433;Chrome;112.0;macOS;10.15.7;undefined;undefined;1440 x 900;1440 x 900
H040;21;Vrouwelijk;Rechts;2;8;left;no;200;leftarrow;480;true;focus;yes;339689;Chrome;112.0;macOS;10.15.7;undefined;undefined;1440 x 900;1440 x 900
H040;21;Vrouwelijk;Rechts;2;9;left;no;200;leftarrow;425;true;focus;yes;340890;Chrome;112.0;macOS;10.15.7;undefined;undefined;1440 x 900;1440 x 900
H040;21;Vrouwelijk;Rechts;2;10;left;no;200;leftarrow;444;true;focus;yes;342100;Chrome;112.0;macOS;10.15.7;undefined;undefined;1440 x 900;1440 x 900
H040;21;Vrouwelijk;Rechts;2;11;right;no;200;rightarrow;509;true;focus;yes;343374;Chrome;112.0;macOS;10.15.7;undefined;undefined;1440 x 900;1440 x 900
H040;21;Vrouwelijk;Rechts;2;12;right;no;200;rightarrow;538;true;focus;yes;344674;Chrome;112.0;macOS;10.15.7;undefined;undefined;1440 x 900;1440 x 900
H040;21;Vrouwelijk;Rechts;2;13;left;yes;200;leftarrow;467;false;focus;yes;345908;Chrome;112.0;macOS;10.15.7;undefined;undefined;1440 x 900;1440 x 900
H040;21;Vrouwelijk;Rechts;2;14;right;no;150;rightarrow;679;true;focus;yes;347351;Chrome;112.0;macOS;10.15.7;undefined;undefined;1440 x 900;1440 x 900
H040;21;Vrouwelijk;Rechts;2;15;left;no;150;leftarrow;346;true;focus;yes;348454;Chrome;112.0;macOS;10.15.7;undefined;undefined;1440 x 900;1440 x 900
H040;21;Vrouwelijk;Rechts;2;16;right;yes;150;undefined;null;true;focus;yes;350488;Chrome;112.0;macOS;10.15.7;undefined;undefined;1440 x 900;1440 x 900
H040;21;Vrouwelijk;Rechts;2;17;right;no;200;rightarrow;439;true;focus;yes;351707;Chrome;112.0;macOS;10.15.7;undefined;undefined;1440 x 900;1440 x 900
H040;21;Vrouwelijk;Rechts;2;18;left;no;200;leftarrow;472;true;focus;yes;352951;Chrome;112.0;macOS;10.15.7;undefined;undefined;1440 x 900;1440 x 900
H040;21;Vrouwelijk;Rechts;2;19;right;no;200;rightarrow;389;true;focus;yes;354112;Chrome;112.0;macOS;10.15.7;undefined;undefined;1440 x 900;1440 x 900
H040;21;Vrouwelijk;Rechts;2;20;right;yes;200;undefined;null;true;focus;yes;356142;Chrome;112.0;macOS;10.15.7;undefined;undefined;1440 x 900;1440 x 900
H040;21;Vrouwelijk;Rechts;2;21;left;no;250;leftarrow;422;true;focus;yes;357338;Chrome;112.0;macOS;10.15.7;undefined;undefined;1440 x 900;1440 x 900
H040;21;Vrouwelijk;Rechts;2;22;left;yes;250;leftarrow;497;false;focus;yes;358596;Chrome;112.0;macOS;10.15.7;undefined;undefined;1440 x 900;1440 x 900
H040;21;Vrouwelijk;Rechts;2;23;left;no;200;leftarrow;551;true;focus;yes;359918;Chrome;112.0;macOS;10.15.7;undefined;undefined;1440 x 900;1440 x 900
H040;21;Vrouwelijk;Rechts;2;24;right;no;200;rightarrow;393;true;focus;yes;361070;Chrome;112.0;macOS;10.15.7;undefined;undefined;1440 x 900;1440 x 900
H040;21;Vrouwelijk;Rechts;2;25;left;no;200;leftarrow;431;true;focus;yes;362262;Chrome;112.0;macOS;10.15.7;undefined;undefined;1440 x 900;1440 x 900
H040;21;Vrouwelijk;Rechts;2;26;left;no;200;leftarrow;514;true;focus;yes;363537;Chrome;112.0;macOS;10.15.7;undefined;undefined;1440 x 900;1440 x 900
H040;21;Vrouwelijk;Rechts;2;27;right;no;200;rightarrow;409;true;focus;yes;364713;Chrome;112.0;macOS;10.15.7;undefined;undefined;1440 x 900;1440 x 900
H040;21;Vrouwelijk;Rechts;2;28;left;yes;200;undefined;null;true;focus;yes;366736;Chrome;112.0;macOS;10.15.7;undefined;undefined;1440 x 900;1440 x 900
H040;21;Vrouwelijk;Rechts;2;29;right;yes;250;rightarrow;457;false;focus;yes;367969;Chrome;112.0;macOS;10.15.7;undefined;undefined;1440 x 900;1440 x 900
H040;21;Vrouwelijk;Rechts;2;30;right;no;200;rightarrow;527;true;focus;yes;369262;Chrome;112.0;macOS;10.15.7;undefined;undefined;1440 x 900;1440 x 900
H040;21;Vrouwelijk;Rechts;2;31;left;no;200;leftarrow;451;true;focus;yes;370484;Chrome;112.0;macOS;10.15.7;undefined;undefined;1440 x 900;1440 x 900
H040;21;Vrouwelijk;Rechts;2;32;right;no;200;rightarrow;483;true;focus;yes;371730;Chrome;112.0;macOS;10.15.7;undefined;undefined;1440 x 900;1440 x 900
H040;21;Vrouwelijk;Rechts;2;33;right;no;200;rightarrow;488;true;focus;yes;372980;Chrome;112.0;macOS;10.15.7;undefined;undefined;1440 x 900;1440 x 900
H040;21;Vrouwelijk;Rechts;2;34;left;no;200;leftarrow;472;true;focus;yes;374227;Chrome;112.0;macOS;10.15.7;undefined;undefined;1440 x 900;1440 x 900
H040;21;Vrouwelijk;Rechts;2;35;right;no;200;rightarrow;394;true;focus;yes;375385;Chrome;112.0;macOS;10.15.7;undefined;undefined;1440 x 900;1440 x 900
H040;21;Vrouwelijk;Rechts;2;36;left;no;200;leftarrow;660;true;focus;yes;376807;Chrome;112.0;macOS;10.15.7;undefined;undefined;1440 x 900;1440 x 900
H040;21;Vrouwelijk;Rechts;2;37;right;no;200;rightarrow;403;true;focus;yes;377987;Chrome;112.0;macOS;10.15.7;undefined;undefined;1440 x 900;1440 x 900
H040;21;Vrouwelijk;Rechts;2;38;right;yes;200;undefined;null;true;focus;yes;380003;Chrome;112.0;macOS;10.15.7;undefined;undefined;1440 x 900;1440 x 900
H040;21;Vrouwelijk;Rechts;2;39;left;no;250;leftarrow;468;true;focus;yes;381239;Chrome;112.0;macOS;10.15.7;undefined;undefined;1440 x 900;1440 x 900
H040;21;Vrouwelijk;Rechts;2;40;left;yes;250;undefined;null;true;focus;yes;383258;Chrome;112.0;macOS;10.15.7;undefined;undefined;1440 x 900;1440 x 900
H040;21;Vrouwelijk;Rechts;2;41;right;no;300;rightarrow;360;true;focus;yes;384383;Chrome;112.0;macOS;10.15.7;undefined;undefined;1440 x 900;1440 x 900
H040;21;Vrouwelijk;Rechts;2;42;right;no;300;rightarrow;450;true;focus;yes;385611;Chrome;112.0;macOS;10.15.7;undefined;undefined;1440 x 900;1440 x 900
H040;21;Vrouwelijk;Rechts;2;43;left;no;300;leftarrow;443;true;focus;yes;386818;Chrome;112.0;macOS;10.15.7;undefined;undefined;1440 x 900;1440 x 900
H040;21;Vrouwelijk;Rechts;2;44;right;yes;300;rightarrow;558;false;focus;yes;388141;Chrome;112.0;macOS;10.15.7;undefined;undefined;1440 x 900;1440 x 900
H040;21;Vrouwelijk;Rechts;2;45;left;no;250;leftarrow;486;true;focus;yes;389399;Chrome;112.0;macOS;10.15.7;undefined;undefined;1440 x 900;1440 x 900
H040;21;Vrouwelijk;Rechts;2;46;left;yes;250;leftarrow;430;false;focus;yes;390596;Chrome;112.0;macOS;10.15.7;undefined;undefined;1440 x 900;1440 x 900
H040;21;Vrouwelijk;Rechts;2;47;left;no;200;leftarrow;605;true;focus;yes;391964;Chrome;112.0;macOS;10.15.7;undefined;undefined;1440 x 900;1440 x 900
H040;21;Vrouwelijk;Rechts;2;48;right;no;200;rightarrow;469;true;focus;yes;393195;Chrome;112.0;macOS;10.15.7;undefined;undefined;1440 x 900;1440 x 900
H040;21;Vrouwelijk;Rechts;2;49;right;yes;200;undefined;null;true;focus;yes;395214;Chrome;112.0;macOS;10.15.7;undefined;undefined;1440 x 900;1440 x 900
H040;21;Vrouwelijk;Rechts;2;50;right;no;250;rightarrow;531;true;focus;yes;396513;Chrome;112.0;macOS;10.15.7;undefined;undefined;1440 x 900;1440 x 900
H040;21;Vrouwelijk;Rechts;2;51;left;yes;250;leftarrow;395;false;focus;yes;397683;Chrome;112.0;macOS;10.15.7;undefined;undefined;1440 x 900;1440 x 900
H040;21;Vrouwelijk;Rechts;2;52;left;no;200;leftarrow;538;true;focus;yes;398984;Chrome;112.0;macOS;10.15.7;undefined;undefined;1440 x 900;1440 x 900
H040;21;Vrouwelijk;Rechts;2;53;right;no;200;rightarrow;503;true;focus;yes;400253;Chrome;112.0;macOS;10.15.7;undefined;undefined;1440 x 900;1440 x 900
H040;21;Vrouwelijk;Rechts;2;54;left;no;200;leftarrow;563;true;focus;yes;401587;Chrome;112.0;macOS;10.15.7;undefined;undefined;1440 x 900;1440 x 900
H040;21;Vrouwelijk;Rechts;2;55;right;no;200;rightarrow;510;true;focus;yes;402859;Chrome;112.0;macOS;10.15.7;undefined;undefined;1440 x 900;1440 x 900
H040;21;Vrouwelijk;Rechts;2;56;left;no;200;leftarrow;490;true;focus;yes;404122;Chrome;112.0;macOS;10.15.7;undefined;undefined;1440 x 900;1440 x 900
H040;21;Vrouwelijk;Rechts;2;57;left;no;200;leftarrow;500;true;focus;yes;405386;Chrome;112.0;macOS;10.15.7;undefined;undefined;1440 x 900;1440 x 900
H040;21;Vrouwelijk;Rechts;2;58;right;no;200;rightarrow;560;true;focus;yes;406711;Chrome;112.0;macOS;10.15.7;undefined;undefined;1440 x 900;1440 x 900
H040;21;Vrouwelijk;Rechts;2;59;right;yes;200;undefined;null;true;focus;yes;408729;Chrome;112.0;macOS;10.15.7;undefined;undefined;1440 x 900;1440 x 900
H040;21;Vrouwelijk;Rechts;2;60;left;yes;250;leftarrow;391;false;focus;yes;409884;Chrome;112.0;macOS;10.15.7;undefined;undefined;1440 x 900;1440 x 900
H040;21;Vrouwelijk;Rechts;2;61;left;no;200;leftarrow;512;true;focus;yes;411158;Chrome;112.0;macOS;10.15.7;undefined;undefined;1440 x 900;1440 x 900
H040;21;Vrouwelijk;Rechts;2;62;left;no;200;leftarrow;736;true;focus;yes;412662;Chrome;112.0;macOS;10.15.7;undefined;undefined;1440 x 900;1440 x 900
H040;21;Vrouwelijk;Rechts;2;63;right;no;200;rightarrow;549;true;focus;yes;413989;Chrome;112.0;macOS;10.15.7;undefined;undefined;1440 x 900;1440 x 900
H040;21;Vrouwelijk;Rechts;2;64;right;no;200;rightarrow;456;true;focus;yes;415214;Chrome;112.0;macOS;10.15.7;undefined;undefined;1440 x 900;1440 x 900
H040;21;Vrouwelijk;Rechts;2;65;right;yes;200;undefined;null;true;focus;yes;417235;Chrome;112.0;macOS;10.15.7;undefined;undefined;1440 x 900;1440 x 900
H040;21;Vrouwelijk;Rechts;2;66;left;no;250;leftarrow;430;true;focus;yes;418436;Chrome;112.0;macOS;10.15.7;undefined;undefined;1440 x 900;1440 x 900
H040;21;Vrouwelijk;Rechts;2;67;left;no;250;leftarrow;523;true;focus;yes;419720;Chrome;112.0;macOS;10.15.7;undefined;undefined;1440 x 900;1440 x 900
H040;21;Vrouwelijk;Rechts;2;68;left;no;250;leftarrow;548;true;focus;yes;421043;Chrome;112.0;macOS;10.15.7;undefined;undefined;1440 x 900;1440 x 900
H040;21;Vrouwelijk;Rechts;2;69;right;no;250;rightarrow;536;true;focus;yes;422342;Chrome;112.0;macOS;10.15.7;undefined;undefined;1440 x 900;1440 x 900
H040;21;Vrouwelijk;Rechts;2;70;right;no;250;rightarrow;463;true;focus;yes;423573;Chrome;112.0;macOS;10.15.7;undefined;undefined;1440 x 900;1440 x 900
H040;21;Vrouwelijk;Rechts;2;71;left;yes;250;leftarrow;494;false;focus;yes;424836;Chrome;112.0;macOS;10.15.7;undefined;undefined;1440 x 900;1440 x 900
H040;21;Vrouwelijk;Rechts;2;72;right;no;200;rightarrow;551;true;focus;yes;426160;Chrome;112.0;macOS;10.15.7;undefined;undefined;1440 x 900;1440 x 900
H040;21;Vrouwelijk;Rechts;2;73;right;yes;200;undefined;null;true;focus;yes;428197;Chrome;112.0;macOS;10.15.7;undefined;undefined;1440 x 900;1440 x 900
H040;21;Vrouwelijk;Rechts;2;74;right;no;250;rightarrow;459;true;focus;yes;429428;Chrome;112.0;macOS;10.15.7;undefined;undefined;1440 x 900;1440 x 900
H040;21;Vrouwelijk;Rechts;2;75;left;no;250;leftarrow;455;true;focus;yes;430651;Chrome;112.0;macOS;10.15.7;undefined;undefined;1440 x 900;1440 x 900
H040;21;Vrouwelijk;Rechts;2;76;left;no;250;leftarrow;460;true;focus;yes;431881;Chrome;112.0;macOS;10.15.7;undefined;undefined;1440 x 900;1440 x 900
H040;21;Vrouwelijk;Rechts;2;77;right;no;250;rightarrow;570;true;focus;yes;433214;Chrome;112.0;macOS;10.15.7;undefined;undefined;1440 x 900;1440 x 900
H040;21;Vrouwelijk;Rechts;2;78;right;no;250;rightarrow;471;true;focus;yes;434447;Chrome;112.0;macOS;10.15.7;undefined;undefined;1440 x 900;1440 x 900
H040;21;Vrouwelijk;Rechts;2;79;left;no;250;leftarrow;495;true;focus;yes;435704;Chrome;112.0;macOS;10.15.7;undefined;undefined;1440 x 900;1440 x 900
H040;21;Vrouwelijk;Rechts;2;80;left;yes;250;leftarrow;455;false;focus;yes;436933;Chrome;112.0;macOS;10.15.7;undefined;undefined;1440 x 900;1440 x 900
H040;21;Vrouwelijk;Rechts;2;81;right;no;200;rightarrow;558;true;focus;yes;438269;Chrome;112.0;macOS;10.15.7;undefined;undefined;1440 x 900;1440 x 900
H040;21;Vrouwelijk;Rechts;2;82;right;no;200;rightarrow;501;true;focus;yes;439538;Chrome;112.0;macOS;10.15.7;undefined;undefined;1440 x 900;1440 x 900
H040;21;Vrouwelijk;Rechts;2;83;right;no;200;rightarrow;504;true;focus;yes;440800;Chrome;112.0;macOS;10.15.7;undefined;undefined;1440 x 900;1440 x 900
H040;21;Vrouwelijk;Rechts;2;84;left;no;200;leftarrow;433;true;focus;yes;442007;Chrome;112.0;macOS;10.15.7;undefined;undefined;1440 x 900;1440 x 900
H040;21;Vrouwelijk;Rechts;2;85;left;yes;200;undefined;null;true;focus;yes;444028;Chrome;112.0;macOS;10.15.7;undefined;undefined;1440 x 900;1440 x 900
H040;21;Vrouwelijk;Rechts;2;86;right;yes;250;rightarrow;404;false;focus;yes;445210;Chrome;112.0;macOS;10.15.7;undefined;undefined;1440 x 900;1440 x 900
H040;21;Vrouwelijk;Rechts;2;87;left;no;200;leftarrow;500;true;focus;yes;446480;Chrome;112.0;macOS;10.15.7;undefined;undefined;1440 x 900;1440 x 900
H040;21;Vrouwelijk;Rechts;2;88;left;no;200;leftarrow;554;true;focus;yes;447798;Chrome;112.0;macOS;10.15.7;undefined;undefined;1440 x 900;1440 x 900
H040;21;Vrouwelijk;Rechts;2;89;left;yes;200;undefined;null;true;focus;yes;449815;Chrome;112.0;macOS;10.15.7;undefined;undefined;1440 x 900;1440 x 900
H040;21;Vrouwelijk;Rechts;2;90;right;yes;250;rightarrow;402;false;focus;yes;450986;Chrome;112.0;macOS;10.15.7;undefined;undefined;1440 x 900;1440 x 900
H040;21;Vrouwelijk;Rechts;2;91;right;no;200;rightarrow;545;true;focus;yes;452294;Chrome;112.0;macOS;10.15.7;undefined;undefined;1440 x 900;1440 x 900
H040;21;Vrouwelijk;Rechts;2;92;right;no;200;rightarrow;505;true;focus;yes;453576;Chrome;112.0;macOS;10.15.7;undefined;undefined;1440 x 900;1440 x 900
H040;21;Vrouwelijk;Rechts;2;93;left;no;200;leftarrow;624;true;focus;yes;454964;Chrome;112.0;macOS;10.15.7;undefined;undefined;1440 x 900;1440 x 900
H040;21;Vrouwelijk;Rechts;2;94;right;no;200;rightarrow;637;true;focus;yes;456369;Chrome;112.0;macOS;10.15.7;undefined;undefined;1440 x 900;1440 x 900
H040;21;Vrouwelijk;Rechts;2;95;left;no;200;leftarrow;451;true;focus;yes;457582;Chrome;112.0;macOS;10.15.7;undefined;undefined;1440 x 900;1440 x 900
H040;21;Vrouwelijk;Rechts;2;96;left;no;200;leftarrow;764;true;focus;yes;459118;Chrome;112.0;macOS;10.15.7;undefined;undefined;1440 x 900;1440 x 900
H040;21;Vrouwelijk;Rechts;2;97;right;no;200;rightarrow;642;true;focus;yes;460522;Chrome;112.0;macOS;10.15.7;undefined;undefined;1440 x 900;1440 x 900
H040;21;Vrouwelijk;Rechts;2;98;right;no;200;rightarrow;419;true;focus;yes;461713;Chrome;112.0;macOS;10.15.7;undefined;undefined;1440 x 900;1440 x 900
H040;21;Vrouwelijk;Rechts;2;99;right;yes;200;undefined;null;true;focus;yes;463729;Chrome;112.0;macOS;10.15.7;undefined;undefined;1440 x 900;1440 x 900
H040;21;Vrouwelijk;Rechts;2;100;right;no;250;rightarrow;430;true;focus;yes;464930;Chrome;112.0;macOS;10.15.7;undefined;undefined;1440 x 900;1440 x 900
H040;21;Vrouwelijk;Rechts;2;101;left;yes;250;undefined;null;true;focus;yes;466944;Chrome;112.0;macOS;10.15.7;undefined;undefined;1440 x 900;1440 x 900
H040;21;Vrouwelijk;Rechts;2;102;left;no;300;leftarrow;368;true;focus;yes;468075;Chrome;112.0;macOS;10.15.7;undefined;undefined;1440 x 900;1440 x 900
H040;21;Vrouwelijk;Rechts;2;103;left;no;300;leftarrow;412;true;focus;yes;469266;Chrome;112.0;macOS;10.15.7;undefined;undefined;1440 x 900;1440 x 900
H040;21;Vrouwelijk;Rechts;2;104;left;no;300;leftarrow;380;true;focus;yes;470417;Chrome;112.0;macOS;10.15.7;undefined;undefined;1440 x 900;1440 x 900
H040;21;Vrouwelijk;Rechts;2;105;right;yes;300;undefined;null;true;focus;yes;472443;Chrome;112.0;macOS;10.15.7;undefined;undefined;1440 x 900;1440 x 900
H040;21;Vrouwelijk;Rechts;2;106;right;no;350;rightarrow;385;true;focus;yes;473608;Chrome;112.0;macOS;10.15.7;undefined;undefined;1440 x 900;1440 x 900
H040;21;Vrouwelijk;Rechts;2;107;left;no;350;leftarrow;392;true;focus;yes;474759;Chrome;112.0;macOS;10.15.7;undefined;undefined;1440 x 900;1440 x 900
H040;21;Vrouwelijk;Rechts;2;108;right;no;350;rightarrow;480;true;focus;yes;476003;Chrome;112.0;macOS;10.15.7;undefined;undefined;1440 x 900;1440 x 900
H040;21;Vrouwelijk;Rechts;2;109;left;no;350;leftarrow;526;true;focus;yes;477297;Chrome;112.0;macOS;10.15.7;undefined;undefined;1440 x 900;1440 x 900
H040;21;Vrouwelijk;Rechts;2;110;left;yes;350;leftarrow;588;false;focus;yes;478666;Chrome;112.0;macOS;10.15.7;undefined;undefined;1440 x 900;1440 x 900
H040;21;Vrouwelijk;Rechts;2;111;right;no;300;rightarrow;442;true;focus;yes;479878;Chrome;112.0;macOS;10.15.7;undefined;undefined;1440 x 900;1440 x 900
H040;21;Vrouwelijk;Rechts;2;112;left;no;300;leftarrow;437;true;focus;yes;481075;Chrome;112.0;macOS;10.15.7;undefined;undefined;1440 x 900;1440 x 900
H040;21;Vrouwelijk;Rechts;2;113;left;no;300;leftarrow;488;true;focus;yes;482341;Chrome;112.0;macOS;10.15.7;undefined;undefined;1440 x 900;1440 x 900
H040;21;Vrouwelijk;Rechts;2;114;left;no;300;leftarrow;583;true;focus;yes;483690;Chrome;112.0;macOS;10.15.7;undefined;undefined;1440 x 900;1440 x 900
H040;21;Vrouwelijk;Rechts;2;115;left;no;300;leftarrow;630;true;focus;yes;485088;Chrome;112.0;macOS;10.15.7;undefined;undefined;1440 x 900;1440 x 900
H040;21;Vrouwelijk;Rechts;2;116;right;no;300;rightarrow;485;true;focus;yes;486336;Chrome;112.0;macOS;10.15.7;undefined;undefined;1440 x 900;1440 x 900
H040;21;Vrouwelijk;Rechts;2;117;right;no;300;rightarrow;520;true;focus;yes;487628;Chrome;112.0;macOS;10.15.7;undefined;undefined;1440 x 900;1440 x 900
H040;21;Vrouwelijk;Rechts;2;118;right;yes;300;rightarrow;424;false;focus;yes;488828;Chrome;112.0;macOS;10.15.7;undefined;undefined;1440 x 900;1440 x 900
H040;21;Vrouwelijk;Rechts;2;119;left;yes;250;undefined;null;true;focus;yes;490862;Chrome;112.0;macOS;10.15.7;undefined;undefined;1440 x 900;1440 x 900
H040;21;Vrouwelijk;Rechts;2;120;right;no;300;rightarrow;437;true;focus;yes;492071;Chrome;112.0;macOS;10.15.7;undefined;undefined;1440 x 900;1440 x 900
H040;21;Vrouwelijk;Rechts;2;121;left;no;300;leftarrow;707;true;focus;yes;493543;Chrome;112.0;macOS;10.15.7;undefined;undefined;1440 x 900;1440 x 900
H040;21;Vrouwelijk;Rechts;2;122;left;no;300;leftarrow;476;true;focus;yes;494782;Chrome;112.0;macOS;10.15.7;undefined;undefined;1440 x 900;1440 x 900
H040;21;Vrouwelijk;Rechts;2;123;right;no;300;rightarrow;429;true;focus;yes;495976;Chrome;112.0;macOS;10.15.7;undefined;undefined;1440 x 900;1440 x 900
H040;21;Vrouwelijk;Rechts;2;124;right;no;300;rightarrow;486;true;focus;yes;497224;Chrome;112.0;macOS;10.15.7;undefined;undefined;1440 x 900;1440 x 900
H040;21;Vrouwelijk;Rechts;2;125;left;yes;300;leftarrow;481;false;focus;yes;498475;Chrome;112.0;macOS;10.15.7;undefined;undefined;1440 x 900;1440 x 900
H040;21;Vrouwelijk;Rechts;2;126;right;no;250;rightarrow;474;true;focus;yes;499716;Chrome;112.0;macOS;10.15.7;undefined;undefined;1440 x 900;1440 x 900
H040;21;Vrouwelijk;Rechts;2;127;left;no;250;leftarrow;555;true;focus;yes;501038;Chrome;112.0;macOS;10.15.7;undefined;undefined;1440 x 900;1440 x 900
H040;21;Vrouwelijk;Rechts;2;128;right;yes;250;undefined;null;true;focus;yes;503053;Chrome;112.0;macOS;10.15.7;undefined;undefined;1440 x 900;1440 x 900
H040;21;Vrouwelijk;Rechts;3;1;left;no;300;leftarrow;512;true;focus;yes;523333;Chrome;112.0;macOS;10.15.7;undefined;undefined;1440 x 900;1440 x 900
H040;21;Vrouwelijk;Rechts;3;2;right;yes;300;rightarrow;426;false;focus;yes;524519;Chrome;112.0;macOS;10.15.7;undefined;undefined;1440 x 900;1440 x 900
H040;21;Vrouwelijk;Rechts;3;3;left;no;250;leftarrow;414;true;focus;yes;525701;Chrome;112.0;macOS;10.15.7;undefined;undefined;1440 x 900;1440 x 900
H040;21;Vrouwelijk;Rechts;3;4;right;no;250;rightarrow;522;true;focus;yes;526986;Chrome;112.0;macOS;10.15.7;undefined;undefined;1440 x 900;1440 x 900
H040;21;Vrouwelijk;Rechts;3;5;right;no;250;rightarrow;460;true;focus;yes;528208;Chrome;112.0;macOS;10.15.7;undefined;undefined;1440 x 900;1440 x 900
H040;21;Vrouwelijk;Rechts;3;6;left;yes;250;undefined;null;true;focus;yes;530245;Chrome;112.0;macOS;10.15.7;undefined;undefined;1440 x 900;1440 x 900
H040;21;Vrouwelijk;Rechts;3;7;right;no;300;rightarrow;504;true;focus;yes;531516;Chrome;112.0;macOS;10.15.7;undefined;undefined;1440 x 900;1440 x 900
H040;21;Vrouwelijk;Rechts;3;8;left;no;300;leftarrow;607;true;focus;yes;532887;Chrome;112.0;macOS;10.15.7;undefined;undefined;1440 x 900;1440 x 900
H040;21;Vrouwelijk;Rechts;3;9;left;no;300;leftarrow;557;true;focus;yes;534215;Chrome;112.0;macOS;10.15.7;undefined;undefined;1440 x 900;1440 x 900
H040;21;Vrouwelijk;Rechts;3;10;left;yes;300;undefined;null;true;focus;yes;536248;Chrome;112.0;macOS;10.15.7;undefined;undefined;1440 x 900;1440 x 900
H040;21;Vrouwelijk;Rechts;3;11;right;no;350;rightarrow;392;true;focus;yes;537420;Chrome;112.0;macOS;10.15.7;undefined;undefined;1440 x 900;1440 x 900
H040;21;Vrouwelijk;Rechts;3;12;left;no;350;leftarrow;575;true;focus;yes;538759;Chrome;112.0;macOS;10.15.7;undefined;undefined;1440 x 900;1440 x 900
H040;21;Vrouwelijk;Rechts;3;13;right;no;350;rightarrow;406;true;focus;yes;539945;Chrome;112.0;macOS;10.15.7;undefined;undefined;1440 x 900;1440 x 900
H040;21;Vrouwelijk;Rechts;3;14;left;no;350;leftarrow;486;true;focus;yes;541198;Chrome;112.0;macOS;10.15.7;undefined;undefined;1440 x 900;1440 x 900
H040;21;Vrouwelijk;Rechts;3;15;right;yes;350;rightarrow;392;false;focus;yes;542359;Chrome;112.0;macOS;10.15.7;undefined;undefined;1440 x 900;1440 x 900
H040;21;Vrouwelijk;Rechts;3;16;right;no;300;rightarrow;570;true;focus;yes;543707;Chrome;112.0;macOS;10.15.7;undefined;undefined;1440 x 900;1440 x 900
H040;21;Vrouwelijk;Rechts;3;17;left;no;300;leftarrow;457;true;focus;yes;544923;Chrome;112.0;macOS;10.15.7;undefined;undefined;1440 x 900;1440 x 900
H040;21;Vrouwelijk;Rechts;3;18;right;no;300;rightarrow;441;true;focus;yes;546128;Chrome;112.0;macOS;10.15.7;undefined;undefined;1440 x 900;1440 x 900
H040;21;Vrouwelijk;Rechts;3;19;right;no;300;rightarrow;634;true;focus;yes;547536;Chrome;112.0;macOS;10.15.7;undefined;undefined;1440 x 900;1440 x 900
H040;21;Vrouwelijk;Rechts;3;20;right;no;300;rightarrow;484;true;focus;yes;548788;Chrome;112.0;macOS;10.15.7;undefined;undefined;1440 x 900;1440 x 900
H040;21;Vrouwelijk;Rechts;3;21;left;no;300;leftarrow;565;true;focus;yes;550123;Chrome;112.0;macOS;10.15.7;undefined;undefined;1440 x 900;1440 x 900
H040;21;Vrouwelijk;Rechts;3;22;left;no;300;leftarrow;452;true;focus;yes;551339;Chrome;112.0;macOS;10.15.7;undefined;undefined;1440 x 900;1440 x 900
H040;21;Vrouwelijk;Rechts;3;23;right;yes;300;rightarrow;463;false;focus;yes;552567;Chrome;112.0;macOS;10.15.7;undefined;undefined;1440 x 900;1440 x 900
H040;21;Vrouwelijk;Rechts;3;24;left;yes;250;undefined;null;true;focus;yes;554591;Chrome;112.0;macOS;10.15.7;undefined;undefined;1440 x 900;1440 x 900
H040;21;Vrouwelijk;Rechts;3;25;left;no;300;leftarrow;372;true;focus;yes;555723;Chrome;112.0;macOS;10.15.7;undefined;undefined;1440 x 900;1440 x 900
H040;21;Vrouwelijk;Rechts;3;26;right;yes;300;rightarrow;456;false;focus;yes;556939;Chrome;112.0;macOS;10.15.7;undefined;undefined;1440 x 900;1440 x 900
H040;21;Vrouwelijk;Rechts;3;27;left;no;250;leftarrow;599;true;focus;yes;558302;Chrome;112.0;macOS;10.15.7;undefined;undefined;1440 x 900;1440 x 900
H040;21;Vrouwelijk;Rechts;3;28;right;no;250;rightarrow;420;true;focus;yes;559492;Chrome;112.0;macOS;10.15.7;undefined;undefined;1440 x 900;1440 x 900
H040;21;Vrouwelijk;Rechts;3;29;left;yes;250;leftarrow;442;false;focus;yes;560696;Chrome;112.0;macOS;10.15.7;undefined;undefined;1440 x 900;1440 x 900
H040;21;Vrouwelijk;Rechts;3;30;right;no;200;rightarrow;514;true;focus;yes;561976;Chrome;112.0;macOS;10.15.7;undefined;undefined;1440 x 900;1440 x 900
H040;21;Vrouwelijk;Rechts;3;31;right;no;200;rightarrow;657;true;focus;yes;563399;Chrome;112.0;macOS;10.15.7;undefined;undefined;1440 x 900;1440 x 900
H040;21;Vrouwelijk;Rechts;3;32;left;no;200;leftarrow;495;true;focus;yes;564670;Chrome;112.0;macOS;10.15.7;undefined;undefined;1440 x 900;1440 x 900
H040;21;Vrouwelijk;Rechts;3;33;left;no;200;leftarrow;488;true;focus;yes;565926;Chrome;112.0;macOS;10.15.7;undefined;undefined;1440 x 900;1440 x 900
H040;21;Vrouwelijk;Rechts;3;34;right;no;200;rightarrow;545;true;focus;yes;567250;Chrome;112.0;macOS;10.15.7;undefined;undefined;1440 x 900;1440 x 900
H040;21;Vrouwelijk;Rechts;3;35;left;yes;200;undefined;null;true;focus;yes;569266;Chrome;112.0;macOS;10.15.7;undefined;undefined;1440 x 900;1440 x 900
H040;21;Vrouwelijk;Rechts;3;36;left;no;250;leftarrow;444;true;focus;yes;570477;Chrome;112.0;macOS;10.15.7;undefined;undefined;1440 x 900;1440 x 900
H040;21;Vrouwelijk;Rechts;3;37;right;no;250;rightarrow;562;true;focus;yes;571820;Chrome;112.0;macOS;10.15.7;undefined;undefined;1440 x 900;1440 x 900
H040;21;Vrouwelijk;Rechts;3;38;right;yes;250;undefined;null;true;focus;yes;573860;Chrome;112.0;macOS;10.15.7;undefined;undefined;1440 x 900;1440 x 900
H040;21;Vrouwelijk;Rechts;3;39;right;no;300;rightarrow;484;true;focus;yes;575127;Chrome;112.0;macOS;10.15.7;undefined;undefined;1440 x 900;1440 x 900
H040;21;Vrouwelijk;Rechts;3;40;left;no;300;leftarrow;546;true;focus;yes;576440;Chrome;112.0;macOS;10.15.7;undefined;undefined;1440 x 900;1440 x 900
H040;21;Vrouwelijk;Rechts;3;41;left;yes;300;leftarrow;534;false;focus;yes;577748;Chrome;112.0;macOS;10.15.7;undefined;undefined;1440 x 900;1440 x 900
H040;21;Vrouwelijk;Rechts;3;42;left;no;250;leftarrow;535;true;focus;yes;579055;Chrome;112.0;macOS;10.15.7;undefined;undefined;1440 x 900;1440 x 900
H040;21;Vrouwelijk;Rechts;3;43;left;no;250;leftarrow;582;true;focus;yes;580411;Chrome;112.0;macOS;10.15.7;undefined;undefined;1440 x 900;1440 x 900
H040;21;Vrouwelijk;Rechts;3;44;left;no;250;leftarrow;568;true;focus;yes;581742;Chrome;112.0;macOS;10.15.7;undefined;undefined;1440 x 900;1440 x 900
H040;21;Vrouwelijk;Rechts;3;45;right;no;250;rightarrow;581;true;focus;yes;583091;Chrome;112.0;macOS;10.15.7;undefined;undefined;1440 x 900;1440 x 900
H040;21;Vrouwelijk;Rechts;3;46;right;no;250;rightarrow;770;true;focus;yes;584620;Chrome;112.0;macOS;10.15.7;undefined;undefined;1440 x 900;1440 x 900
H040;21;Vrouwelijk;Rechts;3;47;right;yes;250;undefined;null;true;focus;yes;586661;Chrome;112.0;macOS;10.15.7;undefined;undefined;1440 x 900;1440 x 900
H040;21;Vrouwelijk;Rechts;3;48;right;no;300;rightarrow;421;true;focus;yes;587851;Chrome;112.0;macOS;10.15.7;undefined;undefined;1440 x 900;1440 x 900
H040;21;Vrouwelijk;Rechts;3;49;left;no;300;leftarrow;504;true;focus;yes;589114;Chrome;112.0;macOS;10.15.7;undefined;undefined;1440 x 900;1440 x 900
H040;21;Vrouwelijk;Rechts;3;50;right;no;300;rightarrow;540;true;focus;yes;590417;Chrome;112.0;macOS;10.15.7;undefined;undefined;1440 x 900;1440 x 900
H040;21;Vrouwelijk;Rechts;3;51;left;no;300;leftarrow;594;true;focus;yes;591785;Chrome;112.0;macOS;10.15.7;undefined;undefined;1440 x 900;1440 x 900
H040;21;Vrouwelijk;Rechts;3;52;right;no;300;rightarrow;539;true;focus;yes;593099;Chrome;112.0;macOS;10.15.7;undefined;undefined;1440 x 900;1440 x 900
H040;21;Vrouwelijk;Rechts;3;53;right;yes;300;rightarrow;498;false;focus;yes;594359;Chrome;112.0;macOS;10.15.7;undefined;undefined;1440 x 900;1440 x 900
H040;21;Vrouwelijk;Rechts;3;54;left;no;250;leftarrow;561;true;focus;yes;595687;Chrome;112.0;macOS;10.15.7;undefined;undefined;1440 x 900;1440 x 900
H040;21;Vrouwelijk;Rechts;3;55;right;no;250;rightarrow;696;true;focus;yes;597151;Chrome;112.0;macOS;10.15.7;undefined;undefined;1440 x 900;1440 x 900
H040;21;Vrouwelijk;Rechts;3;56;left;yes;250;undefined;null;true;focus;yes;599171;Chrome;112.0;macOS;10.15.7;undefined;undefined;1440 x 900;1440 x 900
H040;21;Vrouwelijk;Rechts;3;57;right;no;300;rightarrow;560;true;focus;yes;600497;Chrome;112.0;macOS;10.15.7;undefined;undefined;1440 x 900;1440 x 900
H040;21;Vrouwelijk;Rechts;3;58;left;yes;300;leftarrow;499;false;focus;yes;601761;Chrome;112.0;macOS;10.15.7;undefined;undefined;1440 x 900;1440 x 900
H040;21;Vrouwelijk;Rechts;3;59;left;no;250;leftarrow;588;true;focus;yes;603112;Chrome;112.0;macOS;10.15.7;undefined;undefined;1440 x 900;1440 x 900
H040;21;Vrouwelijk;Rechts;3;60;left;no;250;leftarrow;544;true;focus;yes;604418;Chrome;112.0;macOS;10.15.7;undefined;undefined;1440 x 900;1440 x 900
H040;21;Vrouwelijk;Rechts;3;61;left;no;250;leftarrow;866;true;focus;yes;606047;Chrome;112.0;macOS;10.15.7;undefined;undefined;1440 x 900;1440 x 900
H040;21;Vrouwelijk;Rechts;3;62;right;no;250;rightarrow;476;true;focus;yes;607300;Chrome;112.0;macOS;10.15.7;undefined;undefined;1440 x 900;1440 x 900
H040;21;Vrouwelijk;Rechts;3;63;right;no;250;rightarrow;510;true;focus;yes;608579;Chrome;112.0;macOS;10.15.7;undefined;undefined;1440 x 900;1440 x 900
H040;21;Vrouwelijk;Rechts;3;64;right;yes;250;undefined;null;true;focus;yes;610602;Chrome;112.0;macOS;10.15.7;undefined;undefined;1440 x 900;1440 x 900
H040;21;Vrouwelijk;Rechts;3;65;right;no;300;rightarrow;551;true;focus;yes;611925;Chrome;112.0;macOS;10.15.7;undefined;undefined;1440 x 900;1440 x 900
H040;21;Vrouwelijk;Rechts;3;66;left;no;300;leftarrow;458;true;focus;yes;613161;Chrome;112.0;macOS;10.15.7;undefined;undefined;1440 x 900;1440 x 900
H040;21;Vrouwelijk;Rechts;3;67;right;no;300;rightarrow;559;true;focus;yes;614493;Chrome;112.0;macOS;10.15.7;undefined;undefined;1440 x 900;1440 x 900
H040;21;Vrouwelijk;Rechts;3;68;left;no;300;leftarrow;705;true;focus;yes;615965;Chrome;112.0;macOS;10.15.7;undefined;undefined;1440 x 900;1440 x 900
H040;21;Vrouwelijk;Rechts;3;69;right;no;300;rightarrow;437;true;focus;yes;617169;Chrome;112.0;macOS;10.15.7;undefined;undefined;1440 x 900;1440 x 900
H040;21;Vrouwelijk;Rechts;3;70;left;no;300;leftarrow;350;true;focus;yes;618282;Chrome;112.0;macOS;10.15.7;undefined;undefined;1440 x 900;1440 x 900
H040;21;Vrouwelijk;Rechts;3;71;left;yes;300;leftarrow;432;false;focus;yes;619492;Chrome;112.0;macOS;10.15.7;undefined;undefined;1440 x 900;1440 x 900
H040;21;Vrouwelijk;Rechts;3;72;right;yes;250;rightarrow;812;false;focus;yes;621079;Chrome;112.0;macOS;10.15.7;undefined;undefined;1440 x 900;1440 x 900
H040;21;Vrouwelijk;Rechts;3;73;right;no;200;rightarrow;748;true;focus;yes;622593;Chrome;112.0;macOS;10.15.7;undefined;undefined;1440 x 900;1440 x 900
H040;21;Vrouwelijk;Rechts;3;74;right;no;200;rightarrow;691;true;focus;yes;624048;Chrome;112.0;macOS;10.15.7;undefined;undefined;1440 x 900;1440 x 900
H040;21;Vrouwelijk;Rechts;3;75;right;no;200;rightarrow;689;true;focus;yes;625502;Chrome;112.0;macOS;10.15.7;undefined;undefined;1440 x 900;1440 x 900
H040;21;Vrouwelijk;Rechts;3;76;left;yes;200;undefined;null;true;focus;yes;627538;Chrome;112.0;macOS;10.15.7;undefined;undefined;1440 x 900;1440 x 900
H040;21;Vrouwelijk;Rechts;3;77;left;no;250;leftarrow;676;true;focus;yes;628995;Chrome;112.0;macOS;10.15.7;undefined;undefined;1440 x 900;1440 x 900
H040;21;Vrouwelijk;Rechts;3;78;right;yes;250;undefined;null;true;focus;yes;631027;Chrome;112.0;macOS;10.15.7;undefined;undefined;1440 x 900;1440 x 900
H040;21;Vrouwelijk;Rechts;3;79;left;no;300;leftarrow;524;true;focus;yes;632321;Chrome;112.0;macOS;10.15.7;undefined;undefined;1440 x 900;1440 x 900
H040;21;Vrouwelijk;Rechts;3;80;left;no;300;leftarrow;576;true;focus;yes;633661;Chrome;112.0;macOS;10.15.7;undefined;undefined;1440 x 900;1440 x 900
H040;21;Vrouwelijk;Rechts;3;81;right;no;300;rightarrow;840;true;focus;yes;635278;Chrome;112.0;macOS;10.15.7;undefined;undefined;1440 x 900;1440 x 900
H040;21;Vrouwelijk;Rechts;3;82;left;no;300;leftarrow;539;true;focus;yes;636582;Chrome;112.0;macOS;10.15.7;undefined;undefined;1440 x 900;1440 x 900
H040;21;Vrouwelijk;Rechts;3;83;right;no;300;rightarrow;569;true;focus;yes;637927;Chrome;112.0;macOS;10.15.7;undefined;undefined;1440 x 900;1440 x 900
H040;21;Vrouwelijk;Rechts;3;84;left;no;300;leftarrow;561;true;focus;yes;639252;Chrome;112.0;macOS;10.15.7;undefined;undefined;1440 x 900;1440 x 900
H040;21;Vrouwelijk;Rechts;3;85;right;no;300;rightarrow;519;true;focus;yes;640539;Chrome;112.0;macOS;10.15.7;undefined;undefined;1440 x 900;1440 x 900
H040;21;Vrouwelijk;Rechts;3;86;right;yes;300;undefined;null;true;focus;yes;642562;Chrome;112.0;macOS;10.15.7;undefined;undefined;1440 x 900;1440 x 900
H040;21;Vrouwelijk;Rechts;3;87;left;no;350;leftarrow;528;true;focus;yes;643863;Chrome;112.0;macOS;10.15.7;undefined;undefined;1440 x 900;1440 x 900
H040;21;Vrouwelijk;Rechts;3;88;left;yes;350;leftarrow;431;false;focus;yes;645059;Chrome;112.0;macOS;10.15.7;undefined;undefined;1440 x 900;1440 x 900
H040;21;Vrouwelijk;Rechts;3;89;left;no;300;leftarrow;578;true;focus;yes;646401;Chrome;112.0;macOS;10.15.7;undefined;undefined;1440 x 900;1440 x 900
H040;21;Vrouwelijk;Rechts;3;90;left;no;300;leftarrow;537;true;focus;yes;647710;Chrome;112.0;macOS;10.15.7;undefined;undefined;1440 x 900;1440 x 900
H040;21;Vrouwelijk;Rechts;3;91;left;yes;300;undefined;null;true;focus;yes;649728;Chrome;112.0;macOS;10.15.7;undefined;undefined;1440 x 900;1440 x 900
H040;21;Vrouwelijk;Rechts;3;92;right;no;350;rightarrow;597;true;focus;yes;651092;Chrome;112.0;macOS;10.15.7;undefined;undefined;1440 x 900;1440 x 900
H040;21;Vrouwelijk;Rechts;3;93;right;yes;350;undefined;null;true;focus;yes;653118;Chrome;112.0;macOS;10.15.7;undefined;undefined;1440 x 900;1440 x 900
H040;21;Vrouwelijk;Rechts;3;94;right;no;400;rightarrow;473;true;focus;yes;654369;Chrome;112.0;macOS;10.15.7;undefined;undefined;1440 x 900;1440 x 900
H040;21;Vrouwelijk;Rechts;3;95;left;no;400;leftarrow;397;true;focus;yes;655545;Chrome;112.0;macOS;10.15.7;undefined;undefined;1440 x 900;1440 x 900
H040;21;Vrouwelijk;Rechts;3;96;right;no;400;rightarrow;576;true;focus;yes;656903;Chrome;112.0;macOS;10.15.7;undefined;undefined;1440 x 900;1440 x 900
H040;21;Vrouwelijk;Rechts;3;97;left;no;400;leftarrow;501;true;focus;yes;658167;Chrome;112.0;macOS;10.15.7;undefined;undefined;1440 x 900;1440 x 900
H040;21;Vrouwelijk;Rechts;3;98;left;no;400;leftarrow;594;true;focus;yes;659525;Chrome;112.0;macOS;10.15.7;undefined;undefined;1440 x 900;1440 x 900
H040;21;Vrouwelijk;Rechts;3;99;left;no;400;leftarrow;573;true;focus;yes;660859;Chrome;112.0;macOS;10.15.7;undefined;undefined;1440 x 900;1440 x 900
H040;21;Vrouwelijk;Rechts;3;100;right;no;400;rightarrow;556;true;focus;yes;662184;Chrome;112.0;macOS;10.15.7;undefined;undefined;1440 x 900;1440 x 900
H040;21;Vrouwelijk;Rechts;3;101;left;yes;400;leftarrow;565;false;focus;yes;663512;Chrome;112.0;macOS;10.15.7;undefined;undefined;1440 x 900;1440 x 900
H040;21;Vrouwelijk;Rechts;3;102;right;no;350;rightarrow;606;true;focus;yes;664888;Chrome;112.0;macOS;10.15.7;undefined;undefined;1440 x 900;1440 x 900
H040;21;Vrouwelijk;Rechts;3;103;right;no;350;rightarrow;712;true;focus;yes;666372;Chrome;112.0;macOS;10.15.7;undefined;undefined;1440 x 900;1440 x 900
H040;21;Vrouwelijk;Rechts;3;104;right;yes;350;undefined;null;true;focus;yes;668410;Chrome;112.0;macOS;10.15.7;undefined;undefined;1440 x 900;1440 x 900
H040;21;Vrouwelijk;Rechts;3;105;right;no;400;rightarrow;627;true;focus;yes;669814;Chrome;112.0;macOS;10.15.7;undefined;undefined;1440 x 900;1440 x 900
H040;21;Vrouwelijk;Rechts;3;106;right;no;400;leftarrow;539;false;focus;yes;671128;Chrome;112.0;macOS;10.15.7;undefined;undefined;1440 x 900;1440 x 900
H040;21;Vrouwelijk;Rechts;3;107;left;no;400;leftarrow;572;true;focus;yes;672480;Chrome;112.0;macOS;10.15.7;undefined;undefined;1440 x 900;1440 x 900
H040;21;Vrouwelijk;Rechts;3;108;right;yes;400;rightarrow;596;false;focus;yes;673849;Chrome;112.0;macOS;10.15.7;undefined;undefined;1440 x 900;1440 x 900
H040;21;Vrouwelijk;Rechts;3;109;left;yes;350;undefined;null;true;focus;yes;675889;Chrome;112.0;macOS;10.15.7;undefined;undefined;1440 x 900;1440 x 900
H040;21;Vrouwelijk;Rechts;3;110;right;no;400;rightarrow;549;true;focus;yes;677219;Chrome;112.0;macOS;10.15.7;undefined;undefined;1440 x 900;1440 x 900
H040;21;Vrouwelijk;Rechts;3;111;left;no;400;leftarrow;548;true;focus;yes;678536;Chrome;112.0;macOS;10.15.7;undefined;undefined;1440 x 900;1440 x 900
H040;21;Vrouwelijk;Rechts;3;112;left;no;400;leftarrow;518;true;focus;yes;679825;Chrome;112.0;macOS;10.15.7;undefined;undefined;1440 x 900;1440 x 900
H040;21;Vrouwelijk;Rechts;3;113;right;yes;400;rightarrow;598;false;focus;yes;681193;Chrome;112.0;macOS;10.15.7;undefined;undefined;1440 x 900;1440 x 900
H040;21;Vrouwelijk;Rechts;3;114;left;no;350;leftarrow;537;true;focus;yes;682509;Chrome;112.0;macOS;10.15.7;undefined;undefined;1440 x 900;1440 x 900
H040;21;Vrouwelijk;Rechts;3;115;left;no;350;leftarrow;483;true;focus;yes;683756;Chrome;112.0;macOS;10.15.7;undefined;undefined;1440 x 900;1440 x 900
H040;21;Vrouwelijk;Rechts;3;116;left;no;350;leftarrow;447;true;focus;yes;684977;Chrome;112.0;macOS;10.15.7;undefined;undefined;1440 x 900;1440 x 900
H040;21;Vrouwelijk;Rechts;3;117;right;no;350;rightarrow;651;true;focus;yes;686404;Chrome;112.0;macOS;10.15.7;undefined;undefined;1440 x 900;1440 x 900
H040;21;Vrouwelijk;Rechts;3;118;right;no;350;rightarrow;490;true;focus;yes;687659;Chrome;112.0;macOS;10.15.7;undefined;undefined;1440 x 900;1440 x 900
H040;21;Vrouwelijk;Rechts;3;119;left;yes;350;undefined;null;true;focus;yes;689677;Chrome;112.0;macOS;10.15.7;undefined;undefined;1440 x 900;1440 x 900
H040;21;Vrouwelijk;Rechts;3;120;right;no;400;rightarrow;443;true;focus;yes;690896;Chrome;112.0;macOS;10.15.7;undefined;undefined;1440 x 900;1440 x 900
H040;21;Vrouwelijk;Rechts;3;121;left;no;400;leftarrow;628;true;focus;yes;692293;Chrome;112.0;macOS;10.15.7;undefined;undefined;1440 x 900;1440 x 900
H040;21;Vrouwelijk;Rechts;3;122;right;no;400;rightarrow;552;true;focus;yes;693609;Chrome;112.0;macOS;10.15.7;undefined;undefined;1440 x 900;1440 x 900
H040;21;Vrouwelijk;Rechts;3;123;left;no;400;leftarrow;1077;true;focus;yes;695456;Chrome;112.0;macOS;10.15.7;undefined;undefined;1440 x 900;1440 x 900
H040;21;Vrouwelijk;Rechts;3;124;right;no;400;rightarrow;401;true;focus;yes;696626;Chrome;112.0;macOS;10.15.7;undefined;undefined;1440 x 900;1440 x 900
H040;21;Vrouwelijk;Rechts;3;125;right;no;400;rightarrow;435;true;focus;yes;697828;Chrome;112.0;macOS;10.15.7;undefined;undefined;1440 x 900;1440 x 900
H040;21;Vrouwelijk;Rechts;3;126;left;yes;400;leftarrow;388;false;focus;yes;698991;Chrome;112.0;macOS;10.15.7;undefined;undefined;1440 x 900;1440 x 900
H040;21;Vrouwelijk;Rechts;3;127;left;no;350;leftarrow;421;true;focus;yes;700184;Chrome;112.0;macOS;10.15.7;undefined;undefined;1440 x 900;1440 x 900
H040;21;Vrouwelijk;Rechts;3;128;right;yes;350;rightarrow;365;false;focus;yes;701318;Chrome;112.0;macOS;10.15.7;undefined;undefined;1440 x 900;1440 x 900
H040;21;Vrouwelijk;Rechts;4;1;left;yes;300;leftarrow;485;false;focus;yes;721079;Chrome;112.0;macOS;10.15.7;undefined;undefined;1440 x 900;1440 x 900
H040;21;Vrouwelijk;Rechts;4;2;left;no;250;leftarrow;454;true;focus;yes;722311;Chrome;112.0;macOS;10.15.7;undefined;undefined;1440 x 900;1440 x 900
H040;21;Vrouwelijk;Rechts;4;3;right;no;250;rightarrow;478;true;focus;yes;723569;Chrome;112.0;macOS;10.15.7;undefined;undefined;1440 x 900;1440 x 900
H040;21;Vrouwelijk;Rechts;4;4;left;no;250;leftarrow;491;true;focus;yes;724826;Chrome;112.0;macOS;10.15.7;undefined;undefined;1440 x 900;1440 x 900
H040;21;Vrouwelijk;Rechts;4;5;right;no;250;rightarrow;434;true;focus;yes;726022;Chrome;112.0;macOS;10.15.7;undefined;undefined;1440 x 900;1440 x 900
H040;21;Vrouwelijk;Rechts;4;6;right;yes;250;undefined;null;true;focus;yes;728060;Chrome;112.0;macOS;10.15.7;undefined;undefined;1440 x 900;1440 x 900
H040;21;Vrouwelijk;Rechts;4;7;left;no;300;leftarrow;656;true;focus;yes;729489;Chrome;112.0;macOS;10.15.7;undefined;undefined;1440 x 900;1440 x 900
H040;21;Vrouwelijk;Rechts;4;8;right;no;300;rightarrow;601;true;focus;yes;730868;Chrome;112.0;macOS;10.15.7;undefined;undefined;1440 x 900;1440 x 900
H040;21;Vrouwelijk;Rechts;4;9;left;no;300;leftarrow;409;true;focus;yes;732042;Chrome;112.0;macOS;10.15.7;undefined;undefined;1440 x 900;1440 x 900
H040;21;Vrouwelijk;Rechts;4;10;right;no;300;rightarrow;596;true;focus;yes;733404;Chrome;112.0;macOS;10.15.7;undefined;undefined;1440 x 900;1440 x 900
H040;21;Vrouwelijk;Rechts;4;11;right;no;300;rightarrow;410;true;focus;yes;734578;Chrome;112.0;macOS;10.15.7;undefined;undefined;1440 x 900;1440 x 900
H040;21;Vrouwelijk;Rechts;4;12;right;no;300;rightarrow;356;true;focus;yes;735699;Chrome;112.0;macOS;10.15.7;undefined;undefined;1440 x 900;1440 x 900
H040;21;Vrouwelijk;Rechts;4;13;left;no;300;leftarrow;313;true;focus;yes;736786;Chrome;112.0;macOS;10.15.7;undefined;undefined;1440 x 900;1440 x 900
H040;21;Vrouwelijk;Rechts;4;14;left;no;300;leftarrow;404;true;focus;yes;737963;Chrome;112.0;macOS;10.15.7;undefined;undefined;1440 x 900;1440 x 900
H040;21;Vrouwelijk;Rechts;4;15;left;yes;300;undefined;null;true;focus;yes;739980;Chrome;112.0;macOS;10.15.7;undefined;undefined;1440 x 900;1440 x 900
H040;21;Vrouwelijk;Rechts;4;16;right;yes;350;rightarrow;346;false;focus;yes;741089;Chrome;112.0;macOS;10.15.7;undefined;undefined;1440 x 900;1440 x 900
H040;21;Vrouwelijk;Rechts;4;17;right;no;300;rightarrow;427;true;focus;yes;742282;Chrome;112.0;macOS;10.15.7;undefined;undefined;1440 x 900;1440 x 900
H040;21;Vrouwelijk;Rechts;4;18;left;no;300;leftarrow;363;true;focus;yes;743409;Chrome;112.0;macOS;10.15.7;undefined;undefined;1440 x 900;1440 x 900
H040;21;Vrouwelijk;Rechts;4;19;left;no;300;leftarrow;420;true;focus;yes;744590;Chrome;112.0;macOS;10.15.7;undefined;undefined;1440 x 900;1440 x 900
H040;21;Vrouwelijk;Rechts;4;20;left;yes;300;leftarrow;415;false;focus;yes;745775;Chrome;112.0;macOS;10.15.7;undefined;undefined;1440 x 900;1440 x 900
H040;21;Vrouwelijk;Rechts;4;21;left;no;250;leftarrow;465;true;focus;yes;747004;Chrome;112.0;macOS;10.15.7;undefined;undefined;1440 x 900;1440 x 900
H040;21;Vrouwelijk;Rechts;4;22;right;no;250;rightarrow;625;true;focus;yes;748408;Chrome;112.0;macOS;10.15.7;undefined;undefined;1440 x 900;1440 x 900
H040;21;Vrouwelijk;Rechts;4;23;right;no;250;rightarrow;448;true;focus;yes;749623;Chrome;112.0;macOS;10.15.7;undefined;undefined;1440 x 900;1440 x 900
H040;21;Vrouwelijk;Rechts;4;24;right;yes;250;undefined;null;true;focus;yes;751649;Chrome;112.0;macOS;10.15.7;undefined;undefined;1440 x 900;1440 x 900
H040;21;Vrouwelijk;Rechts;4;25;left;no;300;leftarrow;363;true;focus;yes;752786;Chrome;112.0;macOS;10.15.7;undefined;undefined;1440 x 900;1440 x 900
H040;21;Vrouwelijk;Rechts;4;26;right;yes;300;rightarrow;390;false;focus;yes;753952;Chrome;112.0;macOS;10.15.7;undefined;undefined;1440 x 900;1440 x 900
H040;21;Vrouwelijk;Rechts;4;27;left;no;250;leftarrow;388;true;focus;yes;755107;Chrome;112.0;macOS;10.15.7;undefined;undefined;1440 x 900;1440 x 900
H040;21;Vrouwelijk;Rechts;4;28;right;no;250;rightarrow;345;true;focus;yes;756216;Chrome;112.0;macOS;10.15.7;undefined;undefined;1440 x 900;1440 x 900
H040;21;Vrouwelijk;Rechts;4;29;left;no;250;leftarrow;353;true;focus;yes;757336;Chrome;112.0;macOS;10.15.7;undefined;undefined;1440 x 900;1440 x 900
H040;21;Vrouwelijk;Rechts;4;30;right;no;250;rightarrow;671;true;focus;yes;758774;Chrome;112.0;macOS;10.15.7;undefined;undefined;1440 x 900;1440 x 900
H040;21;Vrouwelijk;Rechts;4;31;left;yes;250;leftarrow;319;false;focus;yes;759858;Chrome;112.0;macOS;10.15.7;undefined;undefined;1440 x 900;1440 x 900
H040;21;Vrouwelijk;Rechts;4;32;right;no;200;rightarrow;375;true;focus;yes;760994;Chrome;112.0;macOS;10.15.7;undefined;undefined;1440 x 900;1440 x 900
H040;21;Vrouwelijk;Rechts;4;33;right;no;200;rightarrow;571;true;focus;yes;762329;Chrome;112.0;macOS;10.15.7;undefined;undefined;1440 x 900;1440 x 900
H040;21;Vrouwelijk;Rechts;4;34;left;no;200;leftarrow;361;true;focus;yes;763448;Chrome;112.0;macOS;10.15.7;undefined;undefined;1440 x 900;1440 x 900
H040;21;Vrouwelijk;Rechts;4;35;left;yes;200;undefined;null;true;focus;yes;765467;Chrome;112.0;macOS;10.15.7;undefined;undefined;1440 x 900;1440 x 900
H040;21;Vrouwelijk;Rechts;4;36;right;no;250;rightarrow;353;true;focus;yes;766595;Chrome;112.0;macOS;10.15.7;undefined;undefined;1440 x 900;1440 x 900
H040;21;Vrouwelijk;Rechts;4;37;right;yes;250;rightarrow;482;false;focus;yes;767840;Chrome;112.0;macOS;10.15.7;undefined;undefined;1440 x 900;1440 x 900
H040;21;Vrouwelijk;Rechts;4;38;right;no;200;rightarrow;545;true;focus;yes;769151;Chrome;112.0;macOS;10.15.7;undefined;undefined;1440 x 900;1440 x 900
H040;21;Vrouwelijk;Rechts;4;39;left;no;200;leftarrow;330;true;focus;yes;770258;Chrome;112.0;macOS;10.15.7;undefined;undefined;1440 x 900;1440 x 900
H040;21;Vrouwelijk;Rechts;4;40;left;no;200;leftarrow;436;true;focus;yes;771458;Chrome;112.0;macOS;10.15.7;undefined;undefined;1440 x 900;1440 x 900
H040;21;Vrouwelijk;Rechts;4;41;left;no;200;leftarrow;383;true;focus;yes;772613;Chrome;112.0;macOS;10.15.7;undefined;undefined;1440 x 900;1440 x 900
H040;21;Vrouwelijk;Rechts;4;42;right;no;200;rightarrow;397;true;focus;yes;773788;Chrome;112.0;macOS;10.15.7;undefined;undefined;1440 x 900;1440 x 900
H040;21;Vrouwelijk;Rechts;4;43;right;no;200;rightarrow;394;true;focus;yes;774953;Chrome;112.0;macOS;10.15.7;undefined;undefined;1440 x 900;1440 x 900
H040;21;Vrouwelijk;Rechts;4;44;right;yes;200;undefined;null;true;focus;yes;776977;Chrome;112.0;macOS;10.15.7;undefined;undefined;1440 x 900;1440 x 900
H040;21;Vrouwelijk;Rechts;4;45;left;yes;250;leftarrow;346;false;focus;yes;778098;Chrome;112.0;macOS;10.15.7;undefined;undefined;1440 x 900;1440 x 900
H040;21;Vrouwelijk;Rechts;4;46;right;no;200;rightarrow;368;true;focus;yes;779238;Chrome;112.0;macOS;10.15.7;undefined;undefined;1440 x 900;1440 x 900
H040;21;Vrouwelijk;Rechts;4;47;left;no;200;leftarrow;400;true;focus;yes;780406;Chrome;112.0;macOS;10.15.7;undefined;undefined;1440 x 900;1440 x 900
H040;21;Vrouwelijk;Rechts;4;48;left;no;200;leftarrow;451;true;focus;yes;781625;Chrome;112.0;macOS;10.15.7;undefined;undefined;1440 x 900;1440 x 900
H040;21;Vrouwelijk;Rechts;4;49;right;no;200;rightarrow;486;true;focus;yes;782876;Chrome;112.0;macOS;10.15.7;undefined;undefined;1440 x 900;1440 x 900
H040;21;Vrouwelijk;Rechts;4;50;left;no;200;leftarrow;400;true;focus;yes;784055;Chrome;112.0;macOS;10.15.7;undefined;undefined;1440 x 900;1440 x 900
H040;21;Vrouwelijk;Rechts;4;51;right;no;200;rightarrow;311;true;focus;yes;785132;Chrome;112.0;macOS;10.15.7;undefined;undefined;1440 x 900;1440 x 900
H040;21;Vrouwelijk;Rechts;4;52;left;no;200;leftarrow;316;true;focus;yes;786225;Chrome;112.0;macOS;10.15.7;undefined;undefined;1440 x 900;1440 x 900
H040;21;Vrouwelijk;Rechts;4;53;right;no;200;rightarrow;318;true;focus;yes;787307;Chrome;112.0;macOS;10.15.7;undefined;undefined;1440 x 900;1440 x 900
H040;21;Vrouwelijk;Rechts;4;54;left;yes;200;undefined;null;true;focus;yes;789340;Chrome;112.0;macOS;10.15.7;undefined;undefined;1440 x 900;1440 x 900
H040;21;Vrouwelijk;Rechts;4;55;left;no;250;leftarrow;441;true;focus;yes;790554;Chrome;112.0;macOS;10.15.7;undefined;undefined;1440 x 900;1440 x 900
H040;21;Vrouwelijk;Rechts;4;56;right;yes;250;rightarrow;371;false;focus;yes;791695;Chrome;112.0;macOS;10.15.7;undefined;undefined;1440 x 900;1440 x 900
H040;21;Vrouwelijk;Rechts;4;57;left;no;200;leftarrow;350;true;focus;yes;792811;Chrome;112.0;macOS;10.15.7;undefined;undefined;1440 x 900;1440 x 900
H040;21;Vrouwelijk;Rechts;4;58;right;no;200;rightarrow;360;true;focus;yes;793951;Chrome;112.0;macOS;10.15.7;undefined;undefined;1440 x 900;1440 x 900
H040;21;Vrouwelijk;Rechts;4;59;right;yes;200;undefined;null;true;focus;yes;795977;Chrome;112.0;macOS;10.15.7;undefined;undefined;1440 x 900;1440 x 900
H040;21;Vrouwelijk;Rechts;4;60;left;no;250;leftarrow;394;true;focus;yes;797143;Chrome;112.0;macOS;10.15.7;undefined;undefined;1440 x 900;1440 x 900
H040;21;Vrouwelijk;Rechts;4;61;right;no;250;rightarrow;315;true;focus;yes;798230;Chrome;112.0;macOS;10.15.7;undefined;undefined;1440 x 900;1440 x 900
H040;21;Vrouwelijk;Rechts;4;62;left;no;250;leftarrow;325;true;focus;yes;799322;Chrome;112.0;macOS;10.15.7;undefined;undefined;1440 x 900;1440 x 900
H040;21;Vrouwelijk;Rechts;4;63;right;no;250;rightarrow;302;true;focus;yes;800397;Chrome;112.0;macOS;10.15.7;undefined;undefined;1440 x 900;1440 x 900
H040;21;Vrouwelijk;Rechts;4;64;left;yes;250;leftarrow;346;false;focus;yes;801510;Chrome;112.0;macOS;10.15.7;undefined;undefined;1440 x 900;1440 x 900
H040;21;Vrouwelijk;Rechts;4;65;left;yes;200;undefined;null;true;focus;yes;803531;Chrome;112.0;macOS;10.15.7;undefined;undefined;1440 x 900;1440 x 900
H040;21;Vrouwelijk;Rechts;4;66;right;no;250;rightarrow;382;true;focus;yes;804682;Chrome;112.0;macOS;10.15.7;undefined;undefined;1440 x 900;1440 x 900
H040;21;Vrouwelijk;Rechts;4;67;right;no;250;rightarrow;539;true;focus;yes;806003;Chrome;112.0;macOS;10.15.7;undefined;undefined;1440 x 900;1440 x 900
H040;21;Vrouwelijk;Rechts;4;68;left;no;250;leftarrow;358;true;focus;yes;807140;Chrome;112.0;macOS;10.15.7;undefined;undefined;1440 x 900;1440 x 900
H040;21;Vrouwelijk;Rechts;4;69;left;no;250;leftarrow;371;true;focus;yes;808278;Chrome;112.0;macOS;10.15.7;undefined;undefined;1440 x 900;1440 x 900
H040;21;Vrouwelijk;Rechts;4;70;left;no;250;leftarrow;355;true;focus;yes;809396;Chrome;112.0;macOS;10.15.7;undefined;undefined;1440 x 900;1440 x 900
H040;21;Vrouwelijk;Rechts;4;71;right;no;250;rightarrow;431;true;focus;yes;810595;Chrome;112.0;macOS;10.15.7;undefined;undefined;1440 x 900;1440 x 900
H040;21;Vrouwelijk;Rechts;4;72;right;yes;250;leftarrow;263;false;focus;yes;811628;Chrome;112.0;macOS;10.15.7;undefined;undefined;1440 x 900;1440 x 900
H040;21;Vrouwelijk;Rechts;4;73;left;no;200;leftarrow;405;true;focus;yes;812802;Chrome;112.0;macOS;10.15.7;undefined;undefined;1440 x 900;1440 x 900
H040;21;Vrouwelijk;Rechts;4;74;left;no;200;leftarrow;403;true;focus;yes;813978;Chrome;112.0;macOS;10.15.7;undefined;undefined;1440 x 900;1440 x 900
H040;21;Vrouwelijk;Rechts;4;75;right;no;200;rightarrow;522;true;focus;yes;815273;Chrome;112.0;macOS;10.15.7;undefined;undefined;1440 x 900;1440 x 900
H040;21;Vrouwelijk;Rechts;4;76;right;no;200;rightarrow;710;true;focus;yes;816756;Chrome;112.0;macOS;10.15.7;undefined;undefined;1440 x 900;1440 x 900
H040;21;Vrouwelijk;Rechts;4;77;right;no;200;rightarrow;374;true;focus;yes;817899;Chrome;112.0;macOS;10.15.7;undefined;undefined;1440 x 900;1440 x 900
H040;21;Vrouwelijk;Rechts;4;78;right;yes;200;undefined;null;true;focus;yes;819928;Chrome;112.0;macOS;10.15.7;undefined;undefined;1440 x 900;1440 x 900
H040;21;Vrouwelijk;Rechts;4;79;left;yes;250;leftarrow;314;false;focus;yes;821025;Chrome;112.0;macOS;10.15.7;undefined;undefined;1440 x 900;1440 x 900
H040;21;Vrouwelijk;Rechts;4;80;left;no;200;leftarrow;415;true;focus;yes;822224;Chrome;112.0;macOS;10.15.7;undefined;undefined;1440 x 900;1440 x 900
H040;21;Vrouwelijk;Rechts;4;81;right;no;200;rightarrow;370;true;focus;yes;823359;Chrome;112.0;macOS;10.15.7;undefined;undefined;1440 x 900;1440 x 900
H040;21;Vrouwelijk;Rechts;4;82;left;no;200;leftarrow;342;true;focus;yes;824464;Chrome;112.0;macOS;10.15.7;undefined;undefined;1440 x 900;1440 x 900
H040;21;Vrouwelijk;Rechts;4;83;right;yes;200;rightarrow;297;false;focus;yes;825543;Chrome;112.0;macOS;10.15.7;undefined;undefined;1440 x 900;1440 x 900
H040;21;Vrouwelijk;Rechts;4;84;left;no;150;leftarrow;401;true;focus;yes;826707;Chrome;112.0;macOS;10.15.7;undefined;undefined;1440 x 900;1440 x 900
H040;21;Vrouwelijk;Rechts;4;85;right;no;150;rightarrow;343;true;focus;yes;827814;Chrome;112.0;macOS;10.15.7;undefined;undefined;1440 x 900;1440 x 900
H040;21;Vrouwelijk;Rechts;4;86;left;yes;150;leftarrow;344;false;focus;yes;828924;Chrome;112.0;macOS;10.15.7;undefined;undefined;1440 x 900;1440 x 900
H040;21;Vrouwelijk;Rechts;4;87;right;no;100;rightarrow;366;true;focus;yes;830057;Chrome;112.0;macOS;10.15.7;undefined;undefined;1440 x 900;1440 x 900
H040;21;Vrouwelijk;Rechts;4;88;left;no;100;leftarrow;362;true;focus;yes;831190;Chrome;112.0;macOS;10.15.7;undefined;undefined;1440 x 900;1440 x 900
H040;21;Vrouwelijk;Rechts;4;89;right;no;100;rightarrow;464;true;focus;yes;832429;Chrome;112.0;macOS;10.15.7;undefined;undefined;1440 x 900;1440 x 900
H040;21;Vrouwelijk;Rechts;4;90;left;no;100;leftarrow;380;true;focus;yes;833575;Chrome;112.0;macOS;10.15.7;undefined;undefined;1440 x 900;1440 x 900
H040;21;Vrouwelijk;Rechts;4;91;left;no;100;leftarrow;575;true;focus;yes;834914;Chrome;112.0;macOS;10.15.7;undefined;undefined;1440 x 900;1440 x 900
H040;21;Vrouwelijk;Rechts;4;92;right;no;100;rightarrow;413;true;focus;yes;836096;Chrome;112.0;macOS;10.15.7;undefined;undefined;1440 x 900;1440 x 900
H040;21;Vrouwelijk;Rechts;4;93;left;no;100;leftarrow;316;true;focus;yes;837185;Chrome;112.0;macOS;10.15.7;undefined;undefined;1440 x 900;1440 x 900
H040;21;Vrouwelijk;Rechts;4;94;right;no;100;rightarrow;412;true;focus;yes;838380;Chrome;112.0;macOS;10.15.7;undefined;undefined;1440 x 900;1440 x 900
H040;21;Vrouwelijk;Rechts;4;95;left;yes;100;leftarrow;324;false;focus;yes;839471;Chrome;112.0;macOS;10.15.7;undefined;undefined;1440 x 900;1440 x 900
H040;21;Vrouwelijk;Rechts;4;96;right;yes;50;undefined;null;true;focus;yes;841497;Chrome;112.0;macOS;10.15.7;undefined;undefined;1440 x 900;1440 x 900
H040;21;Vrouwelijk;Rechts;4;97;left;no;100;leftarrow;332;true;focus;yes;842599;Chrome;112.0;macOS;10.15.7;undefined;undefined;1440 x 900;1440 x 900
H040;21;Vrouwelijk;Rechts;4;98;right;no;100;rightarrow;528;true;focus;yes;843900;Chrome;112.0;macOS;10.15.7;undefined;undefined;1440 x 900;1440 x 900
H040;21;Vrouwelijk;Rechts;4;99;left;yes;100;leftarrow;326;false;focus;yes;844993;Chrome;112.0;macOS;10.15.7;undefined;undefined;1440 x 900;1440 x 900
H040;21;Vrouwelijk;Rechts;4;100;left;no;50;leftarrow;580;true;focus;yes;846343;Chrome;112.0;macOS;10.15.7;undefined;undefined;1440 x 900;1440 x 900
H040;21;Vrouwelijk;Rechts;4;101;right;no;50;rightarrow;340;true;focus;yes;847457;Chrome;112.0;macOS;10.15.7;undefined;undefined;1440 x 900;1440 x 900
H040;21;Vrouwelijk;Rechts;4;102;right;yes;50;undefined;null;true;focus;yes;849494;Chrome;112.0;macOS;10.15.7;undefined;undefined;1440 x 900;1440 x 900
H040;21;Vrouwelijk;Rechts;4;103;right;no;100;rightarrow;410;true;focus;yes;850680;Chrome;112.0;macOS;10.15.7;undefined;undefined;1440 x 900;1440 x 900
H040;21;Vrouwelijk;Rechts;4;104;left;no;100;leftarrow;299;true;focus;yes;851760;Chrome;112.0;macOS;10.15.7;undefined;undefined;1440 x 900;1440 x 900
H040;21;Vrouwelijk;Rechts;4;105;right;no;100;rightarrow;318;true;focus;yes;852857;Chrome;112.0;macOS;10.15.7;undefined;undefined;1440 x 900;1440 x 900
H040;21;Vrouwelijk;Rechts;4;106;right;yes;100;undefined;null;true;focus;yes;854889;Chrome;112.0;macOS;10.15.7;undefined;undefined;1440 x 900;1440 x 900
H040;21;Vrouwelijk;Rechts;4;107;left;no;150;leftarrow;373;true;focus;yes;856033;Chrome;112.0;macOS;10.15.7;undefined;undefined;1440 x 900;1440 x 900
H040;21;Vrouwelijk;Rechts;4;108;right;no;150;rightarrow;418;true;focus;yes;857231;Chrome;112.0;macOS;10.15.7;undefined;undefined;1440 x 900;1440 x 900
H040;21;Vrouwelijk;Rechts;4;109;left;no;150;leftarrow;372;true;focus;yes;858386;Chrome;112.0;macOS;10.15.7;undefined;undefined;1440 x 900;1440 x 900
H040;21;Vrouwelijk;Rechts;4;110;right;no;150;rightarrow;351;true;focus;yes;859515;Chrome;112.0;macOS;10.15.7;undefined;undefined;1440 x 900;1440 x 900
H040;21;Vrouwelijk;Rechts;4;111;left;yes;150;leftarrow;368;false;focus;yes;860651;Chrome;112.0;macOS;10.15.7;undefined;undefined;1440 x 900;1440 x 900
H040;21;Vrouwelijk;Rechts;4;112;left;no;100;leftarrow;434;true;focus;yes;861852;Chrome;112.0;macOS;10.15.7;undefined;undefined;1440 x 900;1440 x 900
H040;21;Vrouwelijk;Rechts;4;113;left;no;100;leftarrow;433;true;focus;yes;863052;Chrome;112.0;macOS;10.15.7;undefined;undefined;1440 x 900;1440 x 900
H040;21;Vrouwelijk;Rechts;4;114;right;no;100;rightarrow;381;true;focus;yes;864209;Chrome;112.0;macOS;10.15.7;undefined;undefined;1440 x 900;1440 x 900
H040;21;Vrouwelijk;Rechts;4;115;right;yes;100;undefined;null;true;focus;yes;866236;Chrome;112.0;macOS;10.15.7;undefined;undefined;1440 x 900;1440 x 900
H040;21;Vrouwelijk;Rechts;4;116;right;no;150;rightarrow;452;true;focus;yes;867463;Chrome;112.0;macOS;10.15.7;undefined;undefined;1440 x 900;1440 x 900
H040;21;Vrouwelijk;Rechts;4;117;left;no;150;leftarrow;355;true;focus;yes;868600;Chrome;112.0;macOS;10.15.7;undefined;undefined;1440 x 900;1440 x 900
H040;21;Vrouwelijk;Rechts;4;118;left;yes;150;leftarrow;414;false;focus;yes;869784;Chrome;112.0;macOS;10.15.7;undefined;undefined;1440 x 900;1440 x 900
H040;21;Vrouwelijk;Rechts;4;119;left;no;100;leftarrow;430;true;focus;yes;870994;Chrome;112.0;macOS;10.15.7;undefined;undefined;1440 x 900;1440 x 900
H040;21;Vrouwelijk;Rechts;4;120;right;no;100;rightarrow;416;true;focus;yes;872185;Chrome;112.0;macOS;10.15.7;undefined;undefined;1440 x 900;1440 x 900
H040;21;Vrouwelijk;Rechts;4;121;left;no;100;leftarrow;355;true;focus;yes;873305;Chrome;112.0;macOS;10.15.7;undefined;undefined;1440 x 900;1440 x 900
H040;21;Vrouwelijk;Rechts;4;122;right;no;100;rightarrow;443;true;focus;yes;874518;Chrome;112.0;macOS;10.15.7;undefined;undefined;1440 x 900;1440 x 900
H040;21;Vrouwelijk;Rechts;4;123;left;no;100;leftarrow;403;true;focus;yes;875694;Chrome;112.0;macOS;10.15.7;undefined;undefined;1440 x 900;1440 x 900
H040;21;Vrouwelijk;Rechts;4;124;right;no;100;rightarrow;586;true;focus;yes;877063;Chrome;112.0;macOS;10.15.7;undefined;undefined;1440 x 900;1440 x 900
H040;21;Vrouwelijk;Rechts;4;125;left;no;100;leftarrow;372;true;focus;yes;878205;Chrome;112.0;macOS;10.15.7;undefined;undefined;1440 x 900;1440 x 900
H040;21;Vrouwelijk;Rechts;4;126;right;no;100;rightarrow;356;true;focus;yes;879324;Chrome;112.0;macOS;10.15.7;undefined;undefined;1440 x 900;1440 x 900
H040;21;Vrouwelijk;Rechts;4;127;left;yes;100;leftarrow;326;false;focus;yes;880426;Chrome;112.0;macOS;10.15.7;undefined;undefined;1440 x 900;1440 x 900
H040;21;Vrouwelijk;Rechts;4;128;right;yes;50;undefined;null;true;focus;yes;882456;Chrome;112.0;macOS;10.15.7;undefined;undefined;1440 x 900;1440 x 900
H040;21;Vrouwelijk;Rechts;5;1;right;no;100;rightarrow;395;true;focus;yes;901553;Chrome;112.0;macOS;10.15.7;undefined;undefined;1440 x 900;1440 x 900
H040;21;Vrouwelijk;Rechts;5;2;left;yes;100;leftarrow;352;false;focus;yes;902672;Chrome;112.0;macOS;10.15.7;undefined;undefined;1440 x 900;1440 x 900
H040;21;Vrouwelijk;Rechts;5;3;right;no;50;rightarrow;405;true;focus;yes;903846;Chrome;112.0;macOS;10.15.7;undefined;undefined;1440 x 900;1440 x 900
H040;21;Vrouwelijk;Rechts;5;4;right;yes;50;undefined;null;true;focus;yes;905875;Chrome;112.0;macOS;10.15.7;undefined;undefined;1440 x 900;1440 x 900
H040;21;Vrouwelijk;Rechts;5;5;left;no;100;leftarrow;353;true;focus;yes;907006;Chrome;112.0;macOS;10.15.7;undefined;undefined;1440 x 900;1440 x 900
H040;21;Vrouwelijk;Rechts;5;6;left;no;100;leftarrow;358;true;focus;yes;908147;Chrome;112.0;macOS;10.15.7;undefined;undefined;1440 x 900;1440 x 900
H040;21;Vrouwelijk;Rechts;5;7;right;no;100;rightarrow;408;true;focus;yes;909327;Chrome;112.0;macOS;10.15.7;undefined;undefined;1440 x 900;1440 x 900
H040;21;Vrouwelijk;Rechts;5;8;left;no;100;leftarrow;414;true;focus;yes;910512;Chrome;112.0;macOS;10.15.7;undefined;undefined;1440 x 900;1440 x 900
H040;21;Vrouwelijk;Rechts;5;9;left;yes;100;undefined;null;true;focus;yes;912538;Chrome;112.0;macOS;10.15.7;undefined;undefined;1440 x 900;1440 x 900
H040;21;Vrouwelijk;Rechts;5;10;right;no;150;rightarrow;435;true;focus;yes;913740;Chrome;112.0;macOS;10.15.7;undefined;undefined;1440 x 900;1440 x 900
H040;21;Vrouwelijk;Rechts;5;11;right;yes;150;undefined;null;true;focus;yes;915774;Chrome;112.0;macOS;10.15.7;undefined;undefined;1440 x 900;1440 x 900
H040;21;Vrouwelijk;Rechts;5;12;right;no;200;rightarrow;549;true;focus;yes;917104;Chrome;112.0;macOS;10.15.7;undefined;undefined;1440 x 900;1440 x 900
H040;21;Vrouwelijk;Rechts;5;13;left;no;200;leftarrow;288;true;focus;yes;918167;Chrome;112.0;macOS;10.15.7;undefined;undefined;1440 x 900;1440 x 900
H040;21;Vrouwelijk;Rechts;5;14;left;no;200;leftarrow;460;true;focus;yes;919395;Chrome;112.0;macOS;10.15.7;undefined;undefined;1440 x 900;1440 x 900
H040;21;Vrouwelijk;Rechts;5;15;left;no;200;leftarrow;381;true;focus;yes;920540;Chrome;112.0;macOS;10.15.7;undefined;undefined;1440 x 900;1440 x 900
H040;21;Vrouwelijk;Rechts;5;16;right;no;200;rightarrow;408;true;focus;yes;921730;Chrome;112.0;macOS;10.15.7;undefined;undefined;1440 x 900;1440 x 900
H040;21;Vrouwelijk;Rechts;5;17;left;no;200;leftarrow;342;true;focus;yes;922844;Chrome;112.0;macOS;10.15.7;undefined;undefined;1440 x 900;1440 x 900
H040;21;Vrouwelijk;Rechts;5;18;left;yes;200;leftarrow;396;false;focus;yes;924010;Chrome;112.0;macOS;10.15.7;undefined;undefined;1440 x 900;1440 x 900
H040;21;Vrouwelijk;Rechts;5;19;right;no;150;rightarrow;492;true;focus;yes;925267;Chrome;112.0;macOS;10.15.7;undefined;undefined;1440 x 900;1440 x 900
H040;21;Vrouwelijk;Rechts;5;20;right;no;150;rightarrow;463;true;focus;yes;926510;Chrome;112.0;macOS;10.15.7;undefined;undefined;1440 x 900;1440 x 900
H040;21;Vrouwelijk;Rechts;5;21;left;no;150;leftarrow;626;true;focus;yes;927905;Chrome;112.0;macOS;10.15.7;undefined;undefined;1440 x 900;1440 x 900
H040;21;Vrouwelijk;Rechts;5;22;right;no;150;rightarrow;428;true;focus;yes;929107;Chrome;112.0;macOS;10.15.7;undefined;undefined;1440 x 900;1440 x 900
H040;21;Vrouwelijk;Rechts;5;23;left;no;150;leftarrow;404;true;focus;yes;930293;Chrome;112.0;macOS;10.15.7;undefined;undefined;1440 x 900;1440 x 900
H040;21;Vrouwelijk;Rechts;5;24;right;yes;150;rightarrow;426;false;focus;yes;931498;Chrome;112.0;macOS;10.15.7;undefined;undefined;1440 x 900;1440 x 900
H040;21;Vrouwelijk;Rechts;5;25;left;no;100;leftarrow;337;true;focus;yes;932599;Chrome;112.0;macOS;10.15.7;undefined;undefined;1440 x 900;1440 x 900
H040;21;Vrouwelijk;Rechts;5;26;right;no;100;rightarrow;411;true;focus;yes;933789;Chrome;112.0;macOS;10.15.7;undefined;undefined;1440 x 900;1440 x 900
H040;21;Vrouwelijk;Rechts;5;27;left;no;100;leftarrow;352;true;focus;yes;934911;Chrome;112.0;macOS;10.15.7;undefined;undefined;1440 x 900;1440 x 900
H040;21;Vrouwelijk;Rechts;5;28;right;no;100;rightarrow;453;true;focus;yes;936142;Chrome;112.0;macOS;10.15.7;undefined;undefined;1440 x 900;1440 x 900
H040;21;Vrouwelijk;Rechts;5;29;right;yes;100;undefined;null;true;focus;yes;938173;Chrome;112.0;macOS;10.15.7;undefined;undefined;1440 x 900;1440 x 900
H040;21;Vrouwelijk;Rechts;5;30;left;yes;150;leftarrow;336;false;focus;yes;939291;Chrome;112.0;macOS;10.15.7;undefined;undefined;1440 x 900;1440 x 900
H040;21;Vrouwelijk;Rechts;5;31;right;no;100;rightarrow;400;true;focus;yes;940465;Chrome;112.0;macOS;10.15.7;undefined;undefined;1440 x 900;1440 x 900
H040;21;Vrouwelijk;Rechts;5;32;left;no;100;leftarrow;412;true;focus;yes;941652;Chrome;112.0;macOS;10.15.7;undefined;undefined;1440 x 900;1440 x 900
H040;21;Vrouwelijk;Rechts;5;33;left;no;100;leftarrow;514;true;focus;yes;942947;Chrome;112.0;macOS;10.15.7;undefined;undefined;1440 x 900;1440 x 900
H040;21;Vrouwelijk;Rechts;5;34;right;no;100;rightarrow;358;true;focus;yes;944085;Chrome;112.0;macOS;10.15.7;undefined;undefined;1440 x 900;1440 x 900
H040;21;Vrouwelijk;Rechts;5;35;left;yes;100;leftarrow;352;false;focus;yes;945216;Chrome;112.0;macOS;10.15.7;undefined;undefined;1440 x 900;1440 x 900
H040;21;Vrouwelijk;Rechts;5;36;right;no;50;rightarrow;403;true;focus;yes;946396;Chrome;112.0;macOS;10.15.7;undefined;undefined;1440 x 900;1440 x 900
H040;21;Vrouwelijk;Rechts;5;37;right;yes;50;undefined;null;true;focus;yes;948436;Chrome;112.0;macOS;10.15.7;undefined;undefined;1440 x 900;1440 x 900
H040;21;Vrouwelijk;Rechts;5;38;right;no;100;rightarrow;437;true;focus;yes;949656;Chrome;112.0;macOS;10.15.7;undefined;undefined;1440 x 900;1440 x 900
H040;21;Vrouwelijk;Rechts;5;39;left;no;100;leftarrow;387;true;focus;yes;950820;Chrome;112.0;macOS;10.15.7;undefined;undefined;1440 x 900;1440 x 900
H040;21;Vrouwelijk;Rechts;5;40;left;no;100;leftarrow;558;true;focus;yes;952149;Chrome;112.0;macOS;10.15.7;undefined;undefined;1440 x 900;1440 x 900
H040;21;Vrouwelijk;Rechts;5;41;left;no;100;leftarrow;493;true;focus;yes;953419;Chrome;112.0;macOS;10.15.7;undefined;undefined;1440 x 900;1440 x 900
H040;21;Vrouwelijk;Rechts;5;42;left;yes;100;leftarrow;381;false;focus;yes;954570;Chrome;112.0;macOS;10.15.7;undefined;undefined;1440 x 900;1440 x 900
H040;21;Vrouwelijk;Rechts;5;43;right;no;50;rightarrow;389;true;focus;yes;955733;Chrome;112.0;macOS;10.15.7;undefined;undefined;1440 x 900;1440 x 900
H040;21;Vrouwelijk;Rechts;5;44;right;yes;50;undefined;null;true;focus;yes;957772;Chrome;112.0;macOS;10.15.7;undefined;undefined;1440 x 900;1440 x 900
H040;21;Vrouwelijk;Rechts;5;45;right;no;100;rightarrow;422;true;focus;yes;958968;Chrome;112.0;macOS;10.15.7;undefined;undefined;1440 x 900;1440 x 900
H040;21;Vrouwelijk;Rechts;5;46;left;no;100;leftarrow;354;true;focus;yes;960087;Chrome;112.0;macOS;10.15.7;undefined;undefined;1440 x 900;1440 x 900
H040;21;Vrouwelijk;Rechts;5;47;right;no;100;rightarrow;824;true;focus;yes;961678;Chrome;112.0;macOS;10.15.7;undefined;undefined;1440 x 900;1440 x 900
H040;21;Vrouwelijk;Rechts;5;48;left;no;100;leftarrow;367;true;focus;yes;962812;Chrome;112.0;macOS;10.15.7;undefined;undefined;1440 x 900;1440 x 900
H040;21;Vrouwelijk;Rechts;5;49;left;no;100;leftarrow;455;true;focus;yes;964036;Chrome;112.0;macOS;10.15.7;undefined;undefined;1440 x 900;1440 x 900
H040;21;Vrouwelijk;Rechts;5;50;right;yes;100;undefined;null;true;focus;yes;966064;Chrome;112.0;macOS;10.15.7;undefined;undefined;1440 x 900;1440 x 900
H040;21;Vrouwelijk;Rechts;5;51;right;no;150;rightarrow;422;true;focus;yes;967252;Chrome;112.0;macOS;10.15.7;undefined;undefined;1440 x 900;1440 x 900
H040;21;Vrouwelijk;Rechts;5;52;right;no;150;rightarrow;401;true;focus;yes;968429;Chrome;112.0;macOS;10.15.7;undefined;undefined;1440 x 900;1440 x 900
H040;21;Vrouwelijk;Rechts;5;53;right;no;150;rightarrow;356;true;focus;yes;969553;Chrome;112.0;macOS;10.15.7;undefined;undefined;1440 x 900;1440 x 900
H040;21;Vrouwelijk;Rechts;5;54;left;no;150;leftarrow;538;true;focus;yes;970875;Chrome;112.0;macOS;10.15.7;undefined;undefined;1440 x 900;1440 x 900
H040;21;Vrouwelijk;Rechts;5;55;left;yes;150;undefined;null;true;focus;yes;972906;Chrome;112.0;macOS;10.15.7;undefined;undefined;1440 x 900;1440 x 900
H040;21;Vrouwelijk;Rechts;5;56;left;no;200;leftarrow;456;true;focus;yes;974145;Chrome;112.0;macOS;10.15.7;undefined;undefined;1440 x 900;1440 x 900
H040;21;Vrouwelijk;Rechts;5;57;left;yes;200;leftarrow;313;false;focus;yes;975239;Chrome;112.0;macOS;10.15.7;undefined;undefined;1440 x 900;1440 x 900
H040;21;Vrouwelijk;Rechts;5;58;left;no;150;leftarrow;426;true;focus;yes;976441;Chrome;112.0;macOS;10.15.7;undefined;undefined;1440 x 900;1440 x 900
H040;21;Vrouwelijk;Rechts;5;59;right;no;150;rightarrow;379;true;focus;yes;977594;Chrome;112.0;macOS;10.15.7;undefined;undefined;1440 x 900;1440 x 900
H040;21;Vrouwelijk;Rechts;5;60;left;no;150;leftarrow;442;true;focus;yes;978818;Chrome;112.0;macOS;10.15.7;undefined;undefined;1440 x 900;1440 x 900
H040;21;Vrouwelijk;Rechts;5;61;right;no;150;rightarrow;571;true;focus;yes;980161;Chrome;112.0;macOS;10.15.7;undefined;undefined;1440 x 900;1440 x 900
H040;21;Vrouwelijk;Rechts;5;62;left;no;150;leftarrow;410;true;focus;yes;981330;Chrome;112.0;macOS;10.15.7;undefined;undefined;1440 x 900;1440 x 900
H040;21;Vrouwelijk;Rechts;5;63;right;no;150;rightarrow;348;true;focus;yes;982462;Chrome;112.0;macOS;10.15.7;undefined;undefined;1440 x 900;1440 x 900
H040;21;Vrouwelijk;Rechts;5;64;right;yes;150;leftarrow;358;false;focus;yes;983587;Chrome;112.0;macOS;10.15.7;undefined;undefined;1440 x 900;1440 x 900
H040;21;Vrouwelijk;Rechts;5;65;right;no;100;leftarrow;589;false;focus;yes;984946;Chrome;112.0;macOS;10.15.7;undefined;undefined;1440 x 900;1440 x 900
H040;21;Vrouwelijk;Rechts;5;66;left;yes;100;leftarrow;917;false;focus;yes;986629;Chrome;112.0;macOS;10.15.7;undefined;undefined;1440 x 900;1440 x 900
H040;21;Vrouwelijk;Rechts;5;67;left;no;50;leftarrow;576;true;focus;yes;987983;Chrome;112.0;macOS;10.15.7;undefined;undefined;1440 x 900;1440 x 900
H040;21;Vrouwelijk;Rechts;5;68;right;no;50;rightarrow;452;true;focus;yes;989211;Chrome;112.0;macOS;10.15.7;undefined;undefined;1440 x 900;1440 x 900
H040;21;Vrouwelijk;Rechts;5;69;right;no;50;rightarrow;477;true;focus;yes;990458;Chrome;112.0;macOS;10.15.7;undefined;undefined;1440 x 900;1440 x 900
H040;21;Vrouwelijk;Rechts;5;70;left;no;50;leftarrow;457;true;focus;yes;991688;Chrome;112.0;macOS;10.15.7;undefined;undefined;1440 x 900;1440 x 900
H040;21;Vrouwelijk;Rechts;5;71;left;no;50;leftarrow;519;true;focus;yes;992967;Chrome;112.0;macOS;10.15.7;undefined;undefined;1440 x 900;1440 x 900
H040;21;Vrouwelijk;Rechts;5;72;right;yes;50;undefined;null;true;focus;yes;995002;Chrome;112.0;macOS;10.15.7;undefined;undefined;1440 x 900;1440 x 900
H040;21;Vrouwelijk;Rechts;5;73;left;no;100;leftarrow;427;true;focus;yes;996210;Chrome;112.0;macOS;10.15.7;undefined;undefined;1440 x 900;1440 x 900
H040;21;Vrouwelijk;Rechts;5;74;right;no;100;rightarrow;399;true;focus;yes;997390;Chrome;112.0;macOS;10.15.7;undefined;undefined;1440 x 900;1440 x 900
H040;21;Vrouwelijk;Rechts;5;75;left;yes;100;undefined;null;true;focus;yes;999418;Chrome;112.0;macOS;10.15.7;undefined;undefined;1440 x 900;1440 x 900
H040;21;Vrouwelijk;Rechts;5;76;left;no;150;leftarrow;446;true;focus;yes;1000634;Chrome;112.0;macOS;10.15.7;undefined;undefined;1440 x 900;1440 x 900
H040;21;Vrouwelijk;Rechts;5;77;right;yes;150;undefined;null;true;focus;yes;1002670;Chrome;112.0;macOS;10.15.7;undefined;undefined;1440 x 900;1440 x 900
H040;21;Vrouwelijk;Rechts;5;78;left;no;200;leftarrow;361;true;focus;yes;1003796;Chrome;112.0;macOS;10.15.7;undefined;undefined;1440 x 900;1440 x 900
H040;21;Vrouwelijk;Rechts;5;79;right;no;200;rightarrow;378;true;focus;yes;1004951;Chrome;112.0;macOS;10.15.7;undefined;undefined;1440 x 900;1440 x 900
H040;21;Vrouwelijk;Rechts;5;80;right;no;200;rightarrow;464;true;focus;yes;1006174;Chrome;112.0;macOS;10.15.7;undefined;undefined;1440 x 900;1440 x 900
H040;21;Vrouwelijk;Rechts;5;81;right;yes;200;rightarrow;413;false;focus;yes;1007364;Chrome;112.0;macOS;10.15.7;undefined;undefined;1440 x 900;1440 x 900
H040;21;Vrouwelijk;Rechts;5;82;left;no;150;leftarrow;394;true;focus;yes;1008526;Chrome;112.0;macOS;10.15.7;undefined;undefined;1440 x 900;1440 x 900
H040;21;Vrouwelijk;Rechts;5;83;left;no;150;leftarrow;400;true;focus;yes;1009701;Chrome;112.0;macOS;10.15.7;undefined;undefined;1440 x 900;1440 x 900
H040;21;Vrouwelijk;Rechts;5;84;right;no;150;rightarrow;696;true;focus;yes;1011175;Chrome;112.0;macOS;10.15.7;undefined;undefined;1440 x 900;1440 x 900
H040;21;Vrouwelijk;Rechts;5;85;right;no;150;rightarrow;473;true;focus;yes;1012430;Chrome;112.0;macOS;10.15.7;undefined;undefined;1440 x 900;1440 x 900
H040;21;Vrouwelijk;Rechts;5;86;left;yes;150;leftarrow;418;false;focus;yes;1013624;Chrome;112.0;macOS;10.15.7;undefined;undefined;1440 x 900;1440 x 900
H040;21;Vrouwelijk;Rechts;5;87;left;no;100;leftarrow;505;true;focus;yes;1014910;Chrome;112.0;macOS;10.15.7;undefined;undefined;1440 x 900;1440 x 900
H040;21;Vrouwelijk;Rechts;5;88;right;no;100;rightarrow;515;true;focus;yes;1016186;Chrome;112.0;macOS;10.15.7;undefined;undefined;1440 x 900;1440 x 900
H040;21;Vrouwelijk;Rechts;5;89;left;no;100;leftarrow;416;true;focus;yes;1017372;Chrome;112.0;macOS;10.15.7;undefined;undefined;1440 x 900;1440 x 900
H040;21;Vrouwelijk;Rechts;5;90;left;no;100;leftarrow;394;true;focus;yes;1018533;Chrome;112.0;macOS;10.15.7;undefined;undefined;1440 x 900;1440 x 900
H040;21;Vrouwelijk;Rechts;5;91;right;no;100;rightarrow;329;true;focus;yes;1019636;Chrome;112.0;macOS;10.15.7;undefined;undefined;1440 x 900;1440 x 900
H040;21;Vrouwelijk;Rechts;5;92;right;no;100;rightarrow;534;true;focus;yes;1020938;Chrome;112.0;macOS;10.15.7;undefined;undefined;1440 x 900;1440 x 900
H040;21;Vrouwelijk;Rechts;5;93;left;yes;100;leftarrow;325;false;focus;yes;1022042;Chrome;112.0;macOS;10.15.7;undefined;undefined;1440 x 900;1440 x 900
H040;21;Vrouwelijk;Rechts;5;94;left;no;50;leftarrow;386;true;focus;yes;1023197;Chrome;112.0;macOS;10.15.7;undefined;undefined;1440 x 900;1440 x 900
H040;21;Vrouwelijk;Rechts;5;95;right;no;50;rightarrow;404;true;focus;yes;1024377;Chrome;112.0;macOS;10.15.7;undefined;undefined;1440 x 900;1440 x 900
H040;21;Vrouwelijk;Rechts;5;96;right;yes;50;undefined;null;true;focus;yes;1026416;Chrome;112.0;macOS;10.15.7;undefined;undefined;1440 x 900;1440 x 900
H040;21;Vrouwelijk;Rechts;5;97;left;yes;100;undefined;null;true;focus;yes;1028453;Chrome;112.0;macOS;10.15.7;undefined;undefined;1440 x 900;1440 x 900
H040;21;Vrouwelijk;Rechts;5;98;left;no;150;leftarrow;432;true;focus;yes;1029655;Chrome;112.0;macOS;10.15.7;undefined;undefined;1440 x 900;1440 x 900
H040;21;Vrouwelijk;Rechts;5;99;right;no;150;rightarrow;375;true;focus;yes;1030802;Chrome;112.0;macOS;10.15.7;undefined;undefined;1440 x 900;1440 x 900
H040;21;Vrouwelijk;Rechts;5;100;left;no;150;leftarrow;331;true;focus;yes;1031902;Chrome;112.0;macOS;10.15.7;undefined;undefined;1440 x 900;1440 x 900
H040;21;Vrouwelijk;Rechts;5;101;right;no;150;rightarrow;349;true;focus;yes;1033034;Chrome;112.0;macOS;10.15.7;undefined;undefined;1440 x 900;1440 x 900
H040;21;Vrouwelijk;Rechts;5;102;right;no;150;rightarrow;612;true;focus;yes;1034423;Chrome;112.0;macOS;10.15.7;undefined;undefined;1440 x 900;1440 x 900
H040;21;Vrouwelijk;Rechts;5;103;right;yes;150;undefined;null;true;focus;yes;1036453;Chrome;112.0;macOS;10.15.7;undefined;undefined;1440 x 900;1440 x 900
H040;21;Vrouwelijk;Rechts;5;104;left;no;200;leftarrow;548;true;focus;yes;1037784;Chrome;112.0;macOS;10.15.7;undefined;undefined;1440 x 900;1440 x 900
H040;21;Vrouwelijk;Rechts;5;105;left;yes;200;undefined;null;true;focus;yes;1039814;Chrome;112.0;macOS;10.15.7;undefined;undefined;1440 x 900;1440 x 900
H040;21;Vrouwelijk;Rechts;5;106;right;yes;250;rightarrow;530;false;focus;yes;1041110;Chrome;112.0;macOS;10.15.7;undefined;undefined;1440 x 900;1440 x 900
H040;21;Vrouwelijk;Rechts;5;107;left;no;200;leftarrow;391;true;focus;yes;1042276;Chrome;112.0;macOS;10.15.7;undefined;undefined;1440 x 900;1440 x 900
H040;21;Vrouwelijk;Rechts;5;108;left;no;200;leftarrow;456;true;focus;yes;1043499;Chrome;112.0;macOS;10.15.7;undefined;undefined;1440 x 900;1440 x 900
H040;21;Vrouwelijk;Rechts;5;109;right;no;200;rightarrow;429;true;focus;yes;1044694;Chrome;112.0;macOS;10.15.7;undefined;undefined;1440 x 900;1440 x 900
H040;21;Vrouwelijk;Rechts;5;110;right;no;200;rightarrow;440;true;focus;yes;1045918;Chrome;112.0;macOS;10.15.7;undefined;undefined;1440 x 900;1440 x 900
H040;21;Vrouwelijk;Rechts;5;111;left;no;200;leftarrow;417;true;focus;yes;1047107;Chrome;112.0;macOS;10.15.7;undefined;undefined;1440 x 900;1440 x 900
H040;21;Vrouwelijk;Rechts;5;112;right;no;200;rightarrow;488;true;focus;yes;1048360;Chrome;112.0;macOS;10.15.7;undefined;undefined;1440 x 900;1440 x 900
H040;21;Vrouwelijk;Rechts;5;113;left;no;200;leftarrow;437;true;focus;yes;1049567;Chrome;112.0;macOS;10.15.7;undefined;undefined;1440 x 900;1440 x 900
H040;21;Vrouwelijk;Rechts;5;114;left;no;200;rightarrow;370;false;focus;yes;1050708;Chrome;112.0;macOS;10.15.7;undefined;undefined;1440 x 900;1440 x 900
H040;21;Vrouwelijk;Rechts;5;115;right;no;200;rightarrow;442;true;focus;yes;1051915;Chrome;112.0;macOS;10.15.7;undefined;undefined;1440 x 900;1440 x 900
H040;21;Vrouwelijk;Rechts;5;116;right;no;200;rightarrow;387;true;focus;yes;1053069;Chrome;112.0;macOS;10.15.7;undefined;undefined;1440 x 900;1440 x 900
H040;21;Vrouwelijk;Rechts;5;117;left;yes;200;undefined;null;true;focus;yes;1055107;Chrome;112.0;macOS;10.15.7;undefined;undefined;1440 x 900;1440 x 900
H040;21;Vrouwelijk;Rechts;5;118;right;yes;250;rightarrow;456;false;focus;yes;1056331;Chrome;112.0;macOS;10.15.7;undefined;undefined;1440 x 900;1440 x 900
H040;21;Vrouwelijk;Rechts;5;119;right;no;200;rightarrow;519;true;focus;yes;1057626;Chrome;112.0;macOS;10.15.7;undefined;undefined;1440 x 900;1440 x 900
H040;21;Vrouwelijk;Rechts;5;120;left;no;200;leftarrow;755;true;focus;yes;1059155;Chrome;112.0;macOS;10.15.7;undefined;undefined;1440 x 900;1440 x 900
H040;21;Vrouwelijk;Rechts;5;121;right;no;200;rightarrow;573;true;focus;yes;1060494;Chrome;112.0;macOS;10.15.7;undefined;undefined;1440 x 900;1440 x 900
H040;21;Vrouwelijk;Rechts;5;122;right;no;200;rightarrow;412;true;focus;yes;1061678;Chrome;112.0;macOS;10.15.7;undefined;undefined;1440 x 900;1440 x 900
H040;21;Vrouwelijk;Rechts;5;123;left;yes;200;leftarrow;439;false;focus;yes;1062901;Chrome;112.0;macOS;10.15.7;undefined;undefined;1440 x 900;1440 x 900
H040;21;Vrouwelijk;Rechts;5;124;right;no;150;rightarrow;367;true;focus;yes;1064031;Chrome;112.0;macOS;10.15.7;undefined;undefined;1440 x 900;1440 x 900
H040;21;Vrouwelijk;Rechts;5;125;left;no;150;leftarrow;555;true;focus;yes;1065354;Chrome;112.0;macOS;10.15.7;undefined;undefined;1440 x 900;1440 x 900
H040;21;Vrouwelijk;Rechts;5;126;right;yes;150;undefined;null;true;focus;yes;1067391;Chrome;112.0;macOS;10.15.7;undefined;undefined;1440 x 900;1440 x 900
H040;21;Vrouwelijk;Rechts;5;127;left;no;200;leftarrow;571;true;focus;yes;1068743;Chrome;112.0;macOS;10.15.7;undefined;undefined;1440 x 900;1440 x 900
H040;21;Vrouwelijk;Rechts;5;128;left;no;200;leftarrow;467;true;focus;yes;1069989;Chrome;112.0;macOS;10.15.7;undefined;undefined;1440 x 900;1440 x 900
H040;21;Vrouwelijk;Rechts;6;1;right;no;200;rightarrow;662;true;focus;yes;1089810;Chrome;112.0;macOS;10.15.7;undefined;undefined;1440 x 900;1440 x 900
H040;21;Vrouwelijk;Rechts;6;2;left;yes;200;leftarrow;353;false;focus;yes;1090937;Chrome;112.0;macOS;10.15.7;undefined;undefined;1440 x 900;1440 x 900
H040;21;Vrouwelijk;Rechts;6;3;left;no;150;leftarrow;422;true;focus;yes;1092125;Chrome;112.0;macOS;10.15.7;undefined;undefined;1440 x 900;1440 x 900
H040;21;Vrouwelijk;Rechts;6;4;right;no;150;rightarrow;509;true;focus;yes;1093400;Chrome;112.0;macOS;10.15.7;undefined;undefined;1440 x 900;1440 x 900
H040;21;Vrouwelijk;Rechts;6;5;left;no;150;leftarrow;491;true;focus;yes;1094658;Chrome;112.0;macOS;10.15.7;undefined;undefined;1440 x 900;1440 x 900
H040;21;Vrouwelijk;Rechts;6;6;left;no;150;leftarrow;524;true;focus;yes;1095947;Chrome;112.0;macOS;10.15.7;undefined;undefined;1440 x 900;1440 x 900
H040;21;Vrouwelijk;Rechts;6;7;right;no;150;rightarrow;556;true;focus;yes;1097276;Chrome;112.0;macOS;10.15.7;undefined;undefined;1440 x 900;1440 x 900
H040;21;Vrouwelijk;Rechts;6;8;right;yes;150;undefined;null;true;focus;yes;1099302;Chrome;112.0;macOS;10.15.7;undefined;undefined;1440 x 900;1440 x 900
H040;21;Vrouwelijk;Rechts;6;9;left;no;200;leftarrow;527;true;focus;yes;1100600;Chrome;112.0;macOS;10.15.7;undefined;undefined;1440 x 900;1440 x 900
H040;21;Vrouwelijk;Rechts;6;10;right;yes;200;rightarrow;400;false;focus;yes;1101777;Chrome;112.0;macOS;10.15.7;undefined;undefined;1440 x 900;1440 x 900
H040;21;Vrouwelijk;Rechts;6;11;right;no;150;rightarrow;470;true;focus;yes;1103024;Chrome;112.0;macOS;10.15.7;undefined;undefined;1440 x 900;1440 x 900
H040;21;Vrouwelijk;Rechts;6;12;left;no;150;leftarrow;549;true;focus;yes;1104340;Chrome;112.0;macOS;10.15.7;undefined;undefined;1440 x 900;1440 x 900
H040;21;Vrouwelijk;Rechts;6;13;left;no;150;leftarrow;464;true;focus;yes;1105587;Chrome;112.0;macOS;10.15.7;undefined;undefined;1440 x 900;1440 x 900
H040;21;Vrouwelijk;Rechts;6;14;right;no;150;rightarrow;461;true;focus;yes;1106829;Chrome;112.0;macOS;10.15.7;undefined;undefined;1440 x 900;1440 x 900
