participantID;age;gender;handedness;block_i;trial_i;stim;signal;SSD;response;rt;correct;focus;Fullscreen;time_elapsed;browser_name;browser_version;os_name;os_version;tablet;mobile;screen_resolution;window_resolution
S017;27;Mannelijk;Links;0;1;right;no;200;rightarrow;552;true;focus;yes;74216;Chrome;104.0;Windows;10;undefined;undefined;1536 x 864;1536 x 864
S017;27;Mannelijk;Links;0;2;right;no;200;rightarrow;490;true;focus;yes;76264;Chrome;104.0;Windows;10;undefined;undefined;1536 x 864;1536 x 864
S017;27;Mannelijk;Links;0;3;right;yes;200;undefined;null;true;focus;yes;79043;Chrome;104.0;Windows;10;undefined;undefined;1536 x 864;1536 x 864
S017;27;Mannelijk;Links;0;4;left;yes;250;leftarrow;598;false;focus;yes;81203;Chrome;104.0;Windows;10;undefined;undefined;1536 x 864;1536 x 864
S017;27;Mannelijk;Links;0;5;left;no;200;leftarrow;882;true;focus;yes;83616;Chrome;104.0;Windows;10;undefined;undefined;1536 x 864;1536 x 864
S017;27;Mannelijk;Links;0;6;left;no;200;leftarrow;883;true;focus;yes;86046;Chrome;104.0;Windows;10;undefined;undefined;1536 x 864;1536 x 864
S017;27;Mannelijk;Links;0;7;left;no;200;leftarrow;933;true;focus;yes;88537;Chrome;104.0;Windows;10;undefined;undefined;1536 x 864;1536 x 864
S017;27;Mannelijk;Links;0;8;right;no;200;rightarrow;661;true;focus;yes;90746;Chrome;104.0;Windows;10;undefined;undefined;1536 x 864;1536 x 864
S017;27;Mannelijk;Links;1;1;left;yes;200;undefined;null;true;focus;yes;112212;Chrome;104.0;Windows;10;undefined;undefined;1536 x 864;1536 x 864
S017;27;Mannelijk;Links;1;2;right;yes;250;undefined;null;true;focus;yes;114253;Chrome;104.0;Windows;10;undefined;undefined;1536 x 864;1536 x 864
S017;27;Mannelijk;Links;1;3;right;no;300;rightarrow;686;true;focus;yes;115724;Chrome;104.0;Windows;10;undefined;undefined;1536 x 864;1536 x 864
S017;27;Mannelijk;Links;1;4;right;no;300;rightarrow;640;true;focus;yes;117148;Chrome;104.0;Windows;10;undefined;undefined;1536 x 864;1536 x 864
S017;27;Mannelijk;Links;1;5;left;no;300;leftarrow;793;true;focus;yes;118717;Chrome;104.0;Windows;10;undefined;undefined;1536 x 864;1536 x 864
S017;27;Mannelijk;Links;1;6;right;no;300;rightarrow;822;true;focus;yes;120316;Chrome;104.0;Windows;10;undefined;undefined;1536 x 864;1536 x 864
S017;27;Mannelijk;Links;1;7;left;no;300;leftarrow;789;true;focus;yes;121891;Chrome;104.0;Windows;10;undefined;undefined;1536 x 864;1536 x 864
S017;27;Mannelijk;Links;1;8;left;no;300;leftarrow;849;true;focus;yes;123514;Chrome;104.0;Windows;10;undefined;undefined;1536 x 864;1536 x 864
S017;27;Mannelijk;Links;1;9;right;no;300;rightarrow;873;true;focus;yes;125176;Chrome;104.0;Windows;10;undefined;undefined;1536 x 864;1536 x 864
S017;27;Mannelijk;Links;1;10;right;yes;300;undefined;null;true;focus;yes;127219;Chrome;104.0;Windows;10;undefined;undefined;1536 x 864;1536 x 864
S017;27;Mannelijk;Links;1;11;left;yes;350;undefined;null;true;focus;yes;129263;Chrome;104.0;Windows;10;undefined;undefined;1536 x 864;1536 x 864
S017;27;Mannelijk;Links;1;12;right;no;400;rightarrow;818;true;focus;yes;130856;Chrome;104.0;Windows;10;undefined;undefined;1536 x 864;1536 x 864
S017;27;Mannelijk;Links;1;13;left;no;400;leftarrow;875;true;focus;yes;132502;Chrome;104.0;Windows;10;undefined;undefined;1536 x 864;1536 x 864
S017;27;Mannelijk;Links;1;14;right;no;400;rightarrow;845;true;focus;yes;134122;Chrome;104.0;Windows;10;undefined;undefined;1536 x 864;1536 x 864
S017;27;Mannelijk;Links;1;15;left;no;400;leftarrow;929;true;focus;yes;135833;Chrome;104.0;Windows;10;undefined;undefined;1536 x 864;1536 x 864
S017;27;Mannelijk;Links;1;16;left;no;400;leftarrow;779;true;focus;yes;137403;Chrome;104.0;Windows;10;undefined;undefined;1536 x 864;1536 x 864
S017;27;Mannelijk;Links;1;17;right;no;400;rightarrow;758;true;focus;yes;138933;Chrome;104.0;Windows;10;undefined;undefined;1536 x 864;1536 x 864
S017;27;Mannelijk;Links;1;18;left;no;400;leftarrow;882;true;focus;yes;140606;Chrome;104.0;Windows;10;undefined;undefined;1536 x 864;1536 x 864
S017;27;Mannelijk;Links;1;19;right;no;400;rightarrow;932;true;focus;yes;142305;Chrome;104.0;Windows;10;undefined;undefined;1536 x 864;1536 x 864
S017;27;Mannelijk;Links;1;20;right;yes;400;undefined;null;true;focus;yes;144348;Chrome;104.0;Windows;10;undefined;undefined;1536 x 864;1536 x 864
S017;27;Mannelijk;Links;1;21;left;no;450;leftarrow;553;true;focus;yes;145678;Chrome;104.0;Windows;10;undefined;undefined;1536 x 864;1536 x 864
S017;27;Mannelijk;Links;1;22;left;no;450;leftarrow;762;true;focus;yes;147225;Chrome;104.0;Windows;10;undefined;undefined;1536 x 864;1536 x 864
S017;27;Mannelijk;Links;1;23;right;no;450;rightarrow;729;true;focus;yes;148729;Chrome;104.0;Windows;10;undefined;undefined;1536 x 864;1536 x 864
S017;27;Mannelijk;Links;1;24;left;yes;450;undefined;null;true;focus;yes;150761;Chrome;104.0;Windows;10;undefined;undefined;1536 x 864;1536 x 864
S017;27;Mannelijk;Links;1;25;left;no;500;leftarrow;814;true;focus;yes;152356;Chrome;104.0;Windows;10;undefined;undefined;1536 x 864;1536 x 864
S017;27;Mannelijk;Links;1;26;left;no;500;leftarrow;990;true;focus;yes;154128;Chrome;104.0;Windows;10;undefined;undefined;1536 x 864;1536 x 864
S017;27;Mannelijk;Links;1;27;right;no;500;rightarrow;826;true;focus;yes;155736;Chrome;104.0;Windows;10;undefined;undefined;1536 x 864;1536 x 864
S017;27;Mannelijk;Links;1;28;right;no;500;rightarrow;813;true;focus;yes;157329;Chrome;104.0;Windows;10;undefined;undefined;1536 x 864;1536 x 864
S017;27;Mannelijk;Links;1;29;right;no;500;rightarrow;752;true;focus;yes;158869;Chrome;104.0;Windows;10;undefined;undefined;1536 x 864;1536 x 864
S017;27;Mannelijk;Links;1;30;right;yes;500;undefined;null;true;focus;yes;160904;Chrome;104.0;Windows;10;undefined;undefined;1536 x 864;1536 x 864
S017;27;Mannelijk;Links;1;31;left;yes;550;undefined;null;true;focus;yes;162951;Chrome;104.0;Windows;10;undefined;undefined;1536 x 864;1536 x 864
S017;27;Mannelijk;Links;1;32;left;no;600;leftarrow;816;true;focus;yes;164546;Chrome;104.0;Windows;10;undefined;undefined;1536 x 864;1536 x 864
S017;27;Mannelijk;Links;1;33;right;no;600;rightarrow;799;true;focus;yes;166126;Chrome;104.0;Windows;10;undefined;undefined;1536 x 864;1536 x 864
S017;27;Mannelijk;Links;1;34;left;no;600;leftarrow;869;true;focus;yes;167764;Chrome;104.0;Windows;10;undefined;undefined;1536 x 864;1536 x 864
S017;27;Mannelijk;Links;1;35;right;no;600;rightarrow;720;true;focus;yes;169275;Chrome;104.0;Windows;10;undefined;undefined;1536 x 864;1536 x 864
S017;27;Mannelijk;Links;1;36;left;no;600;leftarrow;762;true;focus;yes;170811;Chrome;104.0;Windows;10;undefined;undefined;1536 x 864;1536 x 864
S017;27;Mannelijk;Links;1;37;left;yes;600;undefined;null;true;focus;yes;172838;Chrome;104.0;Windows;10;undefined;undefined;1536 x 864;1536 x 864
S017;27;Mannelijk;Links;1;38;left;no;650;leftarrow;690;true;focus;yes;174306;Chrome;104.0;Windows;10;undefined;undefined;1536 x 864;1536 x 864
S017;27;Mannelijk;Links;1;39;right;yes;650;rightarrow;685;false;focus;yes;175760;Chrome;104.0;Windows;10;undefined;undefined;1536 x 864;1536 x 864
S017;27;Mannelijk;Links;1;40;right;no;600;rightarrow;1061;true;focus;yes;177609;Chrome;104.0;Windows;10;undefined;undefined;1536 x 864;1536 x 864
S017;27;Mannelijk;Links;1;41;left;no;600;leftarrow;822;true;focus;yes;179213;Chrome;104.0;Windows;10;undefined;undefined;1536 x 864;1536 x 864
S017;27;Mannelijk;Links;1;42;left;yes;600;undefined;null;true;focus;yes;181251;Chrome;104.0;Windows;10;undefined;undefined;1536 x 864;1536 x 864
S017;27;Mannelijk;Links;1;43;right;no;650;rightarrow;915;true;focus;yes;182942;Chrome;104.0;Windows;10;undefined;undefined;1536 x 864;1536 x 864
S017;27;Mannelijk;Links;1;44;right;no;650;rightarrow;946;true;focus;yes;184672;Chrome;104.0;Windows;10;undefined;undefined;1536 x 864;1536 x 864
S017;27;Mannelijk;Links;1;45;right;yes;650;rightarrow;764;false;focus;yes;186205;Chrome;104.0;Windows;10;undefined;undefined;1536 x 864;1536 x 864
S017;27;Mannelijk;Links;1;46;left;no;600;leftarrow;962;true;focus;yes;187953;Chrome;104.0;Windows;10;undefined;undefined;1536 x 864;1536 x 864
S017;27;Mannelijk;Links;1;47;right;no;600;rightarrow;887;true;focus;yes;189615;Chrome;104.0;Windows;10;undefined;undefined;1536 x 864;1536 x 864
S017;27;Mannelijk;Links;1;48;left;no;600;leftarrow;956;true;focus;yes;191336;Chrome;104.0;Windows;10;undefined;undefined;1536 x 864;1536 x 864
S017;27;Mannelijk;Links;1;49;left;yes;600;undefined;null;true;focus;yes;193369;Chrome;104.0;Windows;10;undefined;undefined;1536 x 864;1536 x 864
S017;27;Mannelijk;Links;1;50;left;no;650;leftarrow;940;true;focus;yes;195088;Chrome;104.0;Windows;10;undefined;undefined;1536 x 864;1536 x 864
S017;27;Mannelijk;Links;1;51;left;no;650;leftarrow;967;true;focus;yes;196840;Chrome;104.0;Windows;10;undefined;undefined;1536 x 864;1536 x 864
S017;27;Mannelijk;Links;1;52;right;yes;650;rightarrow;796;false;focus;yes;198415;Chrome;104.0;Windows;10;undefined;undefined;1536 x 864;1536 x 864
S017;27;Mannelijk;Links;1;53;right;no;600;rightarrow;825;true;focus;yes;200021;Chrome;104.0;Windows;10;undefined;undefined;1536 x 864;1536 x 864
S017;27;Mannelijk;Links;1;54;right;no;600;rightarrow;826;true;focus;yes;201626;Chrome;104.0;Windows;10;undefined;undefined;1536 x 864;1536 x 864
S017;27;Mannelijk;Links;1;55;left;no;600;leftarrow;1145;true;focus;yes;203548;Chrome;104.0;Windows;10;undefined;undefined;1536 x 864;1536 x 864
S017;27;Mannelijk;Links;1;56;right;no;600;rightarrow;1110;true;focus;yes;205430;Chrome;104.0;Windows;10;undefined;undefined;1536 x 864;1536 x 864
S017;27;Mannelijk;Links;1;57;right;no;600;rightarrow;1149;true;focus;yes;207363;Chrome;104.0;Windows;10;undefined;undefined;1536 x 864;1536 x 864
S017;27;Mannelijk;Links;1;58;left;no;600;leftarrow;921;true;focus;yes;209060;Chrome;104.0;Windows;10;undefined;undefined;1536 x 864;1536 x 864
S017;27;Mannelijk;Links;1;59;right;no;600;rightarrow;944;true;focus;yes;210785;Chrome;104.0;Windows;10;undefined;undefined;1536 x 864;1536 x 864
S017;27;Mannelijk;Links;1;60;left;no;600;leftarrow;1234;true;focus;yes;212808;Chrome;104.0;Windows;10;undefined;undefined;1536 x 864;1536 x 864
S017;27;Mannelijk;Links;1;61;right;no;600;rightarrow;930;true;focus;yes;214523;Chrome;104.0;Windows;10;undefined;undefined;1536 x 864;1536 x 864
S017;27;Mannelijk;Links;1;62;right;yes;600;undefined;null;true;focus;yes;216570;Chrome;104.0;Windows;10;undefined;undefined;1536 x 864;1536 x 864
S017;27;Mannelijk;Links;1;63;left;yes;650;leftarrow;892;false;focus;yes;218251;Chrome;104.0;Windows;10;undefined;undefined;1536 x 864;1536 x 864
S017;27;Mannelijk;Links;1;64;left;no;600;leftarrow;1167;true;focus;yes;220183;Chrome;104.0;Windows;10;undefined;undefined;1536 x 864;1536 x 864
S017;27;Mannelijk;Links;1;65;right;no;600;rightarrow;913;true;focus;yes;221871;Chrome;104.0;Windows;10;undefined;undefined;1536 x 864;1536 x 864
S017;27;Mannelijk;Links;1;66;right;no;600;rightarrow;1012;true;focus;yes;223652;Chrome;104.0;Windows;10;undefined;undefined;1536 x 864;1536 x 864
S017;27;Mannelijk;Links;1;67;right;yes;600;undefined;null;true;focus;yes;225688;Chrome;104.0;Windows;10;undefined;undefined;1536 x 864;1536 x 864
S017;27;Mannelijk;Links;1;68;right;no;650;rightarrow;918;true;focus;yes;227373;Chrome;104.0;Windows;10;undefined;undefined;1536 x 864;1536 x 864
S017;27;Mannelijk;Links;1;69;left;no;650;leftarrow;972;true;focus;yes;229128;Chrome;104.0;Windows;10;undefined;undefined;1536 x 864;1536 x 864
S017;27;Mannelijk;Links;1;70;left;yes;650;undefined;null;true;focus;yes;231170;Chrome;104.0;Windows;10;undefined;undefined;1536 x 864;1536 x 864
S017;27;Mannelijk;Links;1;71;left;no;700;leftarrow;1150;true;focus;yes;233089;Chrome;104.0;Windows;10;undefined;undefined;1536 x 864;1536 x 864
S017;27;Mannelijk;Links;1;72;left;no;700;leftarrow;896;true;focus;yes;234764;Chrome;104.0;Windows;10;undefined;undefined;1536 x 864;1536 x 864
S017;27;Mannelijk;Links;1;73;left;yes;700;undefined;null;true;focus;yes;236811;Chrome;104.0;Windows;10;undefined;undefined;1536 x 864;1536 x 864
S017;27;Mannelijk;Links;1;74;right;no;750;undefined;null;false;focus;yes;238862;Chrome;104.0;Windows;10;undefined;undefined;1536 x 864;1536 x 864
S017;27;Mannelijk;Links;1;75;left;no;750;leftarrow;873;true;focus;yes;240515;Chrome;104.0;Windows;10;undefined;undefined;1536 x 864;1536 x 864
S017;27;Mannelijk;Links;1;76;right;yes;750;rightarrow;941;false;focus;yes;242229;Chrome;104.0;Windows;10;undefined;undefined;1536 x 864;1536 x 864
S017;27;Mannelijk;Links;1;77;right;no;700;rightarrow;949;true;focus;yes;243948;Chrome;104.0;Windows;10;undefined;undefined;1536 x 864;1536 x 864
S017;27;Mannelijk;Links;1;78;left;no;700;leftarrow;993;true;focus;yes;245713;Chrome;104.0;Windows;10;undefined;undefined;1536 x 864;1536 x 864
S017;27;Mannelijk;Links;1;79;right;no;700;rightarrow;994;true;focus;yes;247477;Chrome;104.0;Windows;10;undefined;undefined;1536 x 864;1536 x 864
S017;27;Mannelijk;Links;1;80;left;no;700;undefined;null;false;focus;yes;249496;Chrome;104.0;Windows;10;undefined;undefined;1536 x 864;1536 x 864
S017;27;Mannelijk;Links;1;81;right;no;700;rightarrow;832;true;focus;yes;251113;Chrome;104.0;Windows;10;undefined;undefined;1536 x 864;1536 x 864
S017;27;Mannelijk;Links;1;82;right;no;700;rightarrow;1053;true;focus;yes;252946;Chrome;104.0;Windows;10;undefined;undefined;1536 x 864;1536 x 864
S017;27;Mannelijk;Links;1;83;left;no;700;leftarrow;1004;true;focus;yes;254736;Chrome;104.0;Windows;10;undefined;undefined;1536 x 864;1536 x 864
S017;27;Mannelijk;Links;1;84;right;yes;700;undefined;null;true;focus;yes;256776;Chrome;104.0;Windows;10;undefined;undefined;1536 x 864;1536 x 864
S017;27;Mannelijk;Links;1;85;left;yes;750;undefined;null;true;focus;yes;258818;Chrome;104.0;Windows;10;undefined;undefined;1536 x 864;1536 x 864
S017;27;Mannelijk;Links;1;86;left;no;800;leftarrow;935;true;focus;yes;260537;Chrome;104.0;Windows;10;undefined;undefined;1536 x 864;1536 x 864
S017;27;Mannelijk;Links;1;87;left;no;800;leftarrow;1061;true;focus;yes;262365;Chrome;104.0;Windows;10;undefined;undefined;1536 x 864;1536 x 864
S017;27;Mannelijk;Links;1;88;right;no;800;rightarrow;895;true;focus;yes;264032;Chrome;104.0;Windows;10;undefined;undefined;1536 x 864;1536 x 864
S017;27;Mannelijk;Links;1;89;left;no;800;leftarrow;934;true;focus;yes;265742;Chrome;104.0;Windows;10;undefined;undefined;1536 x 864;1536 x 864
S017;27;Mannelijk;Links;1;90;left;no;800;leftarrow;990;true;focus;yes;267497;Chrome;104.0;Windows;10;undefined;undefined;1536 x 864;1536 x 864
S017;27;Mannelijk;Links;1;91;left;yes;800;leftarrow;764;false;focus;yes;269032;Chrome;104.0;Windows;10;undefined;undefined;1536 x 864;1536 x 864
S017;27;Mannelijk;Links;1;92;right;no;750;undefined;null;false;focus;yes;271070;Chrome;104.0;Windows;10;undefined;undefined;1536 x 864;1536 x 864
S017;27;Mannelijk;Links;1;93;left;no;750;leftarrow;976;true;focus;yes;272829;Chrome;104.0;Windows;10;undefined;undefined;1536 x 864;1536 x 864
S017;27;Mannelijk;Links;1;94;right;no;750;rightarrow;936;true;focus;yes;274547;Chrome;104.0;Windows;10;undefined;undefined;1536 x 864;1536 x 864
S017;27;Mannelijk;Links;1;95;right;no;750;rightarrow;1161;true;focus;yes;276486;Chrome;104.0;Windows;10;undefined;undefined;1536 x 864;1536 x 864
S017;27;Mannelijk;Links;1;96;right;yes;750;undefined;null;true;focus;yes;278535;Chrome;104.0;Windows;10;undefined;undefined;1536 x 864;1536 x 864
S017;27;Mannelijk;Links;1;97;left;no;800;leftarrow;1056;true;focus;yes;280375;Chrome;104.0;Windows;10;undefined;undefined;1536 x 864;1536 x 864
S017;27;Mannelijk;Links;1;98;left;no;800;leftarrow;1131;true;focus;yes;282294;Chrome;104.0;Windows;10;undefined;undefined;1536 x 864;1536 x 864
S017;27;Mannelijk;Links;1;99;right;no;800;rightarrow;961;true;focus;yes;284025;Chrome;104.0;Windows;10;undefined;undefined;1536 x 864;1536 x 864
S017;27;Mannelijk;Links;1;100;left;no;800;leftarrow;1020;true;focus;yes;285820;Chrome;104.0;Windows;10;undefined;undefined;1536 x 864;1536 x 864
S017;27;Mannelijk;Links;1;101;right;yes;800;undefined;null;true;focus;yes;287857;Chrome;104.0;Windows;10;undefined;undefined;1536 x 864;1536 x 864
S017;27;Mannelijk;Links;1;102;left;yes;850;leftarrow;798;false;focus;yes;289437;Chrome;104.0;Windows;10;undefined;undefined;1536 x 864;1536 x 864
S017;27;Mannelijk;Links;1;103;right;no;800;rightarrow;1107;true;focus;yes;291314;Chrome;104.0;Windows;10;undefined;undefined;1536 x 864;1536 x 864
S017;27;Mannelijk;Links;1;104;right;no;800;rightarrow;1202;true;focus;yes;293294;Chrome;104.0;Windows;10;undefined;undefined;1536 x 864;1536 x 864
S017;27;Mannelijk;Links;1;105;right;yes;800;undefined;null;true;focus;yes;295314;Chrome;104.0;Windows;10;undefined;undefined;1536 x 864;1536 x 864
S017;27;Mannelijk;Links;1;106;right;no;850;undefined;null;false;focus;yes;297351;Chrome;104.0;Windows;10;undefined;undefined;1536 x 864;1536 x 864
S017;27;Mannelijk;Links;1;107;left;yes;850;leftarrow;1024;false;focus;yes;299171;Chrome;104.0;Windows;10;undefined;undefined;1536 x 864;1536 x 864
S017;27;Mannelijk;Links;1;108;left;no;800;leftarrow;1160;true;focus;yes;301104;Chrome;104.0;Windows;10;undefined;undefined;1536 x 864;1536 x 864
S017;27;Mannelijk;Links;1;109;left;no;800;undefined;null;false;focus;yes;303130;Chrome;104.0;Windows;10;undefined;undefined;1536 x 864;1536 x 864
S017;27;Mannelijk;Links;1;110;right;no;800;rightarrow;1044;true;focus;yes;304961;Chrome;104.0;Windows;10;undefined;undefined;1536 x 864;1536 x 864
S017;27;Mannelijk;Links;1;111;right;no;800;rightarrow;1136;true;focus;yes;306870;Chrome;104.0;Windows;10;undefined;undefined;1536 x 864;1536 x 864
S017;27;Mannelijk;Links;1;112;left;no;800;leftarrow;1135;true;focus;yes;308789;Chrome;104.0;Windows;10;undefined;undefined;1536 x 864;1536 x 864
S017;27;Mannelijk;Links;1;113;right;yes;800;undefined;null;true;focus;yes;310819;Chrome;104.0;Windows;10;undefined;undefined;1536 x 864;1536 x 864
S017;27;Mannelijk;Links;1;114;left;no;850;leftarrow;493;true;focus;yes;312094;Chrome;104.0;Windows;10;undefined;undefined;1536 x 864;1536 x 864
S017;27;Mannelijk;Links;1;115;left;no;850;leftarrow;1008;true;focus;yes;313875;Chrome;104.0;Windows;10;undefined;undefined;1536 x 864;1536 x 864
S017;27;Mannelijk;Links;1;116;right;no;850;rightarrow;1061;true;focus;yes;315703;Chrome;104.0;Windows;10;undefined;undefined;1536 x 864;1536 x 864
S017;27;Mannelijk;Links;1;117;left;no;850;undefined;null;false;focus;yes;317724;Chrome;104.0;Windows;10;undefined;undefined;1536 x 864;1536 x 864
S017;27;Mannelijk;Links;1;118;left;yes;850;undefined;null;true;focus;yes;319752;Chrome;104.0;Windows;10;undefined;undefined;1536 x 864;1536 x 864
S017;27;Mannelijk;Links;1;119;right;no;900;rightarrow;1089;true;focus;yes;321628;Chrome;104.0;Windows;10;undefined;undefined;1536 x 864;1536 x 864
S017;27;Mannelijk;Links;1;120;right;no;900;rightarrow;1165;true;focus;yes;323571;Chrome;104.0;Windows;10;undefined;undefined;1536 x 864;1536 x 864
S017;27;Mannelijk;Links;1;121;right;no;900;undefined;null;false;focus;yes;325609;Chrome;104.0;Windows;10;undefined;undefined;1536 x 864;1536 x 864
S017;27;Mannelijk;Links;1;122;right;no;900;rightarrow;660;true;focus;yes;327048;Chrome;104.0;Windows;10;undefined;undefined;1536 x 864;1536 x 864
S017;27;Mannelijk;Links;1;123;left;yes;900;leftarrow;723;false;focus;yes;328542;Chrome;104.0;Windows;10;undefined;undefined;1536 x 864;1536 x 864
S017;27;Mannelijk;Links;1;124;right;no;850;rightarrow;898;true;focus;yes;330226;Chrome;104.0;Windows;10;undefined;undefined;1536 x 864;1536 x 864
S017;27;Mannelijk;Links;1;125;left;no;850;leftarrow;990;true;focus;yes;332000;Chrome;104.0;Windows;10;undefined;undefined;1536 x 864;1536 x 864
S017;27;Mannelijk;Links;1;126;right;yes;850;undefined;null;true;focus;yes;334055;Chrome;104.0;Windows;10;undefined;undefined;1536 x 864;1536 x 864
S017;27;Mannelijk;Links;1;127;left;no;900;leftarrow;858;true;focus;yes;335692;Chrome;104.0;Windows;10;undefined;undefined;1536 x 864;1536 x 864
S017;27;Mannelijk;Links;1;128;left;no;900;undefined;null;false;focus;yes;337722;Chrome;104.0;Windows;10;undefined;undefined;1536 x 864;1536 x 864
S017;27;Mannelijk;Links;2;1;left;yes;900;leftarrow;502;false;focus;yes;365613;Chrome;104.0;Windows;10;undefined;undefined;1536 x 864;1536 x 864
S017;27;Mannelijk;Links;2;2;right;no;850;rightarrow;367;true;focus;yes;366750;Chrome;104.0;Windows;10;undefined;undefined;1536 x 864;1536 x 864
S017;27;Mannelijk;Links;2;3;left;no;850;leftarrow;413;true;focus;yes;367947;Chrome;104.0;Windows;10;undefined;undefined;1536 x 864;1536 x 864
S017;27;Mannelijk;Links;2;4;right;no;850;rightarrow;354;true;focus;yes;369094;Chrome;104.0;Windows;10;undefined;undefined;1536 x 864;1536 x 864
S017;27;Mannelijk;Links;2;5;right;no;850;rightarrow;469;true;focus;yes;370348;Chrome;104.0;Windows;10;undefined;undefined;1536 x 864;1536 x 864
S017;27;Mannelijk;Links;2;6;right;yes;850;rightarrow;970;false;focus;yes;372094;Chrome;104.0;Windows;10;undefined;undefined;1536 x 864;1536 x 864
S017;27;Mannelijk;Links;2;7;left;no;800;leftarrow;1126;true;focus;yes;374003;Chrome;104.0;Windows;10;undefined;undefined;1536 x 864;1536 x 864
S017;27;Mannelijk;Links;2;8;left;no;800;leftarrow;972;true;focus;yes;375743;Chrome;104.0;Windows;10;undefined;undefined;1536 x 864;1536 x 864
S017;27;Mannelijk;Links;2;9;right;yes;800;undefined;null;true;focus;yes;377792;Chrome;104.0;Windows;10;undefined;undefined;1536 x 864;1536 x 864
S017;27;Mannelijk;Links;2;10;left;no;850;leftarrow;879;true;focus;yes;379454;Chrome;104.0;Windows;10;undefined;undefined;1536 x 864;1536 x 864
S017;27;Mannelijk;Links;2;11;right;no;850;rightarrow;1214;true;focus;yes;381454;Chrome;104.0;Windows;10;undefined;undefined;1536 x 864;1536 x 864
S017;27;Mannelijk;Links;2;12;right;no;850;undefined;null;false;focus;yes;383495;Chrome;104.0;Windows;10;undefined;undefined;1536 x 864;1536 x 864
S017;27;Mannelijk;Links;2;13;left;no;850;leftarrow;673;true;focus;yes;384943;Chrome;104.0;Windows;10;undefined;undefined;1536 x 864;1536 x 864
S017;27;Mannelijk;Links;2;14;right;no;850;rightarrow;764;true;focus;yes;386484;Chrome;104.0;Windows;10;undefined;undefined;1536 x 864;1536 x 864
S017;27;Mannelijk;Links;2;15;left;yes;850;leftarrow;730;false;focus;yes;387999;Chrome;104.0;Windows;10;undefined;undefined;1536 x 864;1536 x 864
S017;27;Mannelijk;Links;2;16;left;no;800;leftarrow;845;true;focus;yes;389633;Chrome;104.0;Windows;10;undefined;undefined;1536 x 864;1536 x 864
S017;27;Mannelijk;Links;2;17;right;no;800;rightarrow;762;true;focus;yes;391176;Chrome;104.0;Windows;10;undefined;undefined;1536 x 864;1536 x 864
S017;27;Mannelijk;Links;2;18;right;yes;800;rightarrow;789;false;focus;yes;392754;Chrome;104.0;Windows;10;undefined;undefined;1536 x 864;1536 x 864
S017;27;Mannelijk;Links;2;19;left;yes;750;leftarrow;719;false;focus;yes;394243;Chrome;104.0;Windows;10;undefined;undefined;1536 x 864;1536 x 864
S017;27;Mannelijk;Links;2;20;left;no;700;leftarrow;895;true;focus;yes;395923;Chrome;104.0;Windows;10;undefined;undefined;1536 x 864;1536 x 864
S017;27;Mannelijk;Links;2;21;right;no;700;rightarrow;813;true;focus;yes;397519;Chrome;104.0;Windows;10;undefined;undefined;1536 x 864;1536 x 864
S017;27;Mannelijk;Links;2;22;left;no;700;leftarrow;812;true;focus;yes;399100;Chrome;104.0;Windows;10;undefined;undefined;1536 x 864;1536 x 864
S017;27;Mannelijk;Links;2;23;right;no;700;rightarrow;687;true;focus;yes;400566;Chrome;104.0;Windows;10;undefined;undefined;1536 x 864;1536 x 864
S017;27;Mannelijk;Links;2;24;left;no;700;leftarrow;953;true;focus;yes;402293;Chrome;104.0;Windows;10;undefined;undefined;1536 x 864;1536 x 864
S017;27;Mannelijk;Links;2;25;left;no;700;leftarrow;842;true;focus;yes;403901;Chrome;104.0;Windows;10;undefined;undefined;1536 x 864;1536 x 864
S017;27;Mannelijk;Links;2;26;right;no;700;rightarrow;787;true;focus;yes;405474;Chrome;104.0;Windows;10;undefined;undefined;1536 x 864;1536 x 864
S017;27;Mannelijk;Links;2;27;right;no;700;rightarrow;942;true;focus;yes;407199;Chrome;104.0;Windows;10;undefined;undefined;1536 x 864;1536 x 864
S017;27;Mannelijk;Links;2;28;right;no;700;rightarrow;1022;true;focus;yes;408995;Chrome;104.0;Windows;10;undefined;undefined;1536 x 864;1536 x 864
S017;27;Mannelijk;Links;2;29;left;no;700;leftarrow;1056;true;focus;yes;410842;Chrome;104.0;Windows;10;undefined;undefined;1536 x 864;1536 x 864
S017;27;Mannelijk;Links;2;30;left;no;700;leftarrow;966;true;focus;yes;412595;Chrome;104.0;Windows;10;undefined;undefined;1536 x 864;1536 x 864
S017;27;Mannelijk;Links;2;31;right;yes;700;undefined;null;true;focus;yes;414615;Chrome;104.0;Windows;10;undefined;undefined;1536 x 864;1536 x 864
S017;27;Mannelijk;Links;2;32;left;yes;750;leftarrow;861;false;focus;yes;416253;Chrome;104.0;Windows;10;undefined;undefined;1536 x 864;1536 x 864
S017;27;Mannelijk;Links;2;33;left;no;700;leftarrow;1135;true;focus;yes;418178;Chrome;104.0;Windows;10;undefined;undefined;1536 x 864;1536 x 864
S017;27;Mannelijk;Links;2;34;left;yes;700;undefined;null;true;focus;yes;420201;Chrome;104.0;Windows;10;undefined;undefined;1536 x 864;1536 x 864
S017;27;Mannelijk;Links;2;35;right;no;750;rightarrow;803;true;focus;yes;421782;Chrome;104.0;Windows;10;undefined;undefined;1536 x 864;1536 x 864
S017;27;Mannelijk;Links;2;36;right;no;750;rightarrow;1121;true;focus;yes;423681;Chrome;104.0;Windows;10;undefined;undefined;1536 x 864;1536 x 864
S017;27;Mannelijk;Links;2;37;left;no;750;leftarrow;1056;true;focus;yes;425516;Chrome;104.0;Windows;10;undefined;undefined;1536 x 864;1536 x 864
S017;27;Mannelijk;Links;2;38;right;yes;750;undefined;null;true;focus;yes;427560;Chrome;104.0;Windows;10;undefined;undefined;1536 x 864;1536 x 864
S017;27;Mannelijk;Links;2;39;left;no;800;leftarrow;824;true;focus;yes;429163;Chrome;104.0;Windows;10;undefined;undefined;1536 x 864;1536 x 864
S017;27;Mannelijk;Links;2;40;right;no;800;rightarrow;1027;true;focus;yes;430976;Chrome;104.0;Windows;10;undefined;undefined;1536 x 864;1536 x 864
S017;27;Mannelijk;Links;2;41;right;no;800;rightarrow;1143;true;focus;yes;432894;Chrome;104.0;Windows;10;undefined;undefined;1536 x 864;1536 x 864
S017;27;Mannelijk;Links;2;42;right;no;800;rightarrow;1139;true;focus;yes;434816;Chrome;104.0;Windows;10;undefined;undefined;1536 x 864;1536 x 864
S017;27;Mannelijk;Links;2;43;right;no;800;rightarrow;1130;true;focus;yes;436728;Chrome;104.0;Windows;10;undefined;undefined;1536 x 864;1536 x 864
S017;27;Mannelijk;Links;2;44;left;no;800;undefined;null;false;focus;yes;438764;Chrome;104.0;Windows;10;undefined;undefined;1536 x 864;1536 x 864
S017;27;Mannelijk;Links;2;45;left;yes;800;undefined;null;true;focus;yes;440795;Chrome;104.0;Windows;10;undefined;undefined;1536 x 864;1536 x 864
S017;27;Mannelijk;Links;2;46;left;no;850;leftarrow;998;true;focus;yes;442566;Chrome;104.0;Windows;10;undefined;undefined;1536 x 864;1536 x 864
S017;27;Mannelijk;Links;2;47;left;no;850;leftarrow;1005;true;focus;yes;444352;Chrome;104.0;Windows;10;undefined;undefined;1536 x 864;1536 x 864
S017;27;Mannelijk;Links;2;48;right;yes;850;rightarrow;967;false;focus;yes;446089;Chrome;104.0;Windows;10;undefined;undefined;1536 x 864;1536 x 864
S017;27;Mannelijk;Links;2;49;right;no;800;rightarrow;832;true;focus;yes;447692;Chrome;104.0;Windows;10;undefined;undefined;1536 x 864;1536 x 864
S017;27;Mannelijk;Links;2;50;right;yes;800;rightarrow;734;false;focus;yes;449219;Chrome;104.0;Windows;10;undefined;undefined;1536 x 864;1536 x 864
S017;27;Mannelijk;Links;2;51;left;no;750;leftarrow;322;true;focus;yes;450315;Chrome;104.0;Windows;10;undefined;undefined;1536 x 864;1536 x 864
S017;27;Mannelijk;Links;2;52;left;no;750;leftarrow;450;true;focus;yes;451544;Chrome;104.0;Windows;10;undefined;undefined;1536 x 864;1536 x 864
S017;27;Mannelijk;Links;2;53;left;no;750;leftarrow;376;true;focus;yes;452710;Chrome;104.0;Windows;10;undefined;undefined;1536 x 864;1536 x 864
S017;27;Mannelijk;Links;2;54;right;no;750;rightarrow;375;true;focus;yes;453869;Chrome;104.0;Windows;10;undefined;undefined;1536 x 864;1536 x 864
S017;27;Mannelijk;Links;2;55;right;no;750;rightarrow;416;true;focus;yes;455062;Chrome;104.0;Windows;10;undefined;undefined;1536 x 864;1536 x 864
S017;27;Mannelijk;Links;2;56;left;yes;750;leftarrow;402;false;focus;yes;456243;Chrome;104.0;Windows;10;undefined;undefined;1536 x 864;1536 x 864
S017;27;Mannelijk;Links;2;57;right;yes;700;rightarrow;358;false;focus;yes;457387;Chrome;104.0;Windows;10;undefined;undefined;1536 x 864;1536 x 864
S017;27;Mannelijk;Links;2;58;right;no;650;rightarrow;386;true;focus;yes;458558;Chrome;104.0;Windows;10;undefined;undefined;1536 x 864;1536 x 864
S017;27;Mannelijk;Links;2;59;left;no;650;leftarrow;370;true;focus;yes;459715;Chrome;104.0;Windows;10;undefined;undefined;1536 x 864;1536 x 864
S017;27;Mannelijk;Links;2;60;right;no;650;rightarrow;318;true;focus;yes;460821;Chrome;104.0;Windows;10;undefined;undefined;1536 x 864;1536 x 864
S017;27;Mannelijk;Links;2;61;left;yes;650;leftarrow;341;false;focus;yes;461956;Chrome;104.0;Windows;10;undefined;undefined;1536 x 864;1536 x 864
S017;27;Mannelijk;Links;2;62;left;no;600;leftarrow;1167;true;focus;yes;463904;Chrome;104.0;Windows;10;undefined;undefined;1536 x 864;1536 x 864
S017;27;Mannelijk;Links;2;63;right;no;600;rightarrow;951;true;focus;yes;465630;Chrome;104.0;Windows;10;undefined;undefined;1536 x 864;1536 x 864
S017;27;Mannelijk;Links;2;64;left;no;600;undefined;null;false;focus;yes;467671;Chrome;104.0;Windows;10;undefined;undefined;1536 x 864;1536 x 864
S017;27;Mannelijk;Links;2;65;right;no;600;rightarrow;1058;true;focus;yes;469509;Chrome;104.0;Windows;10;undefined;undefined;1536 x 864;1536 x 864
S017;27;Mannelijk;Links;2;66;left;no;600;leftarrow;1103;true;focus;yes;471400;Chrome;104.0;Windows;10;undefined;undefined;1536 x 864;1536 x 864
S017;27;Mannelijk;Links;2;67;left;no;600;undefined;null;false;focus;yes;473431;Chrome;104.0;Windows;10;undefined;undefined;1536 x 864;1536 x 864
S017;27;Mannelijk;Links;2;68;right;yes;600;undefined;null;true;focus;yes;475467;Chrome;104.0;Windows;10;undefined;undefined;1536 x 864;1536 x 864
S017;27;Mannelijk;Links;2;69;right;no;650;rightarrow;731;true;focus;yes;476985;Chrome;104.0;Windows;10;undefined;undefined;1536 x 864;1536 x 864
S017;27;Mannelijk;Links;2;70;right;no;650;rightarrow;1159;true;focus;yes;478935;Chrome;104.0;Windows;10;undefined;undefined;1536 x 864;1536 x 864
S017;27;Mannelijk;Links;2;71;left;yes;650;undefined;null;true;focus;yes;480968;Chrome;104.0;Windows;10;undefined;undefined;1536 x 864;1536 x 864
S017;27;Mannelijk;Links;2;72;left;no;700;leftarrow;969;true;focus;yes;482723;Chrome;104.0;Windows;10;undefined;undefined;1536 x 864;1536 x 864
S017;27;Mannelijk;Links;2;73;left;no;700;leftarrow;1101;true;focus;yes;484603;Chrome;104.0;Windows;10;undefined;undefined;1536 x 864;1536 x 864
S017;27;Mannelijk;Links;2;74;right;yes;700;undefined;null;true;focus;yes;486639;Chrome;104.0;Windows;10;undefined;undefined;1536 x 864;1536 x 864
S017;27;Mannelijk;Links;2;75;right;no;750;rightarrow;859;true;focus;yes;488282;Chrome;104.0;Windows;10;undefined;undefined;1536 x 864;1536 x 864
S017;27;Mannelijk;Links;2;76;right;no;750;rightarrow;1046;true;focus;yes;490114;Chrome;104.0;Windows;10;undefined;undefined;1536 x 864;1536 x 864
S017;27;Mannelijk;Links;2;77;left;no;750;undefined;null;false;focus;yes;492148;Chrome;104.0;Windows;10;undefined;undefined;1536 x 864;1536 x 864
S017;27;Mannelijk;Links;2;78;left;yes;750;undefined;null;true;focus;yes;494170;Chrome;104.0;Windows;10;undefined;undefined;1536 x 864;1536 x 864
S017;27;Mannelijk;Links;2;79;left;no;800;undefined;null;false;focus;yes;496198;Chrome;104.0;Windows;10;undefined;undefined;1536 x 864;1536 x 864
S017;27;Mannelijk;Links;2;80;right;no;800;rightarrow;478;true;focus;yes;497464;Chrome;104.0;Windows;10;undefined;undefined;1536 x 864;1536 x 864
S017;27;Mannelijk;Links;2;81;left;no;800;leftarrow;389;true;focus;yes;498634;Chrome;104.0;Windows;10;undefined;undefined;1536 x 864;1536 x 864
S017;27;Mannelijk;Links;2;82;right;no;800;rightarrow;339;true;focus;yes;499751;Chrome;104.0;Windows;10;undefined;undefined;1536 x 864;1536 x 864
S017;27;Mannelijk;Links;2;83;left;yes;800;undefined;null;true;focus;yes;501779;Chrome;104.0;Windows;10;undefined;undefined;1536 x 864;1536 x 864
S017;27;Mannelijk;Links;2;84;right;no;850;rightarrow;972;true;focus;yes;503524;Chrome;104.0;Windows;10;undefined;undefined;1536 x 864;1536 x 864
S017;27;Mannelijk;Links;2;85;right;yes;850;undefined;null;true;focus;yes;505558;Chrome;104.0;Windows;10;undefined;undefined;1536 x 864;1536 x 864
S017;27;Mannelijk;Links;2;86;right;no;900;rightarrow;1135;true;focus;yes;507474;Chrome;104.0;Windows;10;undefined;undefined;1536 x 864;1536 x 864
S017;27;Mannelijk;Links;2;87;left;no;900;leftarrow;1026;true;focus;yes;509274;Chrome;104.0;Windows;10;undefined;undefined;1536 x 864;1536 x 864
S017;27;Mannelijk;Links;2;88;left;no;900;undefined;null;false;focus;yes;511315;Chrome;104.0;Windows;10;undefined;undefined;1536 x 864;1536 x 864
S017;27;Mannelijk;Links;2;89;left;no;900;undefined;null;false;focus;yes;513355;Chrome;104.0;Windows;10;undefined;undefined;1536 x 864;1536 x 864
S017;27;Mannelijk;Links;2;90;left;no;900;leftarrow;897;true;focus;yes;515028;Chrome;104.0;Windows;10;undefined;undefined;1536 x 864;1536 x 864
S017;27;Mannelijk;Links;2;91;right;no;900;rightarrow;958;true;focus;yes;516774;Chrome;104.0;Windows;10;undefined;undefined;1536 x 864;1536 x 864
S017;27;Mannelijk;Links;2;92;left;yes;900;leftarrow;877;false;focus;yes;518429;Chrome;104.0;Windows;10;undefined;undefined;1536 x 864;1536 x 864
S017;27;Mannelijk;Links;2;93;left;no;850;leftarrow;875;true;focus;yes;520081;Chrome;104.0;Windows;10;undefined;undefined;1536 x 864;1536 x 864
S017;27;Mannelijk;Links;2;94;right;no;850;rightarrow;1018;true;focus;yes;521890;Chrome;104.0;Windows;10;undefined;undefined;1536 x 864;1536 x 864
S017;27;Mannelijk;Links;2;95;right;no;850;rightarrow;1043;true;focus;yes;523710;Chrome;104.0;Windows;10;undefined;undefined;1536 x 864;1536 x 864
S017;27;Mannelijk;Links;2;96;right;yes;850;rightarrow;1171;false;focus;yes;525653;Chrome;104.0;Windows;10;undefined;undefined;1536 x 864;1536 x 864
S017;27;Mannelijk;Links;2;97;left;no;800;leftarrow;840;true;focus;yes;527262;Chrome;104.0;Windows;10;undefined;undefined;1536 x 864;1536 x 864
S017;27;Mannelijk;Links;2;98;right;no;800;rightarrow;778;true;focus;yes;528816;Chrome;104.0;Windows;10;undefined;undefined;1536 x 864;1536 x 864
S017;27;Mannelijk;Links;2;99;left;no;800;leftarrow;740;true;focus;yes;530336;Chrome;104.0;Windows;10;undefined;undefined;1536 x 864;1536 x 864
S017;27;Mannelijk;Links;2;100;left;no;800;leftarrow;989;true;focus;yes;532117;Chrome;104.0;Windows;10;undefined;undefined;1536 x 864;1536 x 864
S017;27;Mannelijk;Links;2;101;left;yes;800;leftarrow;984;false;focus;yes;533888;Chrome;104.0;Windows;10;undefined;undefined;1536 x 864;1536 x 864
S017;27;Mannelijk;Links;2;102;right;yes;750;undefined;null;true;focus;yes;535926;Chrome;104.0;Windows;10;undefined;undefined;1536 x 864;1536 x 864
S017;27;Mannelijk;Links;2;103;right;no;800;rightarrow;1188;true;focus;yes;537907;Chrome;104.0;Windows;10;undefined;undefined;1536 x 864;1536 x 864
S017;27;Mannelijk;Links;2;104;right;no;800;rightarrow;1246;true;focus;yes;539930;Chrome;104.0;Windows;10;undefined;undefined;1536 x 864;1536 x 864
S017;27;Mannelijk;Links;2;105;right;yes;800;undefined;null;true;focus;yes;541968;Chrome;104.0;Windows;10;undefined;undefined;1536 x 864;1536 x 864
S017;27;Mannelijk;Links;2;106;left;no;850;leftarrow;741;true;focus;yes;543498;Chrome;104.0;Windows;10;undefined;undefined;1536 x 864;1536 x 864
S017;27;Mannelijk;Links;2;107;left;yes;850;undefined;null;true;focus;yes;545553;Chrome;104.0;Windows;10;undefined;undefined;1536 x 864;1536 x 864
S017;27;Mannelijk;Links;2;108;left;no;900;undefined;null;false;focus;yes;547578;Chrome;104.0;Windows;10;undefined;undefined;1536 x 864;1536 x 864
S017;27;Mannelijk;Links;2;109;right;no;900;rightarrow;725;true;focus;yes;549090;Chrome;104.0;Windows;10;undefined;undefined;1536 x 864;1536 x 864
S017;27;Mannelijk;Links;2;110;right;no;900;rightarrow;752;true;focus;yes;550610;Chrome;104.0;Windows;10;undefined;undefined;1536 x 864;1536 x 864
S017;27;Mannelijk;Links;2;111;left;no;900;leftarrow;370;true;focus;yes;551760;Chrome;104.0;Windows;10;undefined;undefined;1536 x 864;1536 x 864
S017;27;Mannelijk;Links;2;112;right;no;900;rightarrow;530;true;focus;yes;553063;Chrome;104.0;Windows;10;undefined;undefined;1536 x 864;1536 x 864
S017;27;Mannelijk;Links;2;113;right;no;900;rightarrow;517;true;focus;yes;554355;Chrome;104.0;Windows;10;undefined;undefined;1536 x 864;1536 x 864
S017;27;Mannelijk;Links;2;114;right;no;900;rightarrow;342;true;focus;yes;555479;Chrome;104.0;Windows;10;undefined;undefined;1536 x 864;1536 x 864
S017;27;Mannelijk;Links;2;115;left;no;900;leftarrow;282;true;focus;yes;556533;Chrome;104.0;Windows;10;undefined;undefined;1536 x 864;1536 x 864
S017;27;Mannelijk;Links;2;116;right;no;900;rightarrow;311;true;focus;yes;557618;Chrome;104.0;Windows;10;undefined;undefined;1536 x 864;1536 x 864
S017;27;Mannelijk;Links;2;117;left;no;900;leftarrow;333;true;focus;yes;558729;Chrome;104.0;Windows;10;undefined;undefined;1536 x 864;1536 x 864
S017;27;Mannelijk;Links;2;118;right;yes;900;rightarrow;343;false;focus;yes;559858;Chrome;104.0;Windows;10;undefined;undefined;1536 x 864;1536 x 864
S017;27;Mannelijk;Links;2;119;left;no;850;leftarrow;427;true;focus;yes;561071;Chrome;104.0;Windows;10;undefined;undefined;1536 x 864;1536 x 864
S017;27;Mannelijk;Links;2;120;left;yes;850;leftarrow;428;false;focus;yes;562275;Chrome;104.0;Windows;10;undefined;undefined;1536 x 864;1536 x 864
S017;27;Mannelijk;Links;2;121;right;yes;800;rightarrow;356;false;focus;yes;563420;Chrome;104.0;Windows;10;undefined;undefined;1536 x 864;1536 x 864
S017;27;Mannelijk;Links;2;122;right;no;750;rightarrow;921;true;focus;yes;565128;Chrome;104.0;Windows;10;undefined;undefined;1536 x 864;1536 x 864
S017;27;Mannelijk;Links;2;123;left;no;750;leftarrow;882;true;focus;yes;566788;Chrome;104.0;Windows;10;undefined;undefined;1536 x 864;1536 x 864
S017;27;Mannelijk;Links;2;124;right;no;750;rightarrow;960;true;focus;yes;568535;Chrome;104.0;Windows;10;undefined;undefined;1536 x 864;1536 x 864
S017;27;Mannelijk;Links;2;125;left;no;750;leftarrow;871;true;focus;yes;570195;Chrome;104.0;Windows;10;undefined;undefined;1536 x 864;1536 x 864
S017;27;Mannelijk;Links;2;126;left;no;750;leftarrow;549;true;focus;yes;571523;Chrome;104.0;Windows;10;undefined;undefined;1536 x 864;1536 x 864
S017;27;Mannelijk;Links;2;127;left;yes;750;leftarrow;553;false;focus;yes;572865;Chrome;104.0;Windows;10;undefined;undefined;1536 x 864;1536 x 864
S017;27;Mannelijk;Links;2;128;right;no;700;rightarrow;861;true;focus;yes;574514;Chrome;104.0;Windows;10;undefined;undefined;1536 x 864;1536 x 864
S017;27;Mannelijk;Links;3;1;right;no;700;rightarrow;466;true;focus;yes;594522;Chrome;104.0;Windows;10;undefined;undefined;1536 x 864;1536 x 864
S017;27;Mannelijk;Links;3;2;left;no;700;undefined;null;false;focus;yes;596570;Chrome;104.0;Windows;10;undefined;undefined;1536 x 864;1536 x 864
S017;27;Mannelijk;Links;3;3;right;no;700;rightarrow;1106;true;focus;yes;598462;Chrome;104.0;Windows;10;undefined;undefined;1536 x 864;1536 x 864
S017;27;Mannelijk;Links;3;4;left;no;700;leftarrow;1205;true;focus;yes;600458;Chrome;104.0;Windows;10;undefined;undefined;1536 x 864;1536 x 864
S017;27;Mannelijk;Links;3;5;left;no;700;leftarrow;1208;true;focus;yes;602438;Chrome;104.0;Windows;10;undefined;undefined;1536 x 864;1536 x 864
S017;27;Mannelijk;Links;3;6;right;yes;700;undefined;null;true;focus;yes;604479;Chrome;104.0;Windows;10;undefined;undefined;1536 x 864;1536 x 864
S017;27;Mannelijk;Links;3;7;right;no;750;rightarrow;1026;true;focus;yes;606282;Chrome;104.0;Windows;10;undefined;undefined;1536 x 864;1536 x 864
S017;27;Mannelijk;Links;3;8;left;yes;750;leftarrow;1142;false;focus;yes;608206;Chrome;104.0;Windows;10;undefined;undefined;1536 x 864;1536 x 864
S017;27;Mannelijk;Links;3;9;right;no;700;rightarrow;1063;true;focus;yes;610055;Chrome;104.0;Windows;10;undefined;undefined;1536 x 864;1536 x 864
S017;27;Mannelijk;Links;3;10;left;no;700;leftarrow;1177;true;focus;yes;612018;Chrome;104.0;Windows;10;undefined;undefined;1536 x 864;1536 x 864
S017;27;Mannelijk;Links;3;11;left;no;700;leftarrow;1130;true;focus;yes;613933;Chrome;104.0;Windows;10;undefined;undefined;1536 x 864;1536 x 864
S017;27;Mannelijk;Links;3;12;right;no;700;rightarrow;1127;true;focus;yes;615841;Chrome;104.0;Windows;10;undefined;undefined;1536 x 864;1536 x 864
S017;27;Mannelijk;Links;3;13;right;yes;700;undefined;null;true;focus;yes;617876;Chrome;104.0;Windows;10;undefined;undefined;1536 x 864;1536 x 864
S017;27;Mannelijk;Links;3;14;left;yes;750;leftarrow;896;false;focus;yes;619552;Chrome;104.0;Windows;10;undefined;undefined;1536 x 864;1536 x 864
S017;27;Mannelijk;Links;3;15;left;no;700;leftarrow;1203;true;focus;yes;621540;Chrome;104.0;Windows;10;undefined;undefined;1536 x 864;1536 x 864
S017;27;Mannelijk;Links;3;16;right;no;700;rightarrow;1155;true;focus;yes;623472;Chrome;104.0;Windows;10;undefined;undefined;1536 x 864;1536 x 864
S017;27;Mannelijk;Links;3;17;left;no;700;leftarrow;1125;true;focus;yes;625385;Chrome;104.0;Windows;10;undefined;undefined;1536 x 864;1536 x 864
S017;27;Mannelijk;Links;3;18;right;yes;700;undefined;null;true;focus;yes;627428;Chrome;104.0;Windows;10;undefined;undefined;1536 x 864;1536 x 864
S017;27;Mannelijk;Links;3;19;left;no;750;leftarrow;1111;true;focus;yes;629326;Chrome;104.0;Windows;10;undefined;undefined;1536 x 864;1536 x 864
S017;27;Mannelijk;Links;3;20;right;no;750;rightarrow;1244;true;focus;yes;631340;Chrome;104.0;Windows;10;undefined;undefined;1536 x 864;1536 x 864
S017;27;Mannelijk;Links;3;21;left;no;750;leftarrow;977;true;focus;yes;633102;Chrome;104.0;Windows;10;undefined;undefined;1536 x 864;1536 x 864
S017;27;Mannelijk;Links;3;22;right;no;750;rightarrow;972;true;focus;yes;634863;Chrome;104.0;Windows;10;undefined;undefined;1536 x 864;1536 x 864
S017;27;Mannelijk;Links;3;23;left;yes;750;undefined;null;true;focus;yes;636902;Chrome;104.0;Windows;10;undefined;undefined;1536 x 864;1536 x 864
S017;27;Mannelijk;Links;3;24;right;no;800;rightarrow;1142;true;focus;yes;638825;Chrome;104.0;Windows;10;undefined;undefined;1536 x 864;1536 x 864
S017;27;Mannelijk;Links;3;25;left;no;800;leftarrow;1054;true;focus;yes;640658;Chrome;104.0;Windows;10;undefined;undefined;1536 x 864;1536 x 864
S017;27;Mannelijk;Links;3;26;left;no;800;leftarrow;1155;true;focus;yes;642595;Chrome;104.0;Windows;10;undefined;undefined;1536 x 864;1536 x 864
S017;27;Mannelijk;Links;3;27;right;no;800;rightarrow;1129;true;focus;yes;644504;Chrome;104.0;Windows;10;undefined;undefined;1536 x 864;1536 x 864
S017;27;Mannelijk;Links;3;28;right;no;800;undefined;null;false;focus;yes;646541;Chrome;104.0;Windows;10;undefined;undefined;1536 x 864;1536 x 864
S017;27;Mannelijk;Links;3;29;right;yes;800;undefined;null;true;focus;yes;648564;Chrome;104.0;Windows;10;undefined;undefined;1536 x 864;1536 x 864
S017;27;Mannelijk;Links;3;30;left;yes;850;leftarrow;1001;false;focus;yes;650340;Chrome;104.0;Windows;10;undefined;undefined;1536 x 864;1536 x 864
S017;27;Mannelijk;Links;3;31;left;no;800;undefined;null;false;focus;yes;652383;Chrome;104.0;Windows;10;undefined;undefined;1536 x 864;1536 x 864
S017;27;Mannelijk;Links;3;32;right;no;800;undefined;null;false;focus;yes;654414;Chrome;104.0;Windows;10;undefined;undefined;1536 x 864;1536 x 864
S017;27;Mannelijk;Links;3;33;right;no;800;rightarrow;833;true;focus;yes;656027;Chrome;104.0;Windows;10;undefined;undefined;1536 x 864;1536 x 864
S017;27;Mannelijk;Links;3;34;left;no;800;leftarrow;804;true;focus;yes;657616;Chrome;104.0;Windows;10;undefined;undefined;1536 x 864;1536 x 864
S017;27;Mannelijk;Links;3;35;right;no;800;rightarrow;858;true;focus;yes;659264;Chrome;104.0;Windows;10;undefined;undefined;1536 x 864;1536 x 864
S017;27;Mannelijk;Links;3;36;left;yes;800;undefined;null;true;focus;yes;661304;Chrome;104.0;Windows;10;undefined;undefined;1536 x 864;1536 x 864
S017;27;Mannelijk;Links;3;37;left;no;850;leftarrow;915;true;focus;yes;662998;Chrome;104.0;Windows;10;undefined;undefined;1536 x 864;1536 x 864
S017;27;Mannelijk;Links;3;38;right;yes;850;rightarrow;981;false;focus;yes;664760;Chrome;104.0;Windows;10;undefined;undefined;1536 x 864;1536 x 864
S017;27;Mannelijk;Links;3;39;right;no;800;rightarrow;1013;true;focus;yes;666548;Chrome;104.0;Windows;10;undefined;undefined;1536 x 864;1536 x 864
S017;27;Mannelijk;Links;3;40;left;no;800;leftarrow;1095;true;focus;yes;668425;Chrome;104.0;Windows;10;undefined;undefined;1536 x 864;1536 x 864
S017;27;Mannelijk;Links;3;41;right;no;800;rightarrow;999;true;focus;yes;670202;Chrome;104.0;Windows;10;undefined;undefined;1536 x 864;1536 x 864
S017;27;Mannelijk;Links;3;42;left;no;800;undefined;null;false;focus;yes;672230;Chrome;104.0;Windows;10;undefined;undefined;1536 x 864;1536 x 864
S017;27;Mannelijk;Links;3;43;right;yes;800;undefined;null;true;focus;yes;674276;Chrome;104.0;Windows;10;undefined;undefined;1536 x 864;1536 x 864
S017;27;Mannelijk;Links;3;44;right;no;850;rightarrow;1043;true;focus;yes;676099;Chrome;104.0;Windows;10;undefined;undefined;1536 x 864;1536 x 864
S017;27;Mannelijk;Links;3;45;left;yes;850;undefined;null;true;focus;yes;678136;Chrome;104.0;Windows;10;undefined;undefined;1536 x 864;1536 x 864
S017;27;Mannelijk;Links;3;46;left;no;900;leftarrow;1000;true;focus;yes;679925;Chrome;104.0;Windows;10;undefined;undefined;1536 x 864;1536 x 864
S017;27;Mannelijk;Links;3;47;left;no;900;undefined;null;false;focus;yes;681964;Chrome;104.0;Windows;10;undefined;undefined;1536 x 864;1536 x 864
S017;27;Mannelijk;Links;3;48;right;no;900;rightarrow;1019;true;focus;yes;683761;Chrome;104.0;Windows;10;undefined;undefined;1536 x 864;1536 x 864
S017;27;Mannelijk;Links;3;49;right;yes;900;rightarrow;1224;false;focus;yes;685775;Chrome;104.0;Windows;10;undefined;undefined;1536 x 864;1536 x 864
S017;27;Mannelijk;Links;3;50;right;no;850;rightarrow;981;true;focus;yes;687539;Chrome;104.0;Windows;10;undefined;undefined;1536 x 864;1536 x 864
S017;27;Mannelijk;Links;3;51;left;no;850;leftarrow;1262;true;focus;yes;689579;Chrome;104.0;Windows;10;undefined;undefined;1536 x 864;1536 x 864
S017;27;Mannelijk;Links;3;52;right;no;850;rightarrow;1058;true;focus;yes;691413;Chrome;104.0;Windows;10;undefined;undefined;1536 x 864;1536 x 864
S017;27;Mannelijk;Links;3;53;left;no;850;leftarrow;1174;true;focus;yes;693361;Chrome;104.0;Windows;10;undefined;undefined;1536 x 864;1536 x 864
S017;27;Mannelijk;Links;3;54;right;no;850;rightarrow;1038;true;focus;yes;695170;Chrome;104.0;Windows;10;undefined;undefined;1536 x 864;1536 x 864
S017;27;Mannelijk;Links;3;55;left;no;850;leftarrow;929;true;focus;yes;696880;Chrome;104.0;Windows;10;undefined;undefined;1536 x 864;1536 x 864
S017;27;Mannelijk;Links;3;56;left;yes;850;leftarrow;1020;false;focus;yes;698672;Chrome;104.0;Windows;10;undefined;undefined;1536 x 864;1536 x 864
S017;27;Mannelijk;Links;3;57;right;yes;800;rightarrow;978;false;focus;yes;700427;Chrome;104.0;Windows;10;undefined;undefined;1536 x 864;1536 x 864
S017;27;Mannelijk;Links;3;58;right;no;750;rightarrow;853;true;focus;yes;702053;Chrome;104.0;Windows;10;undefined;undefined;1536 x 864;1536 x 864
S017;27;Mannelijk;Links;3;59;left;yes;750;leftarrow;905;false;focus;yes;703735;Chrome;104.0;Windows;10;undefined;undefined;1536 x 864;1536 x 864
S017;27;Mannelijk;Links;3;60;left;no;700;leftarrow;922;true;focus;yes;705438;Chrome;104.0;Windows;10;undefined;undefined;1536 x 864;1536 x 864
S017;27;Mannelijk;Links;3;61;left;no;700;leftarrow;1104;true;focus;yes;707328;Chrome;104.0;Windows;10;undefined;undefined;1536 x 864;1536 x 864
S017;27;Mannelijk;Links;3;62;left;no;700;leftarrow;961;true;focus;yes;709067;Chrome;104.0;Windows;10;undefined;undefined;1536 x 864;1536 x 864
S017;27;Mannelijk;Links;3;63;right;no;700;rightarrow;1107;true;focus;yes;710955;Chrome;104.0;Windows;10;undefined;undefined;1536 x 864;1536 x 864
S017;27;Mannelijk;Links;3;64;right;no;700;rightarrow;1045;true;focus;yes;712781;Chrome;104.0;Windows;10;undefined;undefined;1536 x 864;1536 x 864
S017;27;Mannelijk;Links;3;65;left;no;700;leftarrow;1061;true;focus;yes;714622;Chrome;104.0;Windows;10;undefined;undefined;1536 x 864;1536 x 864
S017;27;Mannelijk;Links;3;66;left;no;700;leftarrow;1033;true;focus;yes;716431;Chrome;104.0;Windows;10;undefined;undefined;1536 x 864;1536 x 864
S017;27;Mannelijk;Links;3;67;left;no;700;leftarrow;1009;true;focus;yes;718235;Chrome;104.0;Windows;10;undefined;undefined;1536 x 864;1536 x 864
S017;27;Mannelijk;Links;3;68;right;no;700;rightarrow;951;true;focus;yes;719967;Chrome;104.0;Windows;10;undefined;undefined;1536 x 864;1536 x 864
S017;27;Mannelijk;Links;3;69;right;yes;700;undefined;null;true;focus;yes;722017;Chrome;104.0;Windows;10;undefined;undefined;1536 x 864;1536 x 864
S017;27;Mannelijk;Links;3;70;right;no;750;rightarrow;1066;true;focus;yes;723858;Chrome;104.0;Windows;10;undefined;undefined;1536 x 864;1536 x 864
S017;27;Mannelijk;Links;3;71;left;yes;750;undefined;null;true;focus;yes;725885;Chrome;104.0;Windows;10;undefined;undefined;1536 x 864;1536 x 864
S017;27;Mannelijk;Links;3;72;right;no;800;rightarrow;990;true;focus;yes;727663;Chrome;104.0;Windows;10;undefined;undefined;1536 x 864;1536 x 864
S017;27;Mannelijk;Links;3;73;left;no;800;leftarrow;1078;true;focus;yes;729516;Chrome;104.0;Windows;10;undefined;undefined;1536 x 864;1536 x 864
S017;27;Mannelijk;Links;3;74;right;no;800;rightarrow;1147;true;focus;yes;731450;Chrome;104.0;Windows;10;undefined;undefined;1536 x 864;1536 x 864
S017;27;Mannelijk;Links;3;75;right;no;800;rightarrow;1051;true;focus;yes;733271;Chrome;104.0;Windows;10;undefined;undefined;1536 x 864;1536 x 864
S017;27;Mannelijk;Links;3;76;right;no;800;rightarrow;1055;true;focus;yes;735112;Chrome;104.0;Windows;10;undefined;undefined;1536 x 864;1536 x 864
S017;27;Mannelijk;Links;3;77;left;no;800;leftarrow;1259;true;focus;yes;737145;Chrome;104.0;Windows;10;undefined;undefined;1536 x 864;1536 x 864
S017;27;Mannelijk;Links;3;78;left;no;800;leftarrow;1245;true;focus;yes;739161;Chrome;104.0;Windows;10;undefined;undefined;1536 x 864;1536 x 864
S017;27;Mannelijk;Links;3;79;right;yes;800;undefined;null;true;focus;yes;741217;Chrome;104.0;Windows;10;undefined;undefined;1536 x 864;1536 x 864
S017;27;Mannelijk;Links;3;80;left;yes;850;leftarrow;929;false;focus;yes;742918;Chrome;104.0;Windows;10;undefined;undefined;1536 x 864;1536 x 864
S017;27;Mannelijk;Links;3;81;right;yes;800;rightarrow;1146;false;focus;yes;744848;Chrome;104.0;Windows;10;undefined;undefined;1536 x 864;1536 x 864
S017;27;Mannelijk;Links;3;82;right;no;750;undefined;null;false;focus;yes;746897;Chrome;104.0;Windows;10;undefined;undefined;1536 x 864;1536 x 864
S017;27;Mannelijk;Links;3;83;left;no;750;leftarrow;489;true;focus;yes;748177;Chrome;104.0;Windows;10;undefined;undefined;1536 x 864;1536 x 864
S017;27;Mannelijk;Links;3;84;right;no;750;rightarrow;810;true;focus;yes;749763;Chrome;104.0;Windows;10;undefined;undefined;1536 x 864;1536 x 864
S017;27;Mannelijk;Links;3;85;right;no;750;rightarrow;905;true;focus;yes;751442;Chrome;104.0;Windows;10;undefined;undefined;1536 x 864;1536 x 864
S017;27;Mannelijk;Links;3;86;left;yes;750;leftarrow;825;false;focus;yes;753043;Chrome;104.0;Windows;10;undefined;undefined;1536 x 864;1536 x 864
S017;27;Mannelijk;Links;3;87;left;no;700;leftarrow;1012;true;focus;yes;754830;Chrome;104.0;Windows;10;undefined;undefined;1536 x 864;1536 x 864
S017;27;Mannelijk;Links;3;88;left;no;700;leftarrow;1011;true;focus;yes;756636;Chrome;104.0;Windows;10;undefined;undefined;1536 x 864;1536 x 864
S017;27;Mannelijk;Links;3;89;left;yes;700;undefined;null;true;focus;yes;758675;Chrome;104.0;Windows;10;undefined;undefined;1536 x 864;1536 x 864
S017;27;Mannelijk;Links;3;90;right;yes;750;rightarrow;814;false;focus;yes;760271;Chrome;104.0;Windows;10;undefined;undefined;1536 x 864;1536 x 864
S017;27;Mannelijk;Links;3;91;right;no;700;rightarrow;1098;true;focus;yes;762150;Chrome;104.0;Windows;10;undefined;undefined;1536 x 864;1536 x 864
S017;27;Mannelijk;Links;3;92;left;no;700;leftarrow;1007;true;focus;yes;763928;Chrome;104.0;Windows;10;undefined;undefined;1536 x 864;1536 x 864
S017;27;Mannelijk;Links;3;93;right;no;700;rightarrow;885;true;focus;yes;765582;Chrome;104.0;Windows;10;undefined;undefined;1536 x 864;1536 x 864
S017;27;Mannelijk;Links;3;94;left;no;700;leftarrow;911;true;focus;yes;767263;Chrome;104.0;Windows;10;undefined;undefined;1536 x 864;1536 x 864
S017;27;Mannelijk;Links;3;95;right;no;700;rightarrow;883;true;focus;yes;768924;Chrome;104.0;Windows;10;undefined;undefined;1536 x 864;1536 x 864
S017;27;Mannelijk;Links;3;96;left;no;700;leftarrow;989;true;focus;yes;770702;Chrome;104.0;Windows;10;undefined;undefined;1536 x 864;1536 x 864
S017;27;Mannelijk;Links;3;97;right;no;700;rightarrow;1013;true;focus;yes;772501;Chrome;104.0;Windows;10;undefined;undefined;1536 x 864;1536 x 864
S017;27;Mannelijk;Links;3;98;right;no;700;rightarrow;1104;true;focus;yes;774404;Chrome;104.0;Windows;10;undefined;undefined;1536 x 864;1536 x 864
S017;27;Mannelijk;Links;3;99;left;no;700;leftarrow;1011;true;focus;yes;776198;Chrome;104.0;Windows;10;undefined;undefined;1536 x 864;1536 x 864
S017;27;Mannelijk;Links;3;100;left;yes;700;undefined;null;true;focus;yes;778244;Chrome;104.0;Windows;10;undefined;undefined;1536 x 864;1536 x 864
S017;27;Mannelijk;Links;3;101;right;no;750;rightarrow;1120;true;focus;yes;780159;Chrome;104.0;Windows;10;undefined;undefined;1536 x 864;1536 x 864
S017;27;Mannelijk;Links;3;102;left;no;750;undefined;null;false;focus;yes;782199;Chrome;104.0;Windows;10;undefined;undefined;1536 x 864;1536 x 864
S017;27;Mannelijk;Links;3;103;left;no;750;leftarrow;1169;true;focus;yes;784151;Chrome;104.0;Windows;10;undefined;undefined;1536 x 864;1536 x 864
S017;27;Mannelijk;Links;3;104;right;yes;750;rightarrow;1018;false;focus;yes;785946;Chrome;104.0;Windows;10;undefined;undefined;1536 x 864;1536 x 864
S017;27;Mannelijk;Links;3;105;right;no;700;undefined;null;false;focus;yes;787984;Chrome;104.0;Windows;10;undefined;undefined;1536 x 864;1536 x 864
S017;27;Mannelijk;Links;3;106;right;no;700;rightarrow;929;true;focus;yes;789689;Chrome;104.0;Windows;10;undefined;undefined;1536 x 864;1536 x 864
S017;27;Mannelijk;Links;3;107;right;no;700;rightarrow;1189;true;focus;yes;791675;Chrome;104.0;Windows;10;undefined;undefined;1536 x 864;1536 x 864
S017;27;Mannelijk;Links;3;108;left;no;700;undefined;null;false;focus;yes;793711;Chrome;104.0;Windows;10;undefined;undefined;1536 x 864;1536 x 864
S017;27;Mannelijk;Links;3;109;right;yes;700;rightarrow;446;false;focus;yes;795195;Chrome;104.0;Windows;10;undefined;undefined;1536 x 864;1536 x 864
S017;27;Mannelijk;Links;3;110;left;no;650;leftarrow;855;true;focus;yes;796838;Chrome;104.0;Windows;10;undefined;undefined;1536 x 864;1536 x 864
S017;27;Mannelijk;Links;3;111;left;yes;650;leftarrow;938;false;focus;yes;798552;Chrome;104.0;Windows;10;undefined;undefined;1536 x 864;1536 x 864
S017;27;Mannelijk;Links;3;112;left;no;600;leftarrow;806;true;focus;yes;800139;Chrome;104.0;Windows;10;undefined;undefined;1536 x 864;1536 x 864
S017;27;Mannelijk;Links;3;113;left;no;600;leftarrow;1010;true;focus;yes;801919;Chrome;104.0;Windows;10;undefined;undefined;1536 x 864;1536 x 864
S017;27;Mannelijk;Links;3;114;left;no;600;leftarrow;982;true;focus;yes;803669;Chrome;104.0;Windows;10;undefined;undefined;1536 x 864;1536 x 864
S017;27;Mannelijk;Links;3;115;left;yes;600;undefined;null;true;focus;yes;805724;Chrome;104.0;Windows;10;undefined;undefined;1536 x 864;1536 x 864
S017;27;Mannelijk;Links;3;116;right;yes;650;undefined;null;true;focus;yes;807756;Chrome;104.0;Windows;10;undefined;undefined;1536 x 864;1536 x 864
S017;27;Mannelijk;Links;3;117;right;no;700;rightarrow;923;true;focus;yes;809466;Chrome;104.0;Windows;10;undefined;undefined;1536 x 864;1536 x 864
S017;27;Mannelijk;Links;3;118;right;no;700;rightarrow;1021;true;focus;yes;811272;Chrome;104.0;Windows;10;undefined;undefined;1536 x 864;1536 x 864
S017;27;Mannelijk;Links;3;119;right;no;700;rightarrow;1123;true;focus;yes;813174;Chrome;104.0;Windows;10;undefined;undefined;1536 x 864;1536 x 864
S017;27;Mannelijk;Links;3;120;left;no;700;leftarrow;1070;true;focus;yes;815026;Chrome;104.0;Windows;10;undefined;undefined;1536 x 864;1536 x 864
S017;27;Mannelijk;Links;3;121;right;no;700;rightarrow;1141;true;focus;yes;816945;Chrome;104.0;Windows;10;undefined;undefined;1536 x 864;1536 x 864
S017;27;Mannelijk;Links;3;122;left;yes;700;leftarrow;946;false;focus;yes;818682;Chrome;104.0;Windows;10;undefined;undefined;1536 x 864;1536 x 864
S017;27;Mannelijk;Links;3;123;right;yes;650;undefined;null;true;focus;yes;820723;Chrome;104.0;Windows;10;undefined;undefined;1536 x 864;1536 x 864
S017;27;Mannelijk;Links;3;124;left;no;700;leftarrow;890;true;focus;yes;822401;Chrome;104.0;Windows;10;undefined;undefined;1536 x 864;1536 x 864
S017;27;Mannelijk;Links;3;125;right;no;700;rightarrow;1013;true;focus;yes;824207;Chrome;104.0;Windows;10;undefined;undefined;1536 x 864;1536 x 864
S017;27;Mannelijk;Links;3;126;left;no;700;leftarrow;1152;true;focus;yes;826145;Chrome;104.0;Windows;10;undefined;undefined;1536 x 864;1536 x 864
S017;27;Mannelijk;Links;3;127;left;no;700;leftarrow;1212;true;focus;yes;828147;Chrome;104.0;Windows;10;undefined;undefined;1536 x 864;1536 x 864
S017;27;Mannelijk;Links;3;128;right;no;700;rightarrow;1080;true;focus;yes;830005;Chrome;104.0;Windows;10;undefined;undefined;1536 x 864;1536 x 864
S017;27;Mannelijk;Links;4;1;left;yes;700;leftarrow;472;false;focus;yes;863773;Chrome;104.0;Windows;10;undefined;undefined;1536 x 864;1536 x 864
S017;27;Mannelijk;Links;4;2;right;no;650;rightarrow;839;true;focus;yes;865390;Chrome;104.0;Windows;10;undefined;undefined;1536 x 864;1536 x 864
S017;27;Mannelijk;Links;4;3;right;no;650;rightarrow;914;true;focus;yes;867091;Chrome;104.0;Windows;10;undefined;undefined;1536 x 864;1536 x 864
S017;27;Mannelijk;Links;4;4;right;yes;650;rightarrow;844;false;focus;yes;868714;Chrome;104.0;Windows;10;undefined;undefined;1536 x 864;1536 x 864
S017;27;Mannelijk;Links;4;5;left;no;600;leftarrow;856;true;focus;yes;870343;Chrome;104.0;Windows;10;undefined;undefined;1536 x 864;1536 x 864
S017;27;Mannelijk;Links;4;6;left;no;600;leftarrow;895;true;focus;yes;872015;Chrome;104.0;Windows;10;undefined;undefined;1536 x 864;1536 x 864
S017;27;Mannelijk;Links;4;7;left;no;600;leftarrow;897;true;focus;yes;873687;Chrome;104.0;Windows;10;undefined;undefined;1536 x 864;1536 x 864
S017;27;Mannelijk;Links;4;8;right;no;600;rightarrow;892;true;focus;yes;875358;Chrome;104.0;Windows;10;undefined;undefined;1536 x 864;1536 x 864
S017;27;Mannelijk;Links;4;9;left;no;600;leftarrow;997;true;focus;yes;877149;Chrome;104.0;Windows;10;undefined;undefined;1536 x 864;1536 x 864
S017;27;Mannelijk;Links;4;10;left;yes;600;undefined;null;true;focus;yes;879201;Chrome;104.0;Windows;10;undefined;undefined;1536 x 864;1536 x 864
S017;27;Mannelijk;Links;4;11;right;yes;650;undefined;null;true;focus;yes;881249;Chrome;104.0;Windows;10;undefined;undefined;1536 x 864;1536 x 864
S017;27;Mannelijk;Links;4;12;right;no;700;rightarrow;934;true;focus;yes;882962;Chrome;104.0;Windows;10;undefined;undefined;1536 x 864;1536 x 864
S017;27;Mannelijk;Links;4;13;right;no;700;rightarrow;901;true;focus;yes;884643;Chrome;104.0;Windows;10;undefined;undefined;1536 x 864;1536 x 864
S017;27;Mannelijk;Links;4;14;left;no;700;leftarrow;966;true;focus;yes;886389;Chrome;104.0;Windows;10;undefined;undefined;1536 x 864;1536 x 864
S017;27;Mannelijk;Links;4;15;left;no;700;leftarrow;966;true;focus;yes;888139;Chrome;104.0;Windows;10;undefined;undefined;1536 x 864;1536 x 864
S017;27;Mannelijk;Links;4;16;right;no;700;rightarrow;1173;true;focus;yes;890095;Chrome;104.0;Windows;10;undefined;undefined;1536 x 864;1536 x 864
S017;27;Mannelijk;Links;4;17;right;yes;700;undefined;null;true;focus;yes;892131;Chrome;104.0;Windows;10;undefined;undefined;1536 x 864;1536 x 864
S017;27;Mannelijk;Links;4;18;left;no;750;leftarrow;920;true;focus;yes;893836;Chrome;104.0;Windows;10;undefined;undefined;1536 x 864;1536 x 864
S017;27;Mannelijk;Links;4;19;left;no;750;leftarrow;1241;true;focus;yes;895867;Chrome;104.0;Windows;10;undefined;undefined;1536 x 864;1536 x 864
S017;27;Mannelijk;Links;4;20;left;yes;750;undefined;null;true;focus;yes;897900;Chrome;104.0;Windows;10;undefined;undefined;1536 x 864;1536 x 864
S017;27;Mannelijk;Links;4;21;right;no;800;rightarrow;986;true;focus;yes;899668;Chrome;104.0;Windows;10;undefined;undefined;1536 x 864;1536 x 864
S017;27;Mannelijk;Links;4;22;right;no;800;undefined;null;false;focus;yes;901694;Chrome;104.0;Windows;10;undefined;undefined;1536 x 864;1536 x 864
S017;27;Mannelijk;Links;4;23;right;no;800;rightarrow;951;true;focus;yes;903429;Chrome;104.0;Windows;10;undefined;undefined;1536 x 864;1536 x 864
S017;27;Mannelijk;Links;4;24;left;no;800;leftarrow;1153;true;focus;yes;905371;Chrome;104.0;Windows;10;undefined;undefined;1536 x 864;1536 x 864
S017;27;Mannelijk;Links;4;25;left;yes;800;undefined;null;true;focus;yes;907418;Chrome;104.0;Windows;10;undefined;undefined;1536 x 864;1536 x 864
S017;27;Mannelijk;Links;4;26;right;no;850;rightarrow;773;true;focus;yes;908963;Chrome;104.0;Windows;10;undefined;undefined;1536 x 864;1536 x 864
S017;27;Mannelijk;Links;4;27;left;no;850;leftarrow;824;true;focus;yes;910563;Chrome;104.0;Windows;10;undefined;undefined;1536 x 864;1536 x 864
S017;27;Mannelijk;Links;4;28;right;no;850;rightarrow;895;true;focus;yes;912238;Chrome;104.0;Windows;10;undefined;undefined;1536 x 864;1536 x 864
S017;27;Mannelijk;Links;4;29;left;no;850;leftarrow;869;true;focus;yes;913889;Chrome;104.0;Windows;10;undefined;undefined;1536 x 864;1536 x 864
S017;27;Mannelijk;Links;4;30;right;yes;850;rightarrow;1037;false;focus;yes;915708;Chrome;104.0;Windows;10;undefined;undefined;1536 x 864;1536 x 864
S017;27;Mannelijk;Links;4;31;left;no;800;undefined;null;false;focus;yes;917744;Chrome;104.0;Windows;10;undefined;undefined;1536 x 864;1536 x 864
S017;27;Mannelijk;Links;4;32;right;no;800;rightarrow;897;true;focus;yes;919426;Chrome;104.0;Windows;10;undefined;undefined;1536 x 864;1536 x 864
S017;27;Mannelijk;Links;4;33;right;no;800;rightarrow;1028;true;focus;yes;921247;Chrome;104.0;Windows;10;undefined;undefined;1536 x 864;1536 x 864
S017;27;Mannelijk;Links;4;34;right;no;800;rightarrow;1049;true;focus;yes;923085;Chrome;104.0;Windows;10;undefined;undefined;1536 x 864;1536 x 864
S017;27;Mannelijk;Links;4;35;left;no;800;leftarrow;1006;true;focus;yes;924877;Chrome;104.0;Windows;10;undefined;undefined;1536 x 864;1536 x 864
S017;27;Mannelijk;Links;4;36;left;yes;800;leftarrow;1008;false;focus;yes;926679;Chrome;104.0;Windows;10;undefined;undefined;1536 x 864;1536 x 864
S017;27;Mannelijk;Links;4;37;right;yes;750;rightarrow;947;false;focus;yes;928412;Chrome;104.0;Windows;10;undefined;undefined;1536 x 864;1536 x 864
S017;27;Mannelijk;Links;4;38;left;no;700;leftarrow;1008;true;focus;yes;930193;Chrome;104.0;Windows;10;undefined;undefined;1536 x 864;1536 x 864
S017;27;Mannelijk;Links;4;39;right;no;700;rightarrow;996;true;focus;yes;931965;Chrome;104.0;Windows;10;undefined;undefined;1536 x 864;1536 x 864
S017;27;Mannelijk;Links;4;40;left;no;700;leftarrow;1115;true;focus;yes;933851;Chrome;104.0;Windows;10;undefined;undefined;1536 x 864;1536 x 864
S017;27;Mannelijk;Links;4;41;right;no;700;rightarrow;1074;true;focus;yes;935700;Chrome;104.0;Windows;10;undefined;undefined;1536 x 864;1536 x 864
S017;27;Mannelijk;Links;4;42;left;yes;700;undefined;null;true;focus;yes;937738;Chrome;104.0;Windows;10;undefined;undefined;1536 x 864;1536 x 864
S017;27;Mannelijk;Links;4;43;left;no;750;leftarrow;1107;true;focus;yes;939641;Chrome;104.0;Windows;10;undefined;undefined;1536 x 864;1536 x 864
S017;27;Mannelijk;Links;4;44;left;no;750;undefined;null;false;focus;yes;941697;Chrome;104.0;Windows;10;undefined;undefined;1536 x 864;1536 x 864
S017;27;Mannelijk;Links;4;45;right;no;750;rightarrow;996;true;focus;yes;943483;Chrome;104.0;Windows;10;undefined;undefined;1536 x 864;1536 x 864
S017;27;Mannelijk;Links;4;46;right;no;750;rightarrow;1100;true;focus;yes;945356;Chrome;104.0;Windows;10;undefined;undefined;1536 x 864;1536 x 864
S017;27;Mannelijk;Links;4;47;right;yes;750;undefined;null;true;focus;yes;947398;Chrome;104.0;Windows;10;undefined;undefined;1536 x 864;1536 x 864
S017;27;Mannelijk;Links;4;48;left;no;800;leftarrow;1028;true;focus;yes;949200;Chrome;104.0;Windows;10;undefined;undefined;1536 x 864;1536 x 864
S017;27;Mannelijk;Links;4;49;right;no;800;undefined;null;false;focus;yes;951237;Chrome;104.0;Windows;10;undefined;undefined;1536 x 864;1536 x 864
S017;27;Mannelijk;Links;4;50;right;yes;800;rightarrow;1115;false;focus;yes;953145;Chrome;104.0;Windows;10;undefined;undefined;1536 x 864;1536 x 864
S017;27;Mannelijk;Links;4;51;left;yes;750;leftarrow;1062;false;focus;yes;954979;Chrome;104.0;Windows;10;undefined;undefined;1536 x 864;1536 x 864
S017;27;Mannelijk;Links;4;52;left;no;700;leftarrow;971;true;focus;yes;956720;Chrome;104.0;Windows;10;undefined;undefined;1536 x 864;1536 x 864
S017;27;Mannelijk;Links;4;53;right;no;700;rightarrow;1055;true;focus;yes;958561;Chrome;104.0;Windows;10;undefined;undefined;1536 x 864;1536 x 864
S017;27;Mannelijk;Links;4;54;right;no;700;rightarrow;1088;true;focus;yes;960429;Chrome;104.0;Windows;10;undefined;undefined;1536 x 864;1536 x 864
S017;27;Mannelijk;Links;4;55;left;no;700;leftarrow;1147;true;focus;yes;962352;Chrome;104.0;Windows;10;undefined;undefined;1536 x 864;1536 x 864
S017;27;Mannelijk;Links;4;56;left;no;700;leftarrow;1059;true;focus;yes;964191;Chrome;104.0;Windows;10;undefined;undefined;1536 x 864;1536 x 864
S017;27;Mannelijk;Links;4;57;left;no;700;leftarrow;1178;true;focus;yes;966150;Chrome;104.0;Windows;10;undefined;undefined;1536 x 864;1536 x 864
S017;27;Mannelijk;Links;4;58;right;no;700;rightarrow;963;true;focus;yes;967895;Chrome;104.0;Windows;10;undefined;undefined;1536 x 864;1536 x 864
S017;27;Mannelijk;Links;4;59;left;no;700;leftarrow;1048;true;focus;yes;969719;Chrome;104.0;Windows;10;undefined;undefined;1536 x 864;1536 x 864
S017;27;Mannelijk;Links;4;60;left;yes;700;undefined;null;true;focus;yes;971751;Chrome;104.0;Windows;10;undefined;undefined;1536 x 864;1536 x 864
S017;27;Mannelijk;Links;4;61;left;no;750;leftarrow;952;true;focus;yes;973490;Chrome;104.0;Windows;10;undefined;undefined;1536 x 864;1536 x 864
S017;27;Mannelijk;Links;4;62;right;no;750;rightarrow;918;true;focus;yes;975191;Chrome;104.0;Windows;10;undefined;undefined;1536 x 864;1536 x 864
S017;27;Mannelijk;Links;4;63;right;yes;750;undefined;null;true;focus;yes;977227;Chrome;104.0;Windows;10;undefined;undefined;1536 x 864;1536 x 864
S017;27;Mannelijk;Links;4;64;right;no;800;rightarrow;1164;true;focus;yes;979168;Chrome;104.0;Windows;10;undefined;undefined;1536 x 864;1536 x 864
S017;27;Mannelijk;Links;4;65;right;no;800;rightarrow;1078;true;focus;yes;981020;Chrome;104.0;Windows;10;undefined;undefined;1536 x 864;1536 x 864
S017;27;Mannelijk;Links;4;66;left;no;800;leftarrow;1107;true;focus;yes;982908;Chrome;104.0;Windows;10;undefined;undefined;1536 x 864;1536 x 864
S017;27;Mannelijk;Links;4;67;right;yes;800;rightarrow;997;false;focus;yes;984685;Chrome;104.0;Windows;10;undefined;undefined;1536 x 864;1536 x 864
S017;27;Mannelijk;Links;4;68;left;yes;750;leftarrow;988;false;focus;yes;986469;Chrome;104.0;Windows;10;undefined;undefined;1536 x 864;1536 x 864
S017;27;Mannelijk;Links;4;69;right;no;700;rightarrow;1050;true;focus;yes;988308;Chrome;104.0;Windows;10;undefined;undefined;1536 x 864;1536 x 864
S017;27;Mannelijk;Links;4;70;left;no;700;leftarrow;963;true;focus;yes;990064;Chrome;104.0;Windows;10;undefined;undefined;1536 x 864;1536 x 864
S017;27;Mannelijk;Links;4;71;right;no;700;rightarrow;1004;true;focus;yes;991851;Chrome;104.0;Windows;10;undefined;undefined;1536 x 864;1536 x 864
S017;27;Mannelijk;Links;4;72;left;no;700;leftarrow;974;true;focus;yes;993601;Chrome;104.0;Windows;10;undefined;undefined;1536 x 864;1536 x 864
S017;27;Mannelijk;Links;4;73;left;no;700;leftarrow;1131;true;focus;yes;995519;Chrome;104.0;Windows;10;undefined;undefined;1536 x 864;1536 x 864
S017;27;Mannelijk;Links;4;74;left;no;700;leftarrow;1008;true;focus;yes;997318;Chrome;104.0;Windows;10;undefined;undefined;1536 x 864;1536 x 864
S017;27;Mannelijk;Links;4;75;right;yes;700;undefined;null;true;focus;yes;999355;Chrome;104.0;Windows;10;undefined;undefined;1536 x 864;1536 x 864
S017;27;Mannelijk;Links;4;76;right;no;750;rightarrow;1028;true;focus;yes;1001162;Chrome;104.0;Windows;10;undefined;undefined;1536 x 864;1536 x 864
S017;27;Mannelijk;Links;4;77;right;no;750;rightarrow;1112;true;focus;yes;1003052;Chrome;104.0;Windows;10;undefined;undefined;1536 x 864;1536 x 864
S017;27;Mannelijk;Links;4;78;left;yes;750;leftarrow;997;false;focus;yes;1004823;Chrome;104.0;Windows;10;undefined;undefined;1536 x 864;1536 x 864
S017;27;Mannelijk;Links;4;79;right;no;700;rightarrow;790;true;focus;yes;1006404;Chrome;104.0;Windows;10;undefined;undefined;1536 x 864;1536 x 864
S017;27;Mannelijk;Links;4;80;left;no;700;leftarrow;1055;true;focus;yes;1008241;Chrome;104.0;Windows;10;undefined;undefined;1536 x 864;1536 x 864
S017;27;Mannelijk;Links;4;81;left;no;700;leftarrow;1125;true;focus;yes;1010151;Chrome;104.0;Windows;10;undefined;undefined;1536 x 864;1536 x 864
S017;27;Mannelijk;Links;4;82;left;no;700;undefined;null;false;focus;yes;1012198;Chrome;104.0;Windows;10;undefined;undefined;1536 x 864;1536 x 864
S017;27;Mannelijk;Links;4;83;right;no;700;rightarrow;936;true;focus;yes;1013931;Chrome;104.0;Windows;10;undefined;undefined;1536 x 864;1536 x 864
S017;27;Mannelijk;Links;4;84;left;no;700;leftarrow;1106;true;focus;yes;1015807;Chrome;104.0;Windows;10;undefined;undefined;1536 x 864;1536 x 864
S017;27;Mannelijk;Links;4;85;right;no;700;undefined;null;false;focus;yes;1017860;Chrome;104.0;Windows;10;undefined;undefined;1536 x 864;1536 x 864
S017;27;Mannelijk;Links;4;86;right;yes;700;undefined;null;true;focus;yes;1019903;Chrome;104.0;Windows;10;undefined;undefined;1536 x 864;1536 x 864
S017;27;Mannelijk;Links;4;87;left;yes;750;leftarrow;864;false;focus;yes;1021552;Chrome;104.0;Windows;10;undefined;undefined;1536 x 864;1536 x 864
S017;27;Mannelijk;Links;4;88;right;no;700;rightarrow;853;true;focus;yes;1023189;Chrome;104.0;Windows;10;undefined;undefined;1536 x 864;1536 x 864
S017;27;Mannelijk;Links;4;89;left;no;700;leftarrow;1069;true;focus;yes;1025049;Chrome;104.0;Windows;10;undefined;undefined;1536 x 864;1536 x 864
S017;27;Mannelijk;Links;4;90;right;yes;700;undefined;null;true;focus;yes;1027085;Chrome;104.0;Windows;10;undefined;undefined;1536 x 864;1536 x 864
S017;27;Mannelijk;Links;4;91;left;yes;750;leftarrow;977;false;focus;yes;1028847;Chrome;104.0;Windows;10;undefined;undefined;1536 x 864;1536 x 864
S017;27;Mannelijk;Links;4;92;left;no;700;leftarrow;1178;true;focus;yes;1030811;Chrome;104.0;Windows;10;undefined;undefined;1536 x 864;1536 x 864
S017;27;Mannelijk;Links;4;93;right;no;700;rightarrow;1004;true;focus;yes;1032585;Chrome;104.0;Windows;10;undefined;undefined;1536 x 864;1536 x 864
S017;27;Mannelijk;Links;4;94;right;no;700;undefined;null;false;focus;yes;1034627;Chrome;104.0;Windows;10;undefined;undefined;1536 x 864;1536 x 864
S017;27;Mannelijk;Links;4;95;right;no;700;undefined;null;false;focus;yes;1036677;Chrome;104.0;Windows;10;undefined;undefined;1536 x 864;1536 x 864
S017;27;Mannelijk;Links;4;96;left;no;700;leftarrow;1052;true;focus;yes;1038524;Chrome;104.0;Windows;10;undefined;undefined;1536 x 864;1536 x 864
S017;27;Mannelijk;Links;4;97;right;no;700;undefined;null;false;focus;yes;1040569;Chrome;104.0;Windows;10;undefined;undefined;1536 x 864;1536 x 864
S017;27;Mannelijk;Links;4;98;left;no;700;leftarrow;1220;true;focus;yes;1042570;Chrome;104.0;Windows;10;undefined;undefined;1536 x 864;1536 x 864
S017;27;Mannelijk;Links;4;99;right;yes;700;undefined;null;true;focus;yes;1044625;Chrome;104.0;Windows;10;undefined;undefined;1536 x 864;1536 x 864
S017;27;Mannelijk;Links;4;100;left;yes;750;undefined;null;true;focus;yes;1046678;Chrome;104.0;Windows;10;undefined;undefined;1536 x 864;1536 x 864
S017;27;Mannelijk;Links;4;101;right;no;800;rightarrow;918;true;focus;yes;1048378;Chrome;104.0;Windows;10;undefined;undefined;1536 x 864;1536 x 864
S017;27;Mannelijk;Links;4;102;right;no;800;rightarrow;1052;true;focus;yes;1050223;Chrome;104.0;Windows;10;undefined;undefined;1536 x 864;1536 x 864
S017;27;Mannelijk;Links;4;103;left;no;800;leftarrow;1214;true;focus;yes;1052227;Chrome;104.0;Windows;10;undefined;undefined;1536 x 864;1536 x 864
S017;27;Mannelijk;Links;4;104;left;no;800;leftarrow;1218;true;focus;yes;1054230;Chrome;104.0;Windows;10;undefined;undefined;1536 x 864;1536 x 864
S017;27;Mannelijk;Links;4;105;right;no;800;rightarrow;1115;true;focus;yes;1056125;Chrome;104.0;Windows;10;undefined;undefined;1536 x 864;1536 x 864
S017;27;Mannelijk;Links;4;106;left;no;800;undefined;null;false;focus;yes;1058177;Chrome;104.0;Windows;10;undefined;undefined;1536 x 864;1536 x 864
S017;27;Mannelijk;Links;4;107;right;no;800;rightarrow;1112;true;focus;yes;1060068;Chrome;104.0;Windows;10;undefined;undefined;1536 x 864;1536 x 864
S017;27;Mannelijk;Links;4;108;right;no;800;rightarrow;1198;true;focus;yes;1062040;Chrome;104.0;Windows;10;undefined;undefined;1536 x 864;1536 x 864
S017;27;Mannelijk;Links;4;109;left;yes;800;leftarrow;1028;false;focus;yes;1063853;Chrome;104.0;Windows;10;undefined;undefined;1536 x 864;1536 x 864
S017;27;Mannelijk;Links;4;110;left;no;750;leftarrow;915;true;focus;yes;1065562;Chrome;104.0;Windows;10;undefined;undefined;1536 x 864;1536 x 864
S017;27;Mannelijk;Links;4;111;right;yes;750;rightarrow;1131;false;focus;yes;1067481;Chrome;104.0;Windows;10;undefined;undefined;1536 x 864;1536 x 864
S017;27;Mannelijk;Links;4;112;left;no;700;leftarrow;1138;true;focus;yes;1069406;Chrome;104.0;Windows;10;undefined;undefined;1536 x 864;1536 x 864
S017;27;Mannelijk;Links;4;113;right;yes;700;undefined;null;true;focus;yes;1071448;Chrome;104.0;Windows;10;undefined;undefined;1536 x 864;1536 x 864
S017;27;Mannelijk;Links;4;114;left;no;750;leftarrow;1065;true;focus;yes;1073298;Chrome;104.0;Windows;10;undefined;undefined;1536 x 864;1536 x 864
S017;27;Mannelijk;Links;4;115;left;no;750;leftarrow;1209;true;focus;yes;1075289;Chrome;104.0;Windows;10;undefined;undefined;1536 x 864;1536 x 864
S017;27;Mannelijk;Links;4;116;right;no;750;undefined;null;false;focus;yes;1077327;Chrome;104.0;Windows;10;undefined;undefined;1536 x 864;1536 x 864
S017;27;Mannelijk;Links;4;117;left;yes;750;leftarrow;1009;false;focus;yes;1079117;Chrome;104.0;Windows;10;undefined;undefined;1536 x 864;1536 x 864
S017;27;Mannelijk;Links;4;118;right;no;700;rightarrow;951;true;focus;yes;1080855;Chrome;104.0;Windows;10;undefined;undefined;1536 x 864;1536 x 864
S017;27;Mannelijk;Links;4;119;right;no;700;rightarrow;1034;true;focus;yes;1082679;Chrome;104.0;Windows;10;undefined;undefined;1536 x 864;1536 x 864
S017;27;Mannelijk;Links;4;120;left;no;700;undefined;null;false;focus;yes;1084733;Chrome;104.0;Windows;10;undefined;undefined;1536 x 864;1536 x 864
S017;27;Mannelijk;Links;4;121;left;no;700;leftarrow;1051;true;focus;yes;1086564;Chrome;104.0;Windows;10;undefined;undefined;1536 x 864;1536 x 864
S017;27;Mannelijk;Links;4;122;right;no;700;rightarrow;1072;true;focus;yes;1088424;Chrome;104.0;Windows;10;undefined;undefined;1536 x 864;1536 x 864
S017;27;Mannelijk;Links;4;123;left;no;700;leftarrow;875;true;focus;yes;1090086;Chrome;104.0;Windows;10;undefined;undefined;1536 x 864;1536 x 864
S017;27;Mannelijk;Links;4;124;left;yes;700;leftarrow;788;false;focus;yes;1091645;Chrome;104.0;Windows;10;undefined;undefined;1536 x 864;1536 x 864
S017;27;Mannelijk;Links;4;125;right;no;650;rightarrow;875;true;focus;yes;1093309;Chrome;104.0;Windows;10;undefined;undefined;1536 x 864;1536 x 864
S017;27;Mannelijk;Links;4;126;right;yes;650;undefined;null;true;focus;yes;1095357;Chrome;104.0;Windows;10;undefined;undefined;1536 x 864;1536 x 864
S017;27;Mannelijk;Links;4;127;right;no;700;rightarrow;864;true;focus;yes;1097011;Chrome;104.0;Windows;10;undefined;undefined;1536 x 864;1536 x 864
S017;27;Mannelijk;Links;4;128;left;no;700;leftarrow;1147;true;focus;yes;1098939;Chrome;104.0;Windows;10;undefined;undefined;1536 x 864;1536 x 864
S017;27;Mannelijk;Links;5;1;right;no;700;rightarrow;648;true;focus;yes;1123963;Chrome;104.0;Windows;10;undefined;undefined;1536 x 864;1536 x 864
S017;27;Mannelijk;Links;5;2;left;yes;700;leftarrow;882;false;focus;yes;1125618;Chrome;104.0;Windows;10;undefined;undefined;1536 x 864;1536 x 864
S017;27;Mannelijk;Links;5;3;left;no;650;leftarrow;964;true;focus;yes;1127363;Chrome;104.0;Windows;10;undefined;undefined;1536 x 864;1536 x 864
S017;27;Mannelijk;Links;5;4;left;no;650;leftarrow;1063;true;focus;yes;1129193;Chrome;104.0;Windows;10;undefined;undefined;1536 x 864;1536 x 864
S017;27;Mannelijk;Links;5;5;right;no;650;rightarrow;957;true;focus;yes;1130934;Chrome;104.0;Windows;10;undefined;undefined;1536 x 864;1536 x 864
S017;27;Mannelijk;Links;5;6;right;no;650;rightarrow;1011;true;focus;yes;1132720;Chrome;104.0;Windows;10;undefined;undefined;1536 x 864;1536 x 864
S017;27;Mannelijk;Links;5;7;left;no;650;leftarrow;384;true;focus;yes;1133891;Chrome;104.0;Windows;10;undefined;undefined;1536 x 864;1536 x 864
S017;27;Mannelijk;Links;5;8;right;yes;650;rightarrow;963;false;focus;yes;1135630;Chrome;104.0;Windows;10;undefined;undefined;1536 x 864;1536 x 864
S017;27;Mannelijk;Links;5;9;left;no;600;leftarrow;420;true;focus;yes;1136843;Chrome;104.0;Windows;10;undefined;undefined;1536 x 864;1536 x 864
S017;27;Mannelijk;Links;5;10;right;no;600;rightarrow;627;true;focus;yes;1138256;Chrome;104.0;Windows;10;undefined;undefined;1536 x 864;1536 x 864
S017;27;Mannelijk;Links;5;11;right;no;600;rightarrow;863;true;focus;yes;1139909;Chrome;104.0;Windows;10;undefined;undefined;1536 x 864;1536 x 864
S017;27;Mannelijk;Links;5;12;left;yes;600;leftarrow;804;false;focus;yes;1141498;Chrome;104.0;Windows;10;undefined;undefined;1536 x 864;1536 x 864
S017;27;Mannelijk;Links;5;13;right;no;550;rightarrow;741;true;focus;yes;1143015;Chrome;104.0;Windows;10;undefined;undefined;1536 x 864;1536 x 864
S017;27;Mannelijk;Links;5;14;left;no;550;leftarrow;872;true;focus;yes;1144661;Chrome;104.0;Windows;10;undefined;undefined;1536 x 864;1536 x 864
S017;27;Mannelijk;Links;5;15;left;no;550;leftarrow;1003;true;focus;yes;1146441;Chrome;104.0;Windows;10;undefined;undefined;1536 x 864;1536 x 864
S017;27;Mannelijk;Links;5;16;right;yes;550;rightarrow;719;false;focus;yes;1147942;Chrome;104.0;Windows;10;undefined;undefined;1536 x 864;1536 x 864
S017;27;Mannelijk;Links;5;17;right;yes;500;rightarrow;743;false;focus;yes;1149461;Chrome;104.0;Windows;10;undefined;undefined;1536 x 864;1536 x 864
S017;27;Mannelijk;Links;5;18;left;yes;450;undefined;null;true;focus;yes;1151499;Chrome;104.0;Windows;10;undefined;undefined;1536 x 864;1536 x 864
S017;27;Mannelijk;Links;5;19;left;no;500;leftarrow;438;true;focus;yes;1152722;Chrome;104.0;Windows;10;undefined;undefined;1536 x 864;1536 x 864
S017;27;Mannelijk;Links;5;20;right;no;500;rightarrow;567;true;focus;yes;1154073;Chrome;104.0;Windows;10;undefined;undefined;1536 x 864;1536 x 864
S017;27;Mannelijk;Links;5;21;right;no;500;rightarrow;715;true;focus;yes;1155565;Chrome;104.0;Windows;10;undefined;undefined;1536 x 864;1536 x 864
S017;27;Mannelijk;Links;5;22;left;no;500;leftarrow;721;true;focus;yes;1157069;Chrome;104.0;Windows;10;undefined;undefined;1536 x 864;1536 x 864
S017;27;Mannelijk;Links;5;23;left;no;500;leftarrow;799;true;focus;yes;1158647;Chrome;104.0;Windows;10;undefined;undefined;1536 x 864;1536 x 864
S017;27;Mannelijk;Links;5;24;right;no;500;rightarrow;769;true;focus;yes;1160206;Chrome;104.0;Windows;10;undefined;undefined;1536 x 864;1536 x 864
S017;27;Mannelijk;Links;5;25;left;no;500;leftarrow;819;true;focus;yes;1161803;Chrome;104.0;Windows;10;undefined;undefined;1536 x 864;1536 x 864
S017;27;Mannelijk;Links;5;26;right;no;500;rightarrow;748;true;focus;yes;1163339;Chrome;104.0;Windows;10;undefined;undefined;1536 x 864;1536 x 864
S017;27;Mannelijk;Links;5;27;right;yes;500;rightarrow;683;false;focus;yes;1164809;Chrome;104.0;Windows;10;undefined;undefined;1536 x 864;1536 x 864
S017;27;Mannelijk;Links;5;28;right;no;450;rightarrow;759;true;focus;yes;1166346;Chrome;104.0;Windows;10;undefined;undefined;1536 x 864;1536 x 864
S017;27;Mannelijk;Links;5;29;left;no;450;leftarrow;572;true;focus;yes;1167712;Chrome;104.0;Windows;10;undefined;undefined;1536 x 864;1536 x 864
S017;27;Mannelijk;Links;5;30;right;no;450;rightarrow;569;true;focus;yes;1169058;Chrome;104.0;Windows;10;undefined;undefined;1536 x 864;1536 x 864
S017;27;Mannelijk;Links;5;31;left;no;450;leftarrow;591;true;focus;yes;1170450;Chrome;104.0;Windows;10;undefined;undefined;1536 x 864;1536 x 864
S017;27;Mannelijk;Links;5;32;left;yes;450;rightarrow;543;false;focus;yes;1171769;Chrome;104.0;Windows;10;undefined;undefined;1536 x 864;1536 x 864
S017;27;Mannelijk;Links;5;33;right;no;400;rightarrow;647;true;focus;yes;1173199;Chrome;104.0;Windows;10;undefined;undefined;1536 x 864;1536 x 864
S017;27;Mannelijk;Links;5;34;left;no;400;leftarrow;631;true;focus;yes;1174624;Chrome;104.0;Windows;10;undefined;undefined;1536 x 864;1536 x 864
S017;27;Mannelijk;Links;5;35;right;no;400;rightarrow;685;true;focus;yes;1176091;Chrome;104.0;Windows;10;undefined;undefined;1536 x 864;1536 x 864
S017;27;Mannelijk;Links;5;36;right;yes;400;rightarrow;615;false;focus;yes;1177493;Chrome;104.0;Windows;10;undefined;undefined;1536 x 864;1536 x 864
S017;27;Mannelijk;Links;5;37;left;yes;350;undefined;null;true;focus;yes;1179533;Chrome;104.0;Windows;10;undefined;undefined;1536 x 864;1536 x 864
S017;27;Mannelijk;Links;5;38;right;no;400;rightarrow;539;true;focus;yes;1180864;Chrome;104.0;Windows;10;undefined;undefined;1536 x 864;1536 x 864
S017;27;Mannelijk;Links;5;39;left;no;400;leftarrow;709;true;focus;yes;1182355;Chrome;104.0;Windows;10;undefined;undefined;1536 x 864;1536 x 864
S017;27;Mannelijk;Links;5;40;left;no;400;leftarrow;741;true;focus;yes;1183889;Chrome;104.0;Windows;10;undefined;undefined;1536 x 864;1536 x 864
S017;27;Mannelijk;Links;5;41;right;no;400;rightarrow;755;true;focus;yes;1185428;Chrome;104.0;Windows;10;undefined;undefined;1536 x 864;1536 x 864
S017;27;Mannelijk;Links;5;42;right;no;400;rightarrow;780;true;focus;yes;1186981;Chrome;104.0;Windows;10;undefined;undefined;1536 x 864;1536 x 864
S017;27;Mannelijk;Links;5;43;left;no;400;leftarrow;648;true;focus;yes;1188413;Chrome;104.0;Windows;10;undefined;undefined;1536 x 864;1536 x 864
S017;27;Mannelijk;Links;5;44;left;no;400;leftarrow;796;true;focus;yes;1189997;Chrome;104.0;Windows;10;undefined;undefined;1536 x 864;1536 x 864
S017;27;Mannelijk;Links;5;45;left;no;400;leftarrow;724;true;focus;yes;1191510;Chrome;104.0;Windows;10;undefined;undefined;1536 x 864;1536 x 864
S017;27;Mannelijk;Links;5;46;right;yes;400;undefined;null;true;focus;yes;1193550;Chrome;104.0;Windows;10;undefined;undefined;1536 x 864;1536 x 864
S017;27;Mannelijk;Links;5;47;right;no;450;rightarrow;747;true;focus;yes;1195086;Chrome;104.0;Windows;10;undefined;undefined;1536 x 864;1536 x 864
S017;27;Mannelijk;Links;5;48;left;yes;450;leftarrow;806;false;focus;yes;1196672;Chrome;104.0;Windows;10;undefined;undefined;1536 x 864;1536 x 864
S017;27;Mannelijk;Links;5;49;right;yes;400;rightarrow;637;false;focus;yes;1198097;Chrome;104.0;Windows;10;undefined;undefined;1536 x 864;1536 x 864
S017;27;Mannelijk;Links;5;50;left;no;350;leftarrow;693;true;focus;yes;1199572;Chrome;104.0;Windows;10;undefined;undefined;1536 x 864;1536 x 864
S017;27;Mannelijk;Links;5;51;right;no;350;rightarrow;657;true;focus;yes;1201012;Chrome;104.0;Windows;10;undefined;undefined;1536 x 864;1536 x 864
S017;27;Mannelijk;Links;5;52;left;no;350;leftarrow;779;true;focus;yes;1202583;Chrome;104.0;Windows;10;undefined;undefined;1536 x 864;1536 x 864
S017;27;Mannelijk;Links;5;53;right;no;350;rightarrow;780;true;focus;yes;1204142;Chrome;104.0;Windows;10;undefined;undefined;1536 x 864;1536 x 864
S017;27;Mannelijk;Links;5;54;left;no;350;leftarrow;783;true;focus;yes;1205720;Chrome;104.0;Windows;10;undefined;undefined;1536 x 864;1536 x 864
S017;27;Mannelijk;Links;5;55;right;no;350;rightarrow;775;true;focus;yes;1207283;Chrome;104.0;Windows;10;undefined;undefined;1536 x 864;1536 x 864
S017;27;Mannelijk;Links;5;56;left;yes;350;undefined;null;true;focus;yes;1209325;Chrome;104.0;Windows;10;undefined;undefined;1536 x 864;1536 x 864
S017;27;Mannelijk;Links;5;57;left;yes;400;undefined;null;true;focus;yes;1211371;Chrome;104.0;Windows;10;undefined;undefined;1536 x 864;1536 x 864
S017;27;Mannelijk;Links;5;58;left;no;450;leftarrow;822;true;focus;yes;1212970;Chrome;104.0;Windows;10;undefined;undefined;1536 x 864;1536 x 864
S017;27;Mannelijk;Links;5;59;right;no;450;rightarrow;935;true;focus;yes;1214676;Chrome;104.0;Windows;10;undefined;undefined;1536 x 864;1536 x 864
S017;27;Mannelijk;Links;5;60;left;no;450;leftarrow;916;true;focus;yes;1216377;Chrome;104.0;Windows;10;undefined;undefined;1536 x 864;1536 x 864
S017;27;Mannelijk;Links;5;61;right;yes;450;undefined;null;true;focus;yes;1218423;Chrome;104.0;Windows;10;undefined;undefined;1536 x 864;1536 x 864
S017;27;Mannelijk;Links;5;62;left;no;500;leftarrow;798;true;focus;yes;1220010;Chrome;104.0;Windows;10;undefined;undefined;1536 x 864;1536 x 864
S017;27;Mannelijk;Links;5;63;right;no;500;rightarrow;788;true;focus;yes;1221585;Chrome;104.0;Windows;10;undefined;undefined;1536 x 864;1536 x 864
S017;27;Mannelijk;Links;5;64;right;no;500;rightarrow;888;true;focus;yes;1223267;Chrome;104.0;Windows;10;undefined;undefined;1536 x 864;1536 x 864
S017;27;Mannelijk;Links;5;65;left;no;500;leftarrow;1057;true;focus;yes;1225105;Chrome;104.0;Windows;10;undefined;undefined;1536 x 864;1536 x 864
S017;27;Mannelijk;Links;5;66;right;no;500;rightarrow;992;true;focus;yes;1226889;Chrome;104.0;Windows;10;undefined;undefined;1536 x 864;1536 x 864
S017;27;Mannelijk;Links;5;67;left;no;500;leftarrow;814;true;focus;yes;1228490;Chrome;104.0;Windows;10;undefined;undefined;1536 x 864;1536 x 864
S017;27;Mannelijk;Links;5;68;left;yes;500;undefined;null;true;focus;yes;1230527;Chrome;104.0;Windows;10;undefined;undefined;1536 x 864;1536 x 864
S017;27;Mannelijk;Links;5;69;right;no;550;rightarrow;800;true;focus;yes;1232125;Chrome;104.0;Windows;10;undefined;undefined;1536 x 864;1536 x 864
S017;27;Mannelijk;Links;5;70;right;yes;550;undefined;null;true;focus;yes;1234167;Chrome;104.0;Windows;10;undefined;undefined;1536 x 864;1536 x 864
S017;27;Mannelijk;Links;5;71;left;no;600;leftarrow;894;true;focus;yes;1235842;Chrome;104.0;Windows;10;undefined;undefined;1536 x 864;1536 x 864
S017;27;Mannelijk;Links;5;72;right;no;600;rightarrow;997;true;focus;yes;1237622;Chrome;104.0;Windows;10;undefined;undefined;1536 x 864;1536 x 864
S017;27;Mannelijk;Links;5;73;left;no;600;leftarrow;1024;true;focus;yes;1239436;Chrome;104.0;Windows;10;undefined;undefined;1536 x 864;1536 x 864
S017;27;Mannelijk;Links;5;74;right;no;600;rightarrow;977;true;focus;yes;1241196;Chrome;104.0;Windows;10;undefined;undefined;1536 x 864;1536 x 864
S017;27;Mannelijk;Links;5;75;left;yes;600;undefined;null;true;focus;yes;1243241;Chrome;104.0;Windows;10;undefined;undefined;1536 x 864;1536 x 864
S017;27;Mannelijk;Links;5;76;left;no;650;leftarrow;936;true;focus;yes;1244966;Chrome;104.0;Windows;10;undefined;undefined;1536 x 864;1536 x 864
S017;27;Mannelijk;Links;5;77;right;no;650;rightarrow;810;true;focus;yes;1246567;Chrome;104.0;Windows;10;undefined;undefined;1536 x 864;1536 x 864
S017;27;Mannelijk;Links;5;78;left;no;650;leftarrow;1090;true;focus;yes;1248442;Chrome;104.0;Windows;10;undefined;undefined;1536 x 864;1536 x 864
S017;27;Mannelijk;Links;5;79;right;no;650;rightarrow;884;true;focus;yes;1250105;Chrome;104.0;Windows;10;undefined;undefined;1536 x 864;1536 x 864
S017;27;Mannelijk;Links;5;80;right;yes;650;undefined;null;true;focus;yes;1252142;Chrome;104.0;Windows;10;undefined;undefined;1536 x 864;1536 x 864
S017;27;Mannelijk;Links;5;81;right;no;700;rightarrow;996;true;focus;yes;1253935;Chrome;104.0;Windows;10;undefined;undefined;1536 x 864;1536 x 864
S017;27;Mannelijk;Links;5;82;right;no;700;rightarrow;1025;true;focus;yes;1255754;Chrome;104.0;Windows;10;undefined;undefined;1536 x 864;1536 x 864
S017;27;Mannelijk;Links;5;83;left;no;700;leftarrow;1099;true;focus;yes;1257642;Chrome;104.0;Windows;10;undefined;undefined;1536 x 864;1536 x 864
S017;27;Mannelijk;Links;5;84;left;yes;700;leftarrow;992;false;focus;yes;1259415;Chrome;104.0;Windows;10;undefined;undefined;1536 x 864;1536 x 864
S017;27;Mannelijk;Links;5;85;left;no;650;leftarrow;1000;true;focus;yes;1261204;Chrome;104.0;Windows;10;undefined;undefined;1536 x 864;1536 x 864
S017;27;Mannelijk;Links;5;86;right;no;650;rightarrow;977;true;focus;yes;1262964;Chrome;104.0;Windows;10;undefined;undefined;1536 x 864;1536 x 864
S017;27;Mannelijk;Links;5;87;left;no;650;leftarrow;866;true;focus;yes;1264620;Chrome;104.0;Windows;10;undefined;undefined;1536 x 864;1536 x 864
S017;27;Mannelijk;Links;5;88;right;yes;650;undefined;null;true;focus;yes;1266670;Chrome;104.0;Windows;10;undefined;undefined;1536 x 864;1536 x 864
S017;27;Mannelijk;Links;5;89;left;no;700;leftarrow;1063;true;focus;yes;1268529;Chrome;104.0;Windows;10;undefined;undefined;1536 x 864;1536 x 864
S017;27;Mannelijk;Links;5;91;right;no;700;undefined;null;false;focus;yes;1272471;Chrome;104.0;Windows;10;undefined;undefined;1536 x 864;1536 x 864
S017;27;Mannelijk;Links;5;90;right;no;700;rightarrow;1116;true;focus;yes;1270423;Chrome;104.0;Windows;10;undefined;undefined;1536 x 864;1536 x 864
S017;27;Mannelijk;Links;5;92;right;no;700;rightarrow;720;true;focus;yes;1273979;Chrome;104.0;Windows;10;undefined;undefined;1536 x 864;1536 x 864
S017;27;Mannelijk;Links;5;93;left;no;700;leftarrow;775;true;focus;yes;1275542;Chrome;104.0;Windows;10;undefined;undefined;1536 x 864;1536 x 864
S017;27;Mannelijk;Links;5;94;left;yes;700;leftarrow;923;false;focus;yes;1277249;Chrome;104.0;Windows;10;undefined;undefined;1536 x 864;1536 x 864
S017;27;Mannelijk;Links;5;95;right;yes;650;rightarrow;880;false;focus;yes;1278914;Chrome;104.0;Windows;10;undefined;undefined;1536 x 864;1536 x 864
S017;27;Mannelijk;Links;5;96;left;no;600;leftarrow;777;true;focus;yes;1280485;Chrome;104.0;Windows;10;undefined;undefined;1536 x 864;1536 x 864
S017;27;Mannelijk;Links;5;97;left;yes;600;undefined;null;true;focus;yes;1282530;Chrome;104.0;Windows;10;undefined;undefined;1536 x 864;1536 x 864
S017;27;Mannelijk;Links;5;98;right;no;650;rightarrow;771;true;focus;yes;1284092;Chrome;104.0;Windows;10;undefined;undefined;1536 x 864;1536 x 864
S017;27;Mannelijk;Links;5;99;left;no;650;leftarrow;808;true;focus;yes;1285691;Chrome;104.0;Windows;10;undefined;undefined;1536 x 864;1536 x 864
S017;27;Mannelijk;Links;5;100;left;no;650;leftarrow;1047;true;focus;yes;1287518;Chrome;104.0;Windows;10;undefined;undefined;1536 x 864;1536 x 864
S017;27;Mannelijk;Links;5;101;right;no;650;rightarrow;983;true;focus;yes;1289281;Chrome;104.0;Windows;10;undefined;undefined;1536 x 864;1536 x 864
S017;27;Mannelijk;Links;5;102;right;yes;650;undefined;null;true;focus;yes;1291327;Chrome;104.0;Windows;10;undefined;undefined;1536 x 864;1536 x 864
S017;27;Mannelijk;Links;5;103;right;no;700;rightarrow;887;true;focus;yes;1293008;Chrome;104.0;Windows;10;undefined;undefined;1536 x 864;1536 x 864
S017;27;Mannelijk;Links;5;104;left;no;700;leftarrow;1112;true;focus;yes;1294904;Chrome;104.0;Windows;10;undefined;undefined;1536 x 864;1536 x 864
S017;27;Mannelijk;Links;5;105;right;yes;700;undefined;null;true;focus;yes;1296935;Chrome;104.0;Windows;10;undefined;undefined;1536 x 864;1536 x 864
S017;27;Mannelijk;Links;5;106;left;no;750;leftarrow;681;true;focus;yes;1298399;Chrome;104.0;Windows;10;undefined;undefined;1536 x 864;1536 x 864
S017;27;Mannelijk;Links;5;107;right;no;750;rightarrow;990;true;focus;yes;1300171;Chrome;104.0;Windows;10;undefined;undefined;1536 x 864;1536 x 864
S017;27;Mannelijk;Links;5;108;right;no;750;rightarrow;1030;true;focus;yes;1301983;Chrome;104.0;Windows;10;undefined;undefined;1536 x 864;1536 x 864
S017;27;Mannelijk;Links;5;109;right;no;750;rightarrow;1168;true;focus;yes;1303936;Chrome;104.0;Windows;10;undefined;undefined;1536 x 864;1536 x 864
S017;27;Mannelijk;Links;5;110;left;yes;750;undefined;null;true;focus;yes;1305977;Chrome;104.0;Windows;10;undefined;undefined;1536 x 864;1536 x 864
S017;27;Mannelijk;Links;5;111;left;no;800;leftarrow;914;true;focus;yes;1307668;Chrome;104.0;Windows;10;undefined;undefined;1536 x 864;1536 x 864
S017;27;Mannelijk;Links;5;112;left;no;800;leftarrow;1140;true;focus;yes;1309585;Chrome;104.0;Windows;10;undefined;undefined;1536 x 864;1536 x 864
S017;27;Mannelijk;Links;5;113;left;no;800;leftarrow;1149;true;focus;yes;1311529;Chrome;104.0;Windows;10;undefined;undefined;1536 x 864;1536 x 864
S017;27;Mannelijk;Links;5;114;left;no;800;leftarrow;986;true;focus;yes;1313303;Chrome;104.0;Windows;10;undefined;undefined;1536 x 864;1536 x 864
S017;27;Mannelijk;Links;5;115;right;yes;800;rightarrow;946;false;focus;yes;1315028;Chrome;104.0;Windows;10;undefined;undefined;1536 x 864;1536 x 864
S017;27;Mannelijk;Links;5;116;right;no;750;rightarrow;1117;true;focus;yes;1316936;Chrome;104.0;Windows;10;undefined;undefined;1536 x 864;1536 x 864
S017;27;Mannelijk;Links;5;117;left;no;750;leftarrow;1134;true;focus;yes;1318849;Chrome;104.0;Windows;10;undefined;undefined;1536 x 864;1536 x 864
S017;27;Mannelijk;Links;5;118;right;no;750;rightarrow;1055;true;focus;yes;1320695;Chrome;104.0;Windows;10;undefined;undefined;1536 x 864;1536 x 864
S017;27;Mannelijk;Links;5;119;left;yes;750;undefined;null;true;focus;yes;1322745;Chrome;104.0;Windows;10;undefined;undefined;1536 x 864;1536 x 864
S017;27;Mannelijk;Links;5;120;right;no;800;rightarrow;690;true;focus;yes;1324231;Chrome;104.0;Windows;10;undefined;undefined;1536 x 864;1536 x 864
S017;27;Mannelijk;Links;5;121;right;no;800;rightarrow;1089;true;focus;yes;1326097;Chrome;104.0;Windows;10;undefined;undefined;1536 x 864;1536 x 864
S017;27;Mannelijk;Links;5;122;left;no;800;leftarrow;1048;true;focus;yes;1327930;Chrome;104.0;Windows;10;undefined;undefined;1536 x 864;1536 x 864
S017;27;Mannelijk;Links;5;123;right;no;800;rightarrow;1044;true;focus;yes;1329762;Chrome;104.0;Windows;10;undefined;undefined;1536 x 864;1536 x 864
S017;27;Mannelijk;Links;5;124;right;no;800;rightarrow;1145;true;focus;yes;1331690;Chrome;104.0;Windows;10;undefined;undefined;1536 x 864;1536 x 864
S017;27;Mannelijk;Links;5;125;left;yes;800;undefined;null;true;focus;yes;1333734;Chrome;104.0;Windows;10;undefined;undefined;1536 x 864;1536 x 864
S017;27;Mannelijk;Links;5;126;left;no;850;leftarrow;1057;true;focus;yes;1335575;Chrome;104.0;Windows;10;undefined;undefined;1536 x 864;1536 x 864
S017;27;Mannelijk;Links;5;127;left;no;850;leftarrow;809;true;focus;yes;1337178;Chrome;104.0;Windows;10;undefined;undefined;1536 x 864;1536 x 864
S017;27;Mannelijk;Links;5;128;right;yes;850;rightarrow;933;false;focus;yes;1338896;Chrome;104.0;Windows;10;undefined;undefined;1536 x 864;1536 x 864
S017;27;Mannelijk;Links;6;1;left;no;800;leftarrow;523;true;focus;yes;1375518;Chrome;104.0;Windows;10;undefined;undefined;1536 x 864;1536 x 864
S017;27;Mannelijk;Links;6;2;right;no;800;rightarrow;524;true;focus;yes;1376822;Chrome;104.0;Windows;10;undefined;undefined;1536 x 864;1536 x 864
S017;27;Mannelijk;Links;6;3;right;no;800;rightarrow;667;true;focus;yes;1378277;Chrome;104.0;Windows;10;undefined;undefined;1536 x 864;1536 x 864
S017;27;Mannelijk;Links;6;4;right;yes;800;rightarrow;695;false;focus;yes;1379756;Chrome;104.0;Windows;10;undefined;undefined;1536 x 864;1536 x 864
S017;27;Mannelijk;Links;6;5;right;no;750;rightarrow;742;true;focus;yes;1381286;Chrome;104.0;Windows;10;undefined;undefined;1536 x 864;1536 x 864
S017;27;Mannelijk;Links;6;6;left;no;750;leftarrow;988;true;focus;yes;1383059;Chrome;104.0;Windows;10;undefined;undefined;1536 x 864;1536 x 864
S017;27;Mannelijk;Links;6;7;left;no;750;leftarrow;827;true;focus;yes;1384669;Chrome;104.0;Windows;10;undefined;undefined;1536 x 864;1536 x 864
S017;27;Mannelijk;Links;6;8;left;yes;750;leftarrow;727;false;focus;yes;1386185;Chrome;104.0;Windows;10;undefined;undefined;1536 x 864;1536 x 864
S017;27;Mannelijk;Links;6;9;right;no;700;rightarrow;776;true;focus;yes;1387742;Chrome;104.0;Windows;10;undefined;undefined;1536 x 864;1536 x 864
S017;27;Mannelijk;Links;6;10;left;no;700;leftarrow;791;true;focus;yes;1389312;Chrome;104.0;Windows;10;undefined;undefined;1536 x 864;1536 x 864
S017;27;Mannelijk;Links;6;11;left;no;700;leftarrow;898;true;focus;yes;1391001;Chrome;104.0;Windows;10;undefined;undefined;1536 x 864;1536 x 864
S017;27;Mannelijk;Links;6;12;right;no;700;rightarrow;800;true;focus;yes;1392586;Chrome;104.0;Windows;10;undefined;undefined;1536 x 864;1536 x 864
S017;27;Mannelijk;Links;6;13;right;no;700;rightarrow;851;true;focus;yes;1394216;Chrome;104.0;Windows;10;undefined;undefined;1536 x 864;1536 x 864
S017;27;Mannelijk;Links;6;14;left;yes;700;leftarrow;740;false;focus;yes;1395745;Chrome;104.0;Windows;10;undefined;undefined;1536 x 864;1536 x 864
S017;27;Mannelijk;Links;6;15;left;no;650;leftarrow;972;true;focus;yes;1397503;Chrome;104.0;Windows;10;undefined;undefined;1536 x 864;1536 x 864
S017;27;Mannelijk;Links;6;16;right;yes;650;rightarrow;772;false;focus;yes;1399065;Chrome;104.0;Windows;10;undefined;undefined;1536 x 864;1536 x 864
S017;27;Mannelijk;Links;6;17;left;no;600;leftarrow;990;true;focus;yes;1400840;Chrome;104.0;Windows;10;undefined;undefined;1536 x 864;1536 x 864
S017;27;Mannelijk;Links;6;18;left;no;600;leftarrow;1018;true;focus;yes;1402631;Chrome;104.0;Windows;10;undefined;undefined;1536 x 864;1536 x 864
S017;27;Mannelijk;Links;6;19;right;no;600;rightarrow;800;true;focus;yes;1404209;Chrome;104.0;Windows;10;undefined;undefined;1536 x 864;1536 x 864
S017;27;Mannelijk;Links;6;20;right;no;600;rightarrow;893;true;focus;yes;1405880;Chrome;104.0;Windows;10;undefined;undefined;1536 x 864;1536 x 864
S017;27;Mannelijk;Links;6;21;left;no;600;leftarrow;970;true;focus;yes;1407639;Chrome;104.0;Windows;10;undefined;undefined;1536 x 864;1536 x 864
S017;27;Mannelijk;Links;6;22;left;yes;600;undefined;null;true;focus;yes;1409676;Chrome;104.0;Windows;10;undefined;undefined;1536 x 864;1536 x 864
S017;27;Mannelijk;Links;6;23;right;yes;650;rightarrow;727;false;focus;yes;1411191;Chrome;104.0;Windows;10;undefined;undefined;1536 x 864;1536 x 864
S017;27;Mannelijk;Links;6;24;right;no;600;undefined;null;false;focus;yes;1413224;Chrome;104.0;Windows;10;undefined;undefined;1536 x 864;1536 x 864
S017;27;Mannelijk;Links;6;25;left;yes;600;leftarrow;796;false;focus;yes;1414812;Chrome;104.0;Windows;10;undefined;undefined;1536 x 864;1536 x 864
S017;27;Mannelijk;Links;6;26;left;no;550;leftarrow;784;true;focus;yes;1416376;Chrome;104.0;Windows;10;undefined;undefined;1536 x 864;1536 x 864
S017;27;Mannelijk;Links;6;27;right;no;550;rightarrow;820;true;focus;yes;1417999;Chrome;104.0;Windows;10;undefined;undefined;1536 x 864;1536 x 864
S017;27;Mannelijk;Links;6;28;right;no;550;rightarrow;815;true;focus;yes;1419589;Chrome;104.0;Windows;10;undefined;undefined;1536 x 864;1536 x 864
S017;27;Mannelijk;Links;6;29;left;no;550;leftarrow;808;true;focus;yes;1421179;Chrome;104.0;Windows;10;undefined;undefined;1536 x 864;1536 x 864
S017;27;Mannelijk;Links;6;30;left;no;550;leftarrow;930;true;focus;yes;1422887;Chrome;104.0;Windows;10;undefined;undefined;1536 x 864;1536 x 864
S017;27;Mannelijk;Links;6;31;right;no;550;rightarrow;754;true;focus;yes;1424429;Chrome;104.0;Windows;10;undefined;undefined;1536 x 864;1536 x 864
S017;27;Mannelijk;Links;6;32;right;yes;550;rightarrow;853;false;focus;yes;1426069;Chrome;104.0;Windows;10;undefined;undefined;1536 x 864;1536 x 864
S017;27;Mannelijk;Links;6;33;right;no;500;rightarrow;647;true;focus;yes;1427504;Chrome;104.0;Windows;10;undefined;undefined;1536 x 864;1536 x 864
S017;27;Mannelijk;Links;6;34;right;no;500;rightarrow;742;true;focus;yes;1429030;Chrome;104.0;Windows;10;undefined;undefined;1536 x 864;1536 x 864
