participantID,age,gender,handedness,block_i,trial_i,stim,signal,SSD,response,rt,correct,focus,Fullscreen,time_elapsed,browser_name,browser_version,os_name,os_version,tablet,mobile,screen_resolution,window_resolution
S020,39,Vrouwelijk,Rechts,0,1,left,yes,200,leftarrow,513,false,focus,yes,169017,Firefox,112.0,Windows,10,undefined,undefined,1536 x 864,1536 x 864
S020,39,Vrouwelijk,Rechts,0,2,right,no,150,leftarrow,333,false,focus,yes,170873,Firefox,112.0,Windows,10,undefined,undefined,1536 x 864,1536 x 864
S020,39,Vrouwelijk,Rechts,0,3,left,no,150,leftarrow,419,true,focus,yes,172845,Firefox,112.0,Windows,10,undefined,undefined,1536 x 864,1536 x 864
S020,39,Vrouwelijk,Rechts,0,4,left,no,150,leftarrow,442,true,focus,yes,174833,Firefox,112.0,Windows,10,undefined,undefined,1536 x 864,1536 x 864
S020,39,Vrouwelijk,Rechts,0,5,right,no,150,rightarrow,475,true,focus,yes,176831,Firefox,112.0,Windows,10,undefined,undefined,1536 x 864,1536 x 864
S020,39,Vrouwelijk,Rechts,0,6,right,no,150,rightarrow,441,true,focus,yes,178810,Firefox,112.0,Windows,10,undefined,undefined,1536 x 864,1536 x 864
S020,39,Vrouwelijk,Rechts,0,7,right,yes,150,rightarrow,434,false,focus,yes,180766,Firefox,112.0,Windows,10,undefined,undefined,1536 x 864,1536 x 864
S020,39,Vrouwelijk,Rechts,0,8,left,no,100,leftarrow,466,true,focus,yes,182754,Firefox,112.0,Windows,10,undefined,undefined,1536 x 864,1536 x 864
S020,39,Vrouwelijk,Rechts,1,1,right,no,100,rightarrow,522,true,focus,yes,203554,Firefox,112.0,Windows,10,undefined,undefined,1536 x 864,1536 x 864
S020,39,Vrouwelijk,Rechts,1,2,left,yes,100,leftarrow,737,false,focus,yes,205064,Firefox,112.0,Windows,10,undefined,undefined,1536 x 864,1536 x 864
S020,39,Vrouwelijk,Rechts,1,3,left,no,50,leftarrow,526,true,focus,yes,206366,Firefox,112.0,Windows,10,undefined,undefined,1536 x 864,1536 x 864
S020,39,Vrouwelijk,Rechts,1,4,right,no,50,rightarrow,506,true,focus,yes,207650,Firefox,112.0,Windows,10,undefined,undefined,1536 x 864,1536 x 864
S020,39,Vrouwelijk,Rechts,1,5,right,no,50,rightarrow,492,true,focus,yes,208901,Firefox,112.0,Windows,10,undefined,undefined,1536 x 864,1536 x 864
S020,39,Vrouwelijk,Rechts,1,6,right,yes,50,undefined,null,true,focus,yes,210925,Firefox,112.0,Windows,10,undefined,undefined,1536 x 864,1536 x 864
S020,39,Vrouwelijk,Rechts,1,7,left,no,100,leftarrow,378,true,focus,yes,212070,Firefox,112.0,Windows,10,undefined,undefined,1536 x 864,1536 x 864
S020,39,Vrouwelijk,Rechts,1,8,left,no,100,leftarrow,476,true,focus,yes,213320,Firefox,112.0,Windows,10,undefined,undefined,1536 x 864,1536 x 864
S020,39,Vrouwelijk,Rechts,1,9,left,no,100,leftarrow,505,true,focus,yes,214596,Firefox,112.0,Windows,10,undefined,undefined,1536 x 864,1536 x 864
S020,39,Vrouwelijk,Rechts,1,10,right,no,100,rightarrow,413,true,focus,yes,215788,Firefox,112.0,Windows,10,undefined,undefined,1536 x 864,1536 x 864
S020,39,Vrouwelijk,Rechts,1,11,left,yes,100,undefined,null,true,focus,yes,217809,Firefox,112.0,Windows,10,undefined,undefined,1536 x 864,1536 x 864
S020,39,Vrouwelijk,Rechts,1,12,right,no,150,rightarrow,377,true,focus,yes,218946,Firefox,112.0,Windows,10,undefined,undefined,1536 x 864,1536 x 864
S020,39,Vrouwelijk,Rechts,1,13,right,no,150,rightarrow,416,true,focus,yes,220124,Firefox,112.0,Windows,10,undefined,undefined,1536 x 864,1536 x 864
S020,39,Vrouwelijk,Rechts,1,14,right,yes,150,undefined,null,true,focus,yes,222165,Firefox,112.0,Windows,10,undefined,undefined,1536 x 864,1536 x 864
S020,39,Vrouwelijk,Rechts,1,15,left,no,200,leftarrow,335,true,focus,yes,223274,Firefox,112.0,Windows,10,undefined,undefined,1536 x 864,1536 x 864
S020,39,Vrouwelijk,Rechts,1,16,left,no,200,leftarrow,340,true,focus,yes,224398,Firefox,112.0,Windows,10,undefined,undefined,1536 x 864,1536 x 864
S020,39,Vrouwelijk,Rechts,1,17,left,yes,200,leftarrow,310,false,focus,yes,225469,Firefox,112.0,Windows,10,undefined,undefined,1536 x 864,1536 x 864
S020,39,Vrouwelijk,Rechts,1,18,left,no,150,leftarrow,618,true,focus,yes,226846,Firefox,112.0,Windows,10,undefined,undefined,1536 x 864,1536 x 864
S020,39,Vrouwelijk,Rechts,1,19,right,no,150,rightarrow,438,true,focus,yes,228054,Firefox,112.0,Windows,10,undefined,undefined,1536 x 864,1536 x 864
S020,39,Vrouwelijk,Rechts,1,20,left,no,150,leftarrow,486,true,focus,yes,229313,Firefox,112.0,Windows,10,undefined,undefined,1536 x 864,1536 x 864
S020,39,Vrouwelijk,Rechts,1,21,right,yes,150,undefined,null,true,focus,yes,231331,Firefox,112.0,Windows,10,undefined,undefined,1536 x 864,1536 x 864
S020,39,Vrouwelijk,Rechts,1,22,right,no,200,rightarrow,449,true,focus,yes,232550,Firefox,112.0,Windows,10,undefined,undefined,1536 x 864,1536 x 864
S020,39,Vrouwelijk,Rechts,1,23,left,no,200,leftarrow,465,true,focus,yes,233784,Firefox,112.0,Windows,10,undefined,undefined,1536 x 864,1536 x 864
S020,39,Vrouwelijk,Rechts,1,24,right,no,200,rightarrow,451,true,focus,yes,235012,Firefox,112.0,Windows,10,undefined,undefined,1536 x 864,1536 x 864
S020,39,Vrouwelijk,Rechts,1,25,right,no,200,rightarrow,470,true,focus,yes,236264,Firefox,112.0,Windows,10,undefined,undefined,1536 x 864,1536 x 864
S020,39,Vrouwelijk,Rechts,1,26,left,no,200,leftarrow,515,true,focus,yes,237541,Firefox,112.0,Windows,10,undefined,undefined,1536 x 864,1536 x 864
S020,39,Vrouwelijk,Rechts,1,27,right,no,200,rightarrow,336,true,focus,yes,238646,Firefox,112.0,Windows,10,undefined,undefined,1536 x 864,1536 x 864
S020,39,Vrouwelijk,Rechts,1,28,left,no,200,leftarrow,383,true,focus,yes,239788,Firefox,112.0,Windows,10,undefined,undefined,1536 x 864,1536 x 864
S020,39,Vrouwelijk,Rechts,1,29,left,yes,200,undefined,null,true,focus,yes,241843,Firefox,112.0,Windows,10,undefined,undefined,1536 x 864,1536 x 864
S020,39,Vrouwelijk,Rechts,1,30,left,no,250,leftarrow,356,true,focus,yes,242966,Firefox,112.0,Windows,10,undefined,undefined,1536 x 864,1536 x 864
S020,39,Vrouwelijk,Rechts,1,31,right,no,250,rightarrow,359,true,focus,yes,244102,Firefox,112.0,Windows,10,undefined,undefined,1536 x 864,1536 x 864
S020,39,Vrouwelijk,Rechts,1,32,right,yes,250,undefined,null,true,focus,yes,246109,Firefox,112.0,Windows,10,undefined,undefined,1536 x 864,1536 x 864
S020,39,Vrouwelijk,Rechts,1,33,left,no,300,leftarrow,416,true,focus,yes,247305,Firefox,112.0,Windows,10,undefined,undefined,1536 x 864,1536 x 864
S020,39,Vrouwelijk,Rechts,1,34,left,no,300,leftarrow,413,true,focus,yes,248480,Firefox,112.0,Windows,10,undefined,undefined,1536 x 864,1536 x 864
S020,39,Vrouwelijk,Rechts,1,35,right,no,300,rightarrow,475,true,focus,yes,249729,Firefox,112.0,Windows,10,undefined,undefined,1536 x 864,1536 x 864
S020,39,Vrouwelijk,Rechts,1,36,left,no,300,leftarrow,405,true,focus,yes,250898,Firefox,112.0,Windows,10,undefined,undefined,1536 x 864,1536 x 864
S020,39,Vrouwelijk,Rechts,1,37,right,yes,300,rightarrow,500,false,focus,yes,252181,Firefox,112.0,Windows,10,undefined,undefined,1536 x 864,1536 x 864
S020,39,Vrouwelijk,Rechts,1,38,right,no,250,rightarrow,490,true,focus,yes,253450,Firefox,112.0,Windows,10,undefined,undefined,1536 x 864,1536 x 864
S020,39,Vrouwelijk,Rechts,1,39,right,no,250,rightarrow,487,true,focus,yes,254714,Firefox,112.0,Windows,10,undefined,undefined,1536 x 864,1536 x 864
S020,39,Vrouwelijk,Rechts,1,40,left,yes,250,leftarrow,515,false,focus,yes,256006,Firefox,112.0,Windows,10,undefined,undefined,1536 x 864,1536 x 864
S020,39,Vrouwelijk,Rechts,1,41,left,no,200,leftarrow,476,true,focus,yes,257265,Firefox,112.0,Windows,10,undefined,undefined,1536 x 864,1536 x 864
S020,39,Vrouwelijk,Rechts,1,42,left,no,200,leftarrow,543,true,focus,yes,258570,Firefox,112.0,Windows,10,undefined,undefined,1536 x 864,1536 x 864
S020,39,Vrouwelijk,Rechts,1,43,right,yes,200,undefined,null,true,focus,yes,260600,Firefox,112.0,Windows,10,undefined,undefined,1536 x 864,1536 x 864
S020,39,Vrouwelijk,Rechts,1,44,right,no,250,rightarrow,429,true,focus,yes,261798,Firefox,112.0,Windows,10,undefined,undefined,1536 x 864,1536 x 864
S020,39,Vrouwelijk,Rechts,1,45,left,yes,250,undefined,null,true,focus,yes,263828,Firefox,112.0,Windows,10,undefined,undefined,1536 x 864,1536 x 864
S020,39,Vrouwelijk,Rechts,1,46,right,no,300,rightarrow,401,true,focus,yes,264994,Firefox,112.0,Windows,10,undefined,undefined,1536 x 864,1536 x 864
S020,39,Vrouwelijk,Rechts,1,47,right,no,300,rightarrow,504,true,focus,yes,266282,Firefox,112.0,Windows,10,undefined,undefined,1536 x 864,1536 x 864
S020,39,Vrouwelijk,Rechts,1,48,left,no,300,leftarrow,471,true,focus,yes,267528,Firefox,112.0,Windows,10,undefined,undefined,1536 x 864,1536 x 864
S020,39,Vrouwelijk,Rechts,1,49,right,no,300,rightarrow,445,true,focus,yes,268738,Firefox,112.0,Windows,10,undefined,undefined,1536 x 864,1536 x 864
S020,39,Vrouwelijk,Rechts,1,50,right,no,300,rightarrow,471,true,focus,yes,269980,Firefox,112.0,Windows,10,undefined,undefined,1536 x 864,1536 x 864
S020,39,Vrouwelijk,Rechts,1,51,right,yes,300,rightarrow,464,false,focus,yes,271214,Firefox,112.0,Windows,10,undefined,undefined,1536 x 864,1536 x 864
S020,39,Vrouwelijk,Rechts,1,52,left,no,250,leftarrow,498,true,focus,yes,272487,Firefox,112.0,Windows,10,undefined,undefined,1536 x 864,1536 x 864
S020,39,Vrouwelijk,Rechts,1,53,left,no,250,leftarrow,466,true,focus,yes,273711,Firefox,112.0,Windows,10,undefined,undefined,1536 x 864,1536 x 864
S020,39,Vrouwelijk,Rechts,1,54,left,yes,250,leftarrow,446,false,focus,yes,274932,Firefox,112.0,Windows,10,undefined,undefined,1536 x 864,1536 x 864
S020,39,Vrouwelijk,Rechts,1,55,left,no,200,leftarrow,859,true,focus,yes,276568,Firefox,112.0,Windows,10,undefined,undefined,1536 x 864,1536 x 864
S020,39,Vrouwelijk,Rechts,1,56,right,no,200,rightarrow,602,true,focus,yes,277936,Firefox,112.0,Windows,10,undefined,undefined,1536 x 864,1536 x 864
S020,39,Vrouwelijk,Rechts,1,57,left,yes,200,undefined,null,true,focus,yes,279956,Firefox,112.0,Windows,10,undefined,undefined,1536 x 864,1536 x 864
S020,39,Vrouwelijk,Rechts,1,58,left,no,250,leftarrow,475,true,focus,yes,281214,Firefox,112.0,Windows,10,undefined,undefined,1536 x 864,1536 x 864
S020,39,Vrouwelijk,Rechts,1,59,right,no,250,rightarrow,506,true,focus,yes,282482,Firefox,112.0,Windows,10,undefined,undefined,1536 x 864,1536 x 864
S020,39,Vrouwelijk,Rechts,1,60,right,no,250,rightarrow,535,true,focus,yes,283786,Firefox,112.0,Windows,10,undefined,undefined,1536 x 864,1536 x 864
S020,39,Vrouwelijk,Rechts,1,61,right,yes,250,rightarrow,497,false,focus,yes,285061,Firefox,112.0,Windows,10,undefined,undefined,1536 x 864,1536 x 864
S020,39,Vrouwelijk,Rechts,1,62,left,no,200,leftarrow,439,true,focus,yes,286282,Firefox,112.0,Windows,10,undefined,undefined,1536 x 864,1536 x 864
S020,39,Vrouwelijk,Rechts,1,63,left,no,200,leftarrow,452,true,focus,yes,287513,Firefox,112.0,Windows,10,undefined,undefined,1536 x 864,1536 x 864
S020,39,Vrouwelijk,Rechts,1,64,right,no,200,rightarrow,614,true,focus,yes,288898,Firefox,112.0,Windows,10,undefined,undefined,1536 x 864,1536 x 864
S020,39,Vrouwelijk,Rechts,1,65,left,no,200,leftarrow,541,true,focus,yes,290218,Firefox,112.0,Windows,10,undefined,undefined,1536 x 864,1536 x 864
S020,39,Vrouwelijk,Rechts,1,66,right,yes,200,undefined,null,true,focus,yes,292228,Firefox,112.0,Windows,10,undefined,undefined,1536 x 864,1536 x 864
S020,39,Vrouwelijk,Rechts,1,67,right,no,250,rightarrow,487,true,focus,yes,293482,Firefox,112.0,Windows,10,undefined,undefined,1536 x 864,1536 x 864
S020,39,Vrouwelijk,Rechts,1,68,left,no,250,leftarrow,624,true,focus,yes,294873,Firefox,112.0,Windows,10,undefined,undefined,1536 x 864,1536 x 864
S020,39,Vrouwelijk,Rechts,1,69,left,no,250,leftarrow,553,true,focus,yes,296208,Firefox,112.0,Windows,10,undefined,undefined,1536 x 864,1536 x 864
S020,39,Vrouwelijk,Rechts,1,70,right,no,250,rightarrow,526,true,focus,yes,297498,Firefox,112.0,Windows,10,undefined,undefined,1536 x 864,1536 x 864
S020,39,Vrouwelijk,Rechts,1,71,right,no,250,rightarrow,482,true,focus,yes,298755,Firefox,112.0,Windows,10,undefined,undefined,1536 x 864,1536 x 864
S020,39,Vrouwelijk,Rechts,1,72,left,yes,250,leftarrow,498,false,focus,yes,300025,Firefox,112.0,Windows,10,undefined,undefined,1536 x 864,1536 x 864
S020,39,Vrouwelijk,Rechts,1,73,left,yes,200,undefined,null,true,focus,yes,302060,Firefox,112.0,Windows,10,undefined,undefined,1536 x 864,1536 x 864
S020,39,Vrouwelijk,Rechts,1,74,left,no,250,leftarrow,413,true,focus,yes,303241,Firefox,112.0,Windows,10,undefined,undefined,1536 x 864,1536 x 864
S020,39,Vrouwelijk,Rechts,1,75,left,no,250,leftarrow,426,true,focus,yes,304450,Firefox,112.0,Windows,10,undefined,undefined,1536 x 864,1536 x 864
S020,39,Vrouwelijk,Rechts,1,76,right,no,250,rightarrow,543,true,focus,yes,305785,Firefox,112.0,Windows,10,undefined,undefined,1536 x 864,1536 x 864
S020,39,Vrouwelijk,Rechts,1,77,right,yes,250,undefined,null,true,focus,yes,307821,Firefox,112.0,Windows,10,undefined,undefined,1536 x 864,1536 x 864
S020,39,Vrouwelijk,Rechts,1,78,right,no,300,rightarrow,414,true,focus,yes,309016,Firefox,112.0,Windows,10,undefined,undefined,1536 x 864,1536 x 864
S020,39,Vrouwelijk,Rechts,1,79,right,no,300,rightarrow,544,true,focus,yes,310337,Firefox,112.0,Windows,10,undefined,undefined,1536 x 864,1536 x 864
S020,39,Vrouwelijk,Rechts,1,80,left,no,300,leftarrow,533,true,focus,yes,311644,Firefox,112.0,Windows,10,undefined,undefined,1536 x 864,1536 x 864
S020,39,Vrouwelijk,Rechts,1,81,right,yes,300,rightarrow,414,false,focus,yes,312841,Firefox,112.0,Windows,10,undefined,undefined,1536 x 864,1536 x 864
S020,39,Vrouwelijk,Rechts,1,82,left,yes,250,undefined,null,true,focus,yes,314861,Firefox,112.0,Windows,10,undefined,undefined,1536 x 864,1536 x 864
S020,39,Vrouwelijk,Rechts,1,83,right,no,300,rightarrow,559,true,focus,yes,316198,Firefox,112.0,Windows,10,undefined,undefined,1536 x 864,1536 x 864
S020,39,Vrouwelijk,Rechts,1,84,right,no,300,rightarrow,484,true,focus,yes,317454,Firefox,112.0,Windows,10,undefined,undefined,1536 x 864,1536 x 864
S020,39,Vrouwelijk,Rechts,1,85,left,no,300,leftarrow,536,true,focus,yes,318772,Firefox,112.0,Windows,10,undefined,undefined,1536 x 864,1536 x 864
S020,39,Vrouwelijk,Rechts,1,86,right,no,300,rightarrow,441,true,focus,yes,319995,Firefox,112.0,Windows,10,undefined,undefined,1536 x 864,1536 x 864
S020,39,Vrouwelijk,Rechts,1,87,left,no,300,leftarrow,421,true,focus,yes,321188,Firefox,112.0,Windows,10,undefined,undefined,1536 x 864,1536 x 864
S020,39,Vrouwelijk,Rechts,1,88,left,no,300,leftarrow,446,true,focus,yes,322404,Firefox,112.0,Windows,10,undefined,undefined,1536 x 864,1536 x 864
S020,39,Vrouwelijk,Rechts,1,89,right,no,300,rightarrow,537,true,focus,yes,323715,Firefox,112.0,Windows,10,undefined,undefined,1536 x 864,1536 x 864
S020,39,Vrouwelijk,Rechts,1,90,right,no,300,rightarrow,639,true,focus,yes,325118,Firefox,112.0,Windows,10,undefined,undefined,1536 x 864,1536 x 864
S020,39,Vrouwelijk,Rechts,1,91,left,no,300,leftarrow,576,true,focus,yes,326465,Firefox,112.0,Windows,10,undefined,undefined,1536 x 864,1536 x 864
S020,39,Vrouwelijk,Rechts,1,92,left,no,300,leftarrow,538,true,focus,yes,327766,Firefox,112.0,Windows,10,undefined,undefined,1536 x 864,1536 x 864
S020,39,Vrouwelijk,Rechts,1,93,left,no,300,leftarrow,606,true,focus,yes,329137,Firefox,112.0,Windows,10,undefined,undefined,1536 x 864,1536 x 864
S020,39,Vrouwelijk,Rechts,1,94,right,yes,300,rightarrow,534,false,focus,yes,330439,Firefox,112.0,Windows,10,undefined,undefined,1536 x 864,1536 x 864
S020,39,Vrouwelijk,Rechts,1,95,left,yes,250,leftarrow,490,false,focus,yes,331702,Firefox,112.0,Windows,10,undefined,undefined,1536 x 864,1536 x 864
S020,39,Vrouwelijk,Rechts,1,96,right,no,200,rightarrow,914,true,focus,yes,333392,Firefox,112.0,Windows,10,undefined,undefined,1536 x 864,1536 x 864
S020,39,Vrouwelijk,Rechts,1,97,right,no,200,rightarrow,481,true,focus,yes,334641,Firefox,112.0,Windows,10,undefined,undefined,1536 x 864,1536 x 864
S020,39,Vrouwelijk,Rechts,1,98,left,no,200,leftarrow,620,true,focus,yes,336021,Firefox,112.0,Windows,10,undefined,undefined,1536 x 864,1536 x 864
S020,39,Vrouwelijk,Rechts,1,99,right,no,200,rightarrow,707,true,focus,yes,337493,Firefox,112.0,Windows,10,undefined,undefined,1536 x 864,1536 x 864
S020,39,Vrouwelijk,Rechts,1,100,left,yes,200,undefined,null,true,focus,yes,339509,Firefox,112.0,Windows,10,undefined,undefined,1536 x 864,1536 x 864
S020,39,Vrouwelijk,Rechts,1,101,right,no,250,rightarrow,511,true,focus,yes,340797,Firefox,112.0,Windows,10,undefined,undefined,1536 x 864,1536 x 864
S020,39,Vrouwelijk,Rechts,1,102,left,no,250,leftarrow,509,true,focus,yes,342070,Firefox,112.0,Windows,10,undefined,undefined,1536 x 864,1536 x 864
S020,39,Vrouwelijk,Rechts,1,103,right,yes,250,rightarrow,533,false,focus,yes,343370,Firefox,112.0,Windows,10,undefined,undefined,1536 x 864,1536 x 864
S020,39,Vrouwelijk,Rechts,1,104,left,no,200,leftarrow,567,true,focus,yes,344703,Firefox,112.0,Windows,10,undefined,undefined,1536 x 864,1536 x 864
S020,39,Vrouwelijk,Rechts,1,105,right,no,200,rightarrow,592,true,focus,yes,346078,Firefox,112.0,Windows,10,undefined,undefined,1536 x 864,1536 x 864
S020,39,Vrouwelijk,Rechts,1,106,right,yes,200,undefined,null,true,focus,yes,348120,Firefox,112.0,Windows,10,undefined,undefined,1536 x 864,1536 x 864
S020,39,Vrouwelijk,Rechts,1,107,left,no,250,leftarrow,539,true,focus,yes,349426,Firefox,112.0,Windows,10,undefined,undefined,1536 x 864,1536 x 864
S020,39,Vrouwelijk,Rechts,1,108,right,no,250,rightarrow,383,true,focus,yes,350571,Firefox,112.0,Windows,10,undefined,undefined,1536 x 864,1536 x 864
S020,39,Vrouwelijk,Rechts,1,109,left,no,250,leftarrow,422,true,focus,yes,351767,Firefox,112.0,Windows,10,undefined,undefined,1536 x 864,1536 x 864
S020,39,Vrouwelijk,Rechts,1,110,left,no,250,leftarrow,424,true,focus,yes,352951,Firefox,112.0,Windows,10,undefined,undefined,1536 x 864,1536 x 864
S020,39,Vrouwelijk,Rechts,1,111,left,yes,250,leftarrow,511,false,focus,yes,354242,Firefox,112.0,Windows,10,undefined,undefined,1536 x 864,1536 x 864
S020,39,Vrouwelijk,Rechts,1,112,right,no,200,rightarrow,565,true,focus,yes,355576,Firefox,112.0,Windows,10,undefined,undefined,1536 x 864,1536 x 864
S020,39,Vrouwelijk,Rechts,1,113,right,no,200,rightarrow,557,true,focus,yes,356917,Firefox,112.0,Windows,10,undefined,undefined,1536 x 864,1536 x 864
S020,39,Vrouwelijk,Rechts,1,114,left,no,200,leftarrow,493,true,focus,yes,358183,Firefox,112.0,Windows,10,undefined,undefined,1536 x 864,1536 x 864
S020,39,Vrouwelijk,Rechts,1,115,right,no,200,rightarrow,524,true,focus,yes,359469,Firefox,112.0,Windows,10,undefined,undefined,1536 x 864,1536 x 864
S020,39,Vrouwelijk,Rechts,1,116,right,no,200,rightarrow,618,true,focus,yes,360846,Firefox,112.0,Windows,10,undefined,undefined,1536 x 864,1536 x 864
S020,39,Vrouwelijk,Rechts,1,117,left,no,200,leftarrow,458,true,focus,yes,362080,Firefox,112.0,Windows,10,undefined,undefined,1536 x 864,1536 x 864
S020,39,Vrouwelijk,Rechts,1,118,left,yes,200,undefined,null,true,focus,yes,364099,Firefox,112.0,Windows,10,undefined,undefined,1536 x 864,1536 x 864
S020,39,Vrouwelijk,Rechts,1,119,right,yes,250,rightarrow,424,false,focus,yes,365287,Firefox,112.0,Windows,10,undefined,undefined,1536 x 864,1536 x 864
S020,39,Vrouwelijk,Rechts,1,120,left,no,200,leftarrow,532,true,focus,yes,366594,Firefox,112.0,Windows,10,undefined,undefined,1536 x 864,1536 x 864
S020,39,Vrouwelijk,Rechts,1,121,left,no,200,leftarrow,386,true,focus,yes,367764,Firefox,112.0,Windows,10,undefined,undefined,1536 x 864,1536 x 864
S020,39,Vrouwelijk,Rechts,1,122,right,no,200,rightarrow,525,true,focus,yes,369066,Firefox,112.0,Windows,10,undefined,undefined,1536 x 864,1536 x 864
S020,39,Vrouwelijk,Rechts,1,123,right,no,200,rightarrow,540,true,focus,yes,370374,Firefox,112.0,Windows,10,undefined,undefined,1536 x 864,1536 x 864
S020,39,Vrouwelijk,Rechts,1,124,left,yes,200,undefined,null,true,focus,yes,372419,Firefox,112.0,Windows,10,undefined,undefined,1536 x 864,1536 x 864
S020,39,Vrouwelijk,Rechts,1,125,left,no,250,leftarrow,467,true,focus,yes,373662,Firefox,112.0,Windows,10,undefined,undefined,1536 x 864,1536 x 864
S020,39,Vrouwelijk,Rechts,1,126,right,no,250,rightarrow,363,true,focus,yes,374799,Firefox,112.0,Windows,10,undefined,undefined,1536 x 864,1536 x 864
S020,39,Vrouwelijk,Rechts,1,127,right,yes,250,rightarrow,480,false,focus,yes,376047,Firefox,112.0,Windows,10,undefined,undefined,1536 x 864,1536 x 864
S020,39,Vrouwelijk,Rechts,1,128,left,no,200,leftarrow,517,true,focus,yes,377353,Firefox,112.0,Windows,10,undefined,undefined,1536 x 864,1536 x 864
S020,39,Vrouwelijk,Rechts,2,1,left,no,200,leftarrow,441,true,focus,yes,397303,Firefox,112.0,Windows,10,undefined,undefined,1536 x 864,1536 x 864
S020,39,Vrouwelijk,Rechts,2,2,left,no,200,leftarrow,373,true,focus,yes,398451,Firefox,112.0,Windows,10,undefined,undefined,1536 x 864,1536 x 864
S020,39,Vrouwelijk,Rechts,2,3,right,yes,200,undefined,null,true,focus,yes,400479,Firefox,112.0,Windows,10,undefined,undefined,1536 x 864,1536 x 864
S020,39,Vrouwelijk,Rechts,2,4,left,no,250,leftarrow,442,true,focus,yes,401689,Firefox,112.0,Windows,10,undefined,undefined,1536 x 864,1536 x 864
S020,39,Vrouwelijk,Rechts,2,5,right,no,250,rightarrow,472,true,focus,yes,402934,Firefox,112.0,Windows,10,undefined,undefined,1536 x 864,1536 x 864
S020,39,Vrouwelijk,Rechts,2,6,right,no,250,rightarrow,475,true,focus,yes,404184,Firefox,112.0,Windows,10,undefined,undefined,1536 x 864,1536 x 864
S020,39,Vrouwelijk,Rechts,2,7,left,yes,250,leftarrow,493,false,focus,yes,405453,Firefox,112.0,Windows,10,undefined,undefined,1536 x 864,1536 x 864
S020,39,Vrouwelijk,Rechts,2,8,right,no,200,rightarrow,599,true,focus,yes,406822,Firefox,112.0,Windows,10,undefined,undefined,1536 x 864,1536 x 864
S020,39,Vrouwelijk,Rechts,2,9,right,no,200,rightarrow,524,true,focus,yes,408103,Firefox,112.0,Windows,10,undefined,undefined,1536 x 864,1536 x 864
S020,39,Vrouwelijk,Rechts,2,10,left,yes,200,undefined,null,true,focus,yes,410145,Firefox,112.0,Windows,10,undefined,undefined,1536 x 864,1536 x 864
S020,39,Vrouwelijk,Rechts,2,11,left,no,250,leftarrow,566,true,focus,yes,411486,Firefox,112.0,Windows,10,undefined,undefined,1536 x 864,1536 x 864
S020,39,Vrouwelijk,Rechts,2,12,right,yes,250,undefined,null,true,focus,yes,413507,Firefox,112.0,Windows,10,undefined,undefined,1536 x 864,1536 x 864
S020,39,Vrouwelijk,Rechts,2,13,right,no,300,rightarrow,508,true,focus,yes,414799,Firefox,112.0,Windows,10,undefined,undefined,1536 x 864,1536 x 864
S020,39,Vrouwelijk,Rechts,2,14,right,no,300,rightarrow,628,true,focus,yes,416189,Firefox,112.0,Windows,10,undefined,undefined,1536 x 864,1536 x 864
S020,39,Vrouwelijk,Rechts,2,15,left,no,300,leftarrow,567,true,focus,yes,417526,Firefox,112.0,Windows,10,undefined,undefined,1536 x 864,1536 x 864
S020,39,Vrouwelijk,Rechts,2,16,left,no,300,leftarrow,752,true,focus,yes,419065,Firefox,112.0,Windows,10,undefined,undefined,1536 x 864,1536 x 864
S020,39,Vrouwelijk,Rechts,2,17,left,no,300,leftarrow,440,true,focus,yes,420270,Firefox,112.0,Windows,10,undefined,undefined,1536 x 864,1536 x 864
S020,39,Vrouwelijk,Rechts,2,18,left,yes,300,leftarrow,510,false,focus,yes,421553,Firefox,112.0,Windows,10,undefined,undefined,1536 x 864,1536 x 864
S020,39,Vrouwelijk,Rechts,2,19,right,no,250,rightarrow,521,true,focus,yes,422836,Firefox,112.0,Windows,10,undefined,undefined,1536 x 864,1536 x 864
S020,39,Vrouwelijk,Rechts,2,20,right,no,250,rightarrow,587,true,focus,yes,424189,Firefox,112.0,Windows,10,undefined,undefined,1536 x 864,1536 x 864
S020,39,Vrouwelijk,Rechts,2,21,left,no,250,leftarrow,598,true,focus,yes,425556,Firefox,112.0,Windows,10,undefined,undefined,1536 x 864,1536 x 864
S020,39,Vrouwelijk,Rechts,2,22,right,yes,250,undefined,null,true,focus,yes,427585,Firefox,112.0,Windows,10,undefined,undefined,1536 x 864,1536 x 864
S020,39,Vrouwelijk,Rechts,2,23,right,no,300,rightarrow,508,true,focus,yes,428870,Firefox,112.0,Windows,10,undefined,undefined,1536 x 864,1536 x 864
S020,39,Vrouwelijk,Rechts,2,24,left,no,300,leftarrow,538,true,focus,yes,430183,Firefox,112.0,Windows,10,undefined,undefined,1536 x 864,1536 x 864
S020,39,Vrouwelijk,Rechts,2,25,left,no,300,leftarrow,415,true,focus,yes,431367,Firefox,112.0,Windows,10,undefined,undefined,1536 x 864,1536 x 864
S020,39,Vrouwelijk,Rechts,2,26,right,yes,300,rightarrow,460,false,focus,yes,432599,Firefox,112.0,Windows,10,undefined,undefined,1536 x 864,1536 x 864
S020,39,Vrouwelijk,Rechts,2,27,left,yes,250,leftarrow,437,false,focus,yes,433816,Firefox,112.0,Windows,10,undefined,undefined,1536 x 864,1536 x 864
S020,39,Vrouwelijk,Rechts,2,28,left,no,200,leftarrow,791,true,focus,yes,435372,Firefox,112.0,Windows,10,undefined,undefined,1536 x 864,1536 x 864
S020,39,Vrouwelijk,Rechts,2,29,right,no,200,rightarrow,598,true,focus,yes,436747,Firefox,112.0,Windows,10,undefined,undefined,1536 x 864,1536 x 864
S020,39,Vrouwelijk,Rechts,2,30,right,no,200,rightarrow,554,true,focus,yes,438072,Firefox,112.0,Windows,10,undefined,undefined,1536 x 864,1536 x 864
S020,39,Vrouwelijk,Rechts,2,31,right,no,200,rightarrow,737,true,focus,yes,439598,Firefox,112.0,Windows,10,undefined,undefined,1536 x 864,1536 x 864
S020,39,Vrouwelijk,Rechts,2,32,left,no,200,leftarrow,556,true,focus,yes,440932,Firefox,112.0,Windows,10,undefined,undefined,1536 x 864,1536 x 864
S020,39,Vrouwelijk,Rechts,2,33,left,no,200,leftarrow,626,true,focus,yes,442334,Firefox,112.0,Windows,10,undefined,undefined,1536 x 864,1536 x 864
S020,39,Vrouwelijk,Rechts,2,34,left,no,200,leftarrow,612,true,focus,yes,443719,Firefox,112.0,Windows,10,undefined,undefined,1536 x 864,1536 x 864
S020,39,Vrouwelijk,Rechts,2,35,right,no,200,rightarrow,423,true,focus,yes,444902,Firefox,112.0,Windows,10,undefined,undefined,1536 x 864,1536 x 864
S020,39,Vrouwelijk,Rechts,2,36,left,no,200,leftarrow,612,true,focus,yes,446274,Firefox,112.0,Windows,10,undefined,undefined,1536 x 864,1536 x 864
S020,39,Vrouwelijk,Rechts,2,37,right,no,200,rightarrow,564,true,focus,yes,447617,Firefox,112.0,Windows,10,undefined,undefined,1536 x 864,1536 x 864
S020,39,Vrouwelijk,Rechts,2,38,right,yes,200,undefined,null,true,focus,yes,449661,Firefox,112.0,Windows,10,undefined,undefined,1536 x 864,1536 x 864
S020,39,Vrouwelijk,Rechts,2,39,right,no,250,rightarrow,413,true,focus,yes,450854,Firefox,112.0,Windows,10,undefined,undefined,1536 x 864,1536 x 864
S020,39,Vrouwelijk,Rechts,2,40,left,yes,250,leftarrow,454,false,focus,yes,452084,Firefox,112.0,Windows,10,undefined,undefined,1536 x 864,1536 x 864
S020,39,Vrouwelijk,Rechts,2,41,left,no,200,leftarrow,708,true,focus,yes,453570,Firefox,112.0,Windows,10,undefined,undefined,1536 x 864,1536 x 864
S020,39,Vrouwelijk,Rechts,2,42,left,no,200,leftarrow,514,true,focus,yes,454866,Firefox,112.0,Windows,10,undefined,undefined,1536 x 864,1536 x 864
S020,39,Vrouwelijk,Rechts,2,43,right,no,200,rightarrow,551,true,focus,yes,456173,Firefox,112.0,Windows,10,undefined,undefined,1536 x 864,1536 x 864
S020,39,Vrouwelijk,Rechts,2,44,right,no,200,rightarrow,568,true,focus,yes,457499,Firefox,112.0,Windows,10,undefined,undefined,1536 x 864,1536 x 864
S020,39,Vrouwelijk,Rechts,2,45,left,yes,200,undefined,null,true,focus,yes,459532,Firefox,112.0,Windows,10,undefined,undefined,1536 x 864,1536 x 864
S020,39,Vrouwelijk,Rechts,2,46,left,no,250,leftarrow,483,true,focus,yes,460791,Firefox,112.0,Windows,10,undefined,undefined,1536 x 864,1536 x 864
S020,39,Vrouwelijk,Rechts,2,47,right,yes,250,undefined,null,true,focus,yes,462822,Firefox,112.0,Windows,10,undefined,undefined,1536 x 864,1536 x 864
S020,39,Vrouwelijk,Rechts,2,48,right,no,300,rightarrow,572,true,focus,yes,464155,Firefox,112.0,Windows,10,undefined,undefined,1536 x 864,1536 x 864
S020,39,Vrouwelijk,Rechts,2,49,left,yes,300,leftarrow,592,false,focus,yes,465520,Firefox,112.0,Windows,10,undefined,undefined,1536 x 864,1536 x 864
S020,39,Vrouwelijk,Rechts,2,50,left,no,250,leftarrow,791,true,focus,yes,467086,Firefox,112.0,Windows,10,undefined,undefined,1536 x 864,1536 x 864
S020,39,Vrouwelijk,Rechts,2,51,right,no,250,rightarrow,701,true,focus,yes,468552,Firefox,112.0,Windows,10,undefined,undefined,1536 x 864,1536 x 864
S020,39,Vrouwelijk,Rechts,2,52,right,yes,250,rightarrow,603,false,focus,yes,469914,Firefox,112.0,Windows,10,undefined,undefined,1536 x 864,1536 x 864
S020,39,Vrouwelijk,Rechts,2,61,left,no,150,leftarrow,406,true,focus,yes,483264,Firefox,112.0,Windows,10,undefined,undefined,1536 x 864,1536 x 864
S020,39,Vrouwelijk,Rechts,2,64,right,no,200,rightarrow,741,true,focus,yes,488371,Firefox,112.0,Windows,10,undefined,undefined,1536 x 864,1536 x 864
S020,39,Vrouwelijk,Rechts,2,56,right,no,200,undefined,null,false,focus,yes,476886,Firefox,112.0,Windows,10,undefined,undefined,1536 x 864,1536 x 864
S020,39,Vrouwelijk,Rechts,2,54,left,no,200,leftarrow,778,true,focus,yes,473238,Firefox,112.0,Windows,10,undefined,undefined,1536 x 864,1536 x 864
S020,39,Vrouwelijk,Rechts,2,55,right,no,200,rightarrow,861,true,focus,yes,474868,Firefox,112.0,Windows,10,undefined,undefined,1536 x 864,1536 x 864
S020,39,Vrouwelijk,Rechts,2,59,left,no,200,leftarrow,441,true,focus,yes,480904,Firefox,112.0,Windows,10,undefined,undefined,1536 x 864,1536 x 864
S020,39,Vrouwelijk,Rechts,2,53,left,no,200,leftarrow,1010,true,focus,yes,471696,Firefox,112.0,Windows,10,undefined,undefined,1536 x 864,1536 x 864
S020,39,Vrouwelijk,Rechts,2,57,right,no,200,rightarrow,576,true,focus,yes,478238,Firefox,112.0,Windows,10,undefined,undefined,1536 x 864,1536 x 864
S020,39,Vrouwelijk,Rechts,2,60,left,yes,200,leftarrow,403,false,focus,yes,482075,Firefox,112.0,Windows,10,undefined,undefined,1536 x 864,1536 x 864
S020,39,Vrouwelijk,Rechts,2,58,left,no,200,leftarrow,659,true,focus,yes,479685,Firefox,112.0,Windows,10,undefined,undefined,1536 x 864,1536 x 864
S020,39,Vrouwelijk,Rechts,2,62,right,yes,150,undefined,null,true,focus,yes,485286,Firefox,112.0,Windows,10,undefined,undefined,1536 x 864,1536 x 864
S020,39,Vrouwelijk,Rechts,2,63,right,no,200,rightarrow,809,true,focus,yes,486854,Firefox,112.0,Windows,10,undefined,undefined,1536 x 864,1536 x 864
S020,39,Vrouwelijk,Rechts,2,65,left,no,200,leftarrow,535,true,focus,yes,489670,Firefox,112.0,Windows,10,undefined,undefined,1536 x 864,1536 x 864
S020,39,Vrouwelijk,Rechts,2,66,left,yes,200,undefined,null,true,focus,yes,491705,Firefox,112.0,Windows,10,undefined,undefined,1536 x 864,1536 x 864
S020,39,Vrouwelijk,Rechts,2,67,left,no,250,leftarrow,421,true,focus,yes,492900,Firefox,112.0,Windows,10,undefined,undefined,1536 x 864,1536 x 864
S020,39,Vrouwelijk,Rechts,2,68,right,no,250,rightarrow,571,true,focus,yes,494250,Firefox,112.0,Windows,10,undefined,undefined,1536 x 864,1536 x 864
S020,39,Vrouwelijk,Rechts,2,69,left,no,250,leftarrow,545,true,focus,yes,495575,Firefox,112.0,Windows,10,undefined,undefined,1536 x 864,1536 x 864
S020,39,Vrouwelijk,Rechts,2,70,right,no,250,rightarrow,602,true,focus,yes,496951,Firefox,112.0,Windows,10,undefined,undefined,1536 x 864,1536 x 864
S020,39,Vrouwelijk,Rechts,2,71,right,yes,250,undefined,null,true,focus,yes,498977,Firefox,112.0,Windows,10,undefined,undefined,1536 x 864,1536 x 864
S020,39,Vrouwelijk,Rechts,2,72,right,no,300,rightarrow,339,true,focus,yes,500083,Firefox,112.0,Windows,10,undefined,undefined,1536 x 864,1536 x 864
S020,39,Vrouwelijk,Rechts,2,73,left,yes,300,leftarrow,458,false,focus,yes,501303,Firefox,112.0,Windows,10,undefined,undefined,1536 x 864,1536 x 864
S020,39,Vrouwelijk,Rechts,2,74,right,no,250,rightarrow,754,true,focus,yes,502817,Firefox,112.0,Windows,10,undefined,undefined,1536 x 864,1536 x 864
S020,39,Vrouwelijk,Rechts,2,75,right,yes,250,undefined,null,true,focus,yes,504841,Firefox,112.0,Windows,10,undefined,undefined,1536 x 864,1536 x 864
S020,39,Vrouwelijk,Rechts,2,76,left,no,300,leftarrow,487,true,focus,yes,506106,Firefox,112.0,Windows,10,undefined,undefined,1536 x 864,1536 x 864
S020,39,Vrouwelijk,Rechts,2,77,left,no,300,leftarrow,505,true,focus,yes,507384,Firefox,112.0,Windows,10,undefined,undefined,1536 x 864,1536 x 864
S020,39,Vrouwelijk,Rechts,2,78,left,no,300,leftarrow,638,true,focus,yes,508801,Firefox,112.0,Windows,10,undefined,undefined,1536 x 864,1536 x 864
S020,39,Vrouwelijk,Rechts,2,79,right,no,300,rightarrow,805,true,focus,yes,510389,Firefox,112.0,Windows,10,undefined,undefined,1536 x 864,1536 x 864
S020,39,Vrouwelijk,Rechts,2,80,right,no,300,rightarrow,707,true,focus,yes,511868,Firefox,112.0,Windows,10,undefined,undefined,1536 x 864,1536 x 864
S020,39,Vrouwelijk,Rechts,2,81,left,no,300,leftarrow,673,true,focus,yes,513317,Firefox,112.0,Windows,10,undefined,undefined,1536 x 864,1536 x 864
S020,39,Vrouwelijk,Rechts,2,82,right,no,300,rightarrow,643,true,focus,yes,514724,Firefox,112.0,Windows,10,undefined,undefined,1536 x 864,1536 x 864
S020,39,Vrouwelijk,Rechts,2,83,right,no,300,rightarrow,545,true,focus,yes,516058,Firefox,112.0,Windows,10,undefined,undefined,1536 x 864,1536 x 864
S020,39,Vrouwelijk,Rechts,2,84,right,no,300,rightarrow,636,true,focus,yes,517469,Firefox,112.0,Windows,10,undefined,undefined,1536 x 864,1536 x 864
S020,39,Vrouwelijk,Rechts,2,85,left,yes,300,undefined,null,true,focus,yes,519504,Firefox,112.0,Windows,10,undefined,undefined,1536 x 864,1536 x 864
S020,39,Vrouwelijk,Rechts,2,86,left,no,350,leftarrow,425,true,focus,yes,520705,Firefox,112.0,Windows,10,undefined,undefined,1536 x 864,1536 x 864
S020,39,Vrouwelijk,Rechts,2,87,right,yes,350,rightarrow,522,false,focus,yes,522004,Firefox,112.0,Windows,10,undefined,undefined,1536 x 864,1536 x 864
S020,39,Vrouwelijk,Rechts,2,88,left,no,300,leftarrow,723,true,focus,yes,523487,Firefox,112.0,Windows,10,undefined,undefined,1536 x 864,1536 x 864
S020,39,Vrouwelijk,Rechts,2,89,right,no,300,rightarrow,531,true,focus,yes,524793,Firefox,112.0,Windows,10,undefined,undefined,1536 x 864,1536 x 864
S020,39,Vrouwelijk,Rechts,2,90,left,no,300,leftarrow,531,true,focus,yes,526085,Firefox,112.0,Windows,10,undefined,undefined,1536 x 864,1536 x 864
S020,39,Vrouwelijk,Rechts,2,91,left,no,300,leftarrow,757,true,focus,yes,527602,Firefox,112.0,Windows,10,undefined,undefined,1536 x 864,1536 x 864
S020,39,Vrouwelijk,Rechts,2,92,right,no,300,rightarrow,634,true,focus,yes,529013,Firefox,112.0,Windows,10,undefined,undefined,1536 x 864,1536 x 864
S020,39,Vrouwelijk,Rechts,2,93,left,yes,300,undefined,null,true,focus,yes,531057,Firefox,112.0,Windows,10,undefined,undefined,1536 x 864,1536 x 864
S020,39,Vrouwelijk,Rechts,2,94,right,yes,350,undefined,null,true,focus,yes,533082,Firefox,112.0,Windows,10,undefined,undefined,1536 x 864,1536 x 864
S020,39,Vrouwelijk,Rechts,2,95,left,no,400,leftarrow,401,true,focus,yes,534255,Firefox,112.0,Windows,10,undefined,undefined,1536 x 864,1536 x 864
S020,39,Vrouwelijk,Rechts,2,96,right,no,400,rightarrow,580,true,focus,yes,535608,Firefox,112.0,Windows,10,undefined,undefined,1536 x 864,1536 x 864
S020,39,Vrouwelijk,Rechts,2,97,right,no,400,rightarrow,901,true,focus,yes,537285,Firefox,112.0,Windows,10,undefined,undefined,1536 x 864,1536 x 864
S020,39,Vrouwelijk,Rechts,2,98,right,yes,400,undefined,null,true,focus,yes,539312,Firefox,112.0,Windows,10,undefined,undefined,1536 x 864,1536 x 864
S020,39,Vrouwelijk,Rechts,2,99,right,no,450,rightarrow,584,true,focus,yes,540674,Firefox,112.0,Windows,10,undefined,undefined,1536 x 864,1536 x 864
S020,39,Vrouwelijk,Rechts,2,100,left,yes,450,leftarrow,555,false,focus,yes,542000,Firefox,112.0,Windows,10,undefined,undefined,1536 x 864,1536 x 864
S020,39,Vrouwelijk,Rechts,2,101,left,no,400,leftarrow,823,true,focus,yes,543584,Firefox,112.0,Windows,10,undefined,undefined,1536 x 864,1536 x 864
S020,39,Vrouwelijk,Rechts,2,102,left,no,400,leftarrow,960,true,focus,yes,545307,Firefox,112.0,Windows,10,undefined,undefined,1536 x 864,1536 x 864
S020,39,Vrouwelijk,Rechts,2,103,right,no,400,rightarrow,1034,true,focus,yes,547121,Firefox,112.0,Windows,10,undefined,undefined,1536 x 864,1536 x 864
S020,39,Vrouwelijk,Rechts,2,104,left,no,400,leftarrow,638,true,focus,yes,548534,Firefox,112.0,Windows,10,undefined,undefined,1536 x 864,1536 x 864
S020,39,Vrouwelijk,Rechts,2,105,left,no,400,leftarrow,1239,true,focus,yes,550535,Firefox,112.0,Windows,10,undefined,undefined,1536 x 864,1536 x 864
S020,39,Vrouwelijk,Rechts,2,106,left,no,400,leftarrow,706,true,focus,yes,552007,Firefox,112.0,Windows,10,undefined,undefined,1536 x 864,1536 x 864
S020,39,Vrouwelijk,Rechts,2,107,right,no,400,rightarrow,539,true,focus,yes,553302,Firefox,112.0,Windows,10,undefined,undefined,1536 x 864,1536 x 864
S020,39,Vrouwelijk,Rechts,2,108,right,yes,400,rightarrow,530,false,focus,yes,554620,Firefox,112.0,Windows,10,undefined,undefined,1536 x 864,1536 x 864
S020,39,Vrouwelijk,Rechts,2,109,right,no,350,rightarrow,924,true,focus,yes,556312,Firefox,112.0,Windows,10,undefined,undefined,1536 x 864,1536 x 864
S020,39,Vrouwelijk,Rechts,2,110,left,yes,350,undefined,null,true,focus,yes,558358,Firefox,112.0,Windows,10,undefined,undefined,1536 x 864,1536 x 864
S020,39,Vrouwelijk,Rechts,2,111,right,no,400,rightarrow,402,true,focus,yes,559538,Firefox,112.0,Windows,10,undefined,undefined,1536 x 864,1536 x 864
S020,39,Vrouwelijk,Rechts,2,112,left,no,400,leftarrow,685,true,focus,yes,560982,Firefox,112.0,Windows,10,undefined,undefined,1536 x 864,1536 x 864
S020,39,Vrouwelijk,Rechts,2,113,right,no,400,rightarrow,722,true,focus,yes,562467,Firefox,112.0,Windows,10,undefined,undefined,1536 x 864,1536 x 864
S020,39,Vrouwelijk,Rechts,2,114,right,yes,400,rightarrow,774,false,focus,yes,564013,Firefox,112.0,Windows,10,undefined,undefined,1536 x 864,1536 x 864
S020,39,Vrouwelijk,Rechts,2,115,right,no,350,undefined,null,false,focus,yes,566046,Firefox,112.0,Windows,10,undefined,undefined,1536 x 864,1536 x 864
S020,39,Vrouwelijk,Rechts,2,116,left,no,350,leftarrow,546,true,focus,yes,567360,Firefox,112.0,Windows,10,undefined,undefined,1536 x 864,1536 x 864
S020,39,Vrouwelijk,Rechts,2,117,right,no,350,rightarrow,565,true,focus,yes,568695,Firefox,112.0,Windows,10,undefined,undefined,1536 x 864,1536 x 864
S020,39,Vrouwelijk,Rechts,2,118,left,no,350,leftarrow,666,true,focus,yes,570126,Firefox,112.0,Windows,10,undefined,undefined,1536 x 864,1536 x 864
S020,39,Vrouwelijk,Rechts,2,119,left,yes,350,leftarrow,578,false,focus,yes,571474,Firefox,112.0,Windows,10,undefined,undefined,1536 x 864,1536 x 864
S020,39,Vrouwelijk,Rechts,2,120,left,no,300,leftarrow,771,true,focus,yes,573017,Firefox,112.0,Windows,10,undefined,undefined,1536 x 864,1536 x 864
S020,39,Vrouwelijk,Rechts,2,121,right,yes,300,undefined,null,true,focus,yes,575057,Firefox,112.0,Windows,10,undefined,undefined,1536 x 864,1536 x 864
S020,39,Vrouwelijk,Rechts,2,122,left,no,350,leftarrow,698,true,focus,yes,576536,Firefox,112.0,Windows,10,undefined,undefined,1536 x 864,1536 x 864
S020,39,Vrouwelijk,Rechts,2,123,left,no,350,leftarrow,663,true,focus,yes,577960,Firefox,112.0,Windows,10,undefined,undefined,1536 x 864,1536 x 864
S020,39,Vrouwelijk,Rechts,2,124,right,no,350,rightarrow,748,true,focus,yes,579478,Firefox,112.0,Windows,10,undefined,undefined,1536 x 864,1536 x 864
S020,39,Vrouwelijk,Rechts,2,125,right,no,350,rightarrow,567,true,focus,yes,580829,Firefox,112.0,Windows,10,undefined,undefined,1536 x 864,1536 x 864
S020,39,Vrouwelijk,Rechts,2,126,left,yes,350,undefined,null,true,focus,yes,582856,Firefox,112.0,Windows,10,undefined,undefined,1536 x 864,1536 x 864
S020,39,Vrouwelijk,Rechts,2,127,right,no,400,rightarrow,435,true,focus,yes,584073,Firefox,112.0,Windows,10,undefined,undefined,1536 x 864,1536 x 864
S020,39,Vrouwelijk,Rechts,2,128,left,no,400,leftarrow,624,true,focus,yes,585468,Firefox,112.0,Windows,10,undefined,undefined,1536 x 864,1536 x 864
S020,39,Vrouwelijk,Rechts,3,1,right,no,400,rightarrow,707,true,focus,yes,605489,Firefox,112.0,Windows,10,undefined,undefined,1536 x 864,1536 x 864
S020,39,Vrouwelijk,Rechts,3,2,left,no,400,leftarrow,472,true,focus,yes,606737,Firefox,112.0,Windows,10,undefined,undefined,1536 x 864,1536 x 864
S020,39,Vrouwelijk,Rechts,3,3,right,no,400,rightarrow,558,true,focus,yes,608056,Firefox,112.0,Windows,10,undefined,undefined,1536 x 864,1536 x 864
S020,39,Vrouwelijk,Rechts,3,4,right,no,400,rightarrow,519,true,focus,yes,609334,Firefox,112.0,Windows,10,undefined,undefined,1536 x 864,1536 x 864
S020,39,Vrouwelijk,Rechts,3,5,right,yes,400,undefined,null,true,focus,yes,611377,Firefox,112.0,Windows,10,undefined,undefined,1536 x 864,1536 x 864
S020,39,Vrouwelijk,Rechts,3,6,left,no,450,leftarrow,556,true,focus,yes,612703,Firefox,112.0,Windows,10,undefined,undefined,1536 x 864,1536 x 864
S020,39,Vrouwelijk,Rechts,3,7,left,yes,450,leftarrow,397,false,focus,yes,613860,Firefox,112.0,Windows,10,undefined,undefined,1536 x 864,1536 x 864
S020,39,Vrouwelijk,Rechts,3,8,left,no,400,leftarrow,544,true,focus,yes,615191,Firefox,112.0,Windows,10,undefined,undefined,1536 x 864,1536 x 864
S020,39,Vrouwelijk,Rechts,3,9,right,no,400,rightarrow,644,true,focus,yes,616592,Firefox,112.0,Windows,10,undefined,undefined,1536 x 864,1536 x 864
S020,39,Vrouwelijk,Rechts,3,10,right,no,400,rightarrow,506,true,focus,yes,617859,Firefox,112.0,Windows,10,undefined,undefined,1536 x 864,1536 x 864
S020,39,Vrouwelijk,Rechts,3,11,right,no,400,rightarrow,493,true,focus,yes,619119,Firefox,112.0,Windows,10,undefined,undefined,1536 x 864,1536 x 864
S020,39,Vrouwelijk,Rechts,3,12,left,no,400,leftarrow,626,true,focus,yes,620524,Firefox,112.0,Windows,10,undefined,undefined,1536 x 864,1536 x 864
S020,39,Vrouwelijk,Rechts,3,13,left,no,400,leftarrow,456,true,focus,yes,621755,Firefox,112.0,Windows,10,undefined,undefined,1536 x 864,1536 x 864
S020,39,Vrouwelijk,Rechts,3,14,left,no,400,leftarrow,614,true,focus,yes,623146,Firefox,112.0,Windows,10,undefined,undefined,1536 x 864,1536 x 864
S020,39,Vrouwelijk,Rechts,3,15,left,yes,400,leftarrow,496,false,focus,yes,624412,Firefox,112.0,Windows,10,undefined,undefined,1536 x 864,1536 x 864
S020,39,Vrouwelijk,Rechts,3,16,right,yes,350,rightarrow,939,false,focus,yes,626120,Firefox,112.0,Windows,10,undefined,undefined,1536 x 864,1536 x 864
S020,39,Vrouwelijk,Rechts,3,17,left,no,300,leftarrow,720,true,focus,yes,627610,Firefox,112.0,Windows,10,undefined,undefined,1536 x 864,1536 x 864
S020,39,Vrouwelijk,Rechts,3,18,left,no,300,leftarrow,926,true,focus,yes,629321,Firefox,112.0,Windows,10,undefined,undefined,1536 x 864,1536 x 864
S020,39,Vrouwelijk,Rechts,3,19,right,no,300,rightarrow,798,true,focus,yes,630888,Firefox,112.0,Windows,10,undefined,undefined,1536 x 864,1536 x 864
S020,39,Vrouwelijk,Rechts,3,20,right,no,300,rightarrow,731,true,focus,yes,632380,Firefox,112.0,Windows,10,undefined,undefined,1536 x 864,1536 x 864
S020,39,Vrouwelijk,Rechts,3,21,left,no,300,leftarrow,648,true,focus,yes,633803,Firefox,112.0,Windows,10,undefined,undefined,1536 x 864,1536 x 864
S020,39,Vrouwelijk,Rechts,3,22,right,yes,300,undefined,null,true,focus,yes,635837,Firefox,112.0,Windows,10,undefined,undefined,1536 x 864,1536 x 864
S020,39,Vrouwelijk,Rechts,3,23,right,no,350,rightarrow,439,true,focus,yes,637053,Firefox,112.0,Windows,10,undefined,undefined,1536 x 864,1536 x 864
S020,39,Vrouwelijk,Rechts,3,24,left,yes,350,undefined,null,true,focus,yes,639089,Firefox,112.0,Windows,10,undefined,undefined,1536 x 864,1536 x 864
S020,39,Vrouwelijk,Rechts,3,25,right,no,400,rightarrow,486,true,focus,yes,640351,Firefox,112.0,Windows,10,undefined,undefined,1536 x 864,1536 x 864
S020,39,Vrouwelijk,Rechts,3,26,right,no,400,rightarrow,666,true,focus,yes,641798,Firefox,112.0,Windows,10,undefined,undefined,1536 x 864,1536 x 864
S020,39,Vrouwelijk,Rechts,3,27,left,no,400,leftarrow,643,true,focus,yes,643207,Firefox,112.0,Windows,10,undefined,undefined,1536 x 864,1536 x 864
S020,39,Vrouwelijk,Rechts,3,28,left,no,400,leftarrow,573,true,focus,yes,644537,Firefox,112.0,Windows,10,undefined,undefined,1536 x 864,1536 x 864
S020,39,Vrouwelijk,Rechts,3,29,left,yes,400,leftarrow,608,false,focus,yes,645923,Firefox,112.0,Windows,10,undefined,undefined,1536 x 864,1536 x 864
S020,39,Vrouwelijk,Rechts,3,30,right,yes,350,rightarrow,909,false,focus,yes,647596,Firefox,112.0,Windows,10,undefined,undefined,1536 x 864,1536 x 864
S020,39,Vrouwelijk,Rechts,3,31,left,no,300,leftarrow,675,true,focus,yes,649035,Firefox,112.0,Windows,10,undefined,undefined,1536 x 864,1536 x 864
S020,39,Vrouwelijk,Rechts,3,32,right,no,300,rightarrow,782,true,focus,yes,650597,Firefox,112.0,Windows,10,undefined,undefined,1536 x 864,1536 x 864
S020,39,Vrouwelijk,Rechts,3,33,left,no,300,leftarrow,598,true,focus,yes,651974,Firefox,112.0,Windows,10,undefined,undefined,1536 x 864,1536 x 864
S020,39,Vrouwelijk,Rechts,3,34,right,no,300,rightarrow,1038,true,focus,yes,653790,Firefox,112.0,Windows,10,undefined,undefined,1536 x 864,1536 x 864
S020,39,Vrouwelijk,Rechts,3,35,left,no,300,leftarrow,675,true,focus,yes,655236,Firefox,112.0,Windows,10,undefined,undefined,1536 x 864,1536 x 864
S020,39,Vrouwelijk,Rechts,3,36,right,yes,300,rightarrow,706,false,focus,yes,656738,Firefox,112.0,Windows,10,undefined,undefined,1536 x 864,1536 x 864
S020,39,Vrouwelijk,Rechts,3,37,left,yes,250,undefined,null,true,focus,yes,658762,Firefox,112.0,Windows,10,undefined,undefined,1536 x 864,1536 x 864
S020,39,Vrouwelijk,Rechts,3,38,left,no,300,leftarrow,573,true,focus,yes,660119,Firefox,112.0,Windows,10,undefined,undefined,1536 x 864,1536 x 864
S020,39,Vrouwelijk,Rechts,3,39,right,no,300,rightarrow,1063,true,focus,yes,661953,Firefox,112.0,Windows,10,undefined,undefined,1536 x 864,1536 x 864
S020,39,Vrouwelijk,Rechts,3,40,right,no,300,rightarrow,817,true,focus,yes,663536,Firefox,112.0,Windows,10,undefined,undefined,1536 x 864,1536 x 864
S020,39,Vrouwelijk,Rechts,3,41,left,no,300,leftarrow,769,true,focus,yes,665085,Firefox,112.0,Windows,10,undefined,undefined,1536 x 864,1536 x 864
S020,39,Vrouwelijk,Rechts,3,42,right,yes,300,rightarrow,506,false,focus,yes,666359,Firefox,112.0,Windows,10,undefined,undefined,1536 x 864,1536 x 864
S020,39,Vrouwelijk,Rechts,3,43,left,no,250,leftarrow,582,true,focus,yes,667713,Firefox,112.0,Windows,10,undefined,undefined,1536 x 864,1536 x 864
S020,39,Vrouwelijk,Rechts,3,44,left,no,250,leftarrow,632,true,focus,yes,669112,Firefox,112.0,Windows,10,undefined,undefined,1536 x 864,1536 x 864
S020,39,Vrouwelijk,Rechts,3,45,left,yes,250,undefined,null,true,focus,yes,671146,Firefox,112.0,Windows,10,undefined,undefined,1536 x 864,1536 x 864
S020,39,Vrouwelijk,Rechts,3,46,right,no,300,rightarrow,629,true,focus,yes,672551,Firefox,112.0,Windows,10,undefined,undefined,1536 x 864,1536 x 864
S020,39,Vrouwelijk,Rechts,3,47,right,no,300,rightarrow,597,true,focus,yes,673919,Firefox,112.0,Windows,10,undefined,undefined,1536 x 864,1536 x 864
S020,39,Vrouwelijk,Rechts,3,48,right,no,300,rightarrow,477,true,focus,yes,675176,Firefox,112.0,Windows,10,undefined,undefined,1536 x 864,1536 x 864
S020,39,Vrouwelijk,Rechts,3,49,left,no,300,leftarrow,815,true,focus,yes,676770,Firefox,112.0,Windows,10,undefined,undefined,1536 x 864,1536 x 864
S020,39,Vrouwelijk,Rechts,3,50,right,no,300,rightarrow,792,true,focus,yes,678339,Firefox,112.0,Windows,10,undefined,undefined,1536 x 864,1536 x 864
S020,39,Vrouwelijk,Rechts,3,51,right,yes,300,undefined,null,true,focus,yes,680375,Firefox,112.0,Windows,10,undefined,undefined,1536 x 864,1536 x 864
S020,39,Vrouwelijk,Rechts,3,52,right,no,350,rightarrow,442,true,focus,yes,681592,Firefox,112.0,Windows,10,undefined,undefined,1536 x 864,1536 x 864
S020,39,Vrouwelijk,Rechts,3,53,left,no,350,leftarrow,488,true,focus,yes,682839,Firefox,112.0,Windows,10,undefined,undefined,1536 x 864,1536 x 864
S020,39,Vrouwelijk,Rechts,3,54,left,no,350,leftarrow,523,true,focus,yes,684141,Firefox,112.0,Windows,10,undefined,undefined,1536 x 864,1536 x 864
S020,39,Vrouwelijk,Rechts,3,55,left,yes,350,leftarrow,569,false,focus,yes,685483,Firefox,112.0,Windows,10,undefined,undefined,1536 x 864,1536 x 864
S020,39,Vrouwelijk,Rechts,3,56,right,no,300,rightarrow,727,true,focus,yes,686976,Firefox,112.0,Windows,10,undefined,undefined,1536 x 864,1536 x 864
S020,39,Vrouwelijk,Rechts,3,57,left,no,300,leftarrow,810,true,focus,yes,688558,Firefox,112.0,Windows,10,undefined,undefined,1536 x 864,1536 x 864
S020,39,Vrouwelijk,Rechts,3,58,right,no,300,rightarrow,746,true,focus,yes,690078,Firefox,112.0,Windows,10,undefined,undefined,1536 x 864,1536 x 864
S020,39,Vrouwelijk,Rechts,3,59,left,no,300,leftarrow,752,true,focus,yes,691602,Firefox,112.0,Windows,10,undefined,undefined,1536 x 864,1536 x 864
S020,39,Vrouwelijk,Rechts,3,60,right,no,300,rightarrow,1184,true,focus,yes,693562,Firefox,112.0,Windows,10,undefined,undefined,1536 x 864,1536 x 864
S020,39,Vrouwelijk,Rechts,3,61,left,yes,300,undefined,null,true,focus,yes,695621,Firefox,112.0,Windows,10,undefined,undefined,1536 x 864,1536 x 864
S020,39,Vrouwelijk,Rechts,3,62,left,no,350,leftarrow,742,true,focus,yes,697123,Firefox,112.0,Windows,10,undefined,undefined,1536 x 864,1536 x 864
S020,39,Vrouwelijk,Rechts,3,63,right,yes,350,undefined,null,true,focus,yes,699146,Firefox,112.0,Windows,10,undefined,undefined,1536 x 864,1536 x 864
S020,39,Vrouwelijk,Rechts,3,64,right,no,400,rightarrow,948,true,focus,yes,700863,Firefox,112.0,Windows,10,undefined,undefined,1536 x 864,1536 x 864
S020,39,Vrouwelijk,Rechts,3,65,left,yes,400,leftarrow,645,false,focus,yes,702279,Firefox,112.0,Windows,10,undefined,undefined,1536 x 864,1536 x 864
S020,39,Vrouwelijk,Rechts,3,66,left,no,350,leftarrow,936,true,focus,yes,704009,Firefox,112.0,Windows,10,undefined,undefined,1536 x 864,1536 x 864
S020,39,Vrouwelijk,Rechts,3,67,left,no,350,leftarrow,1026,true,focus,yes,705800,Firefox,112.0,Windows,10,undefined,undefined,1536 x 864,1536 x 864
S020,39,Vrouwelijk,Rechts,3,68,right,no,350,rightarrow,792,true,focus,yes,707357,Firefox,112.0,Windows,10,undefined,undefined,1536 x 864,1536 x 864
S020,39,Vrouwelijk,Rechts,3,69,right,yes,350,undefined,null,true,focus,yes,709376,Firefox,112.0,Windows,10,undefined,undefined,1536 x 864,1536 x 864
S020,39,Vrouwelijk,Rechts,3,70,left,no,400,leftarrow,630,true,focus,yes,710784,Firefox,112.0,Windows,10,undefined,undefined,1536 x 864,1536 x 864
S020,39,Vrouwelijk,Rechts,3,71,right,no,400,rightarrow,582,true,focus,yes,712141,Firefox,112.0,Windows,10,undefined,undefined,1536 x 864,1536 x 864
S020,39,Vrouwelijk,Rechts,3,72,right,no,400,rightarrow,547,true,focus,yes,713461,Firefox,112.0,Windows,10,undefined,undefined,1536 x 864,1536 x 864
S020,39,Vrouwelijk,Rechts,3,73,left,no,400,leftarrow,830,true,focus,yes,715079,Firefox,112.0,Windows,10,undefined,undefined,1536 x 864,1536 x 864
S020,39,Vrouwelijk,Rechts,3,74,left,no,400,leftarrow,696,true,focus,yes,716551,Firefox,112.0,Windows,10,undefined,undefined,1536 x 864,1536 x 864
S020,39,Vrouwelijk,Rechts,3,75,right,no,400,rightarrow,634,true,focus,yes,717966,Firefox,112.0,Windows,10,undefined,undefined,1536 x 864,1536 x 864
S020,39,Vrouwelijk,Rechts,3,76,left,yes,400,leftarrow,669,false,focus,yes,719401,Firefox,112.0,Windows,10,undefined,undefined,1536 x 864,1536 x 864
S020,39,Vrouwelijk,Rechts,3,77,left,no,350,leftarrow,721,true,focus,yes,720889,Firefox,112.0,Windows,10,undefined,undefined,1536 x 864,1536 x 864
S020,39,Vrouwelijk,Rechts,3,78,right,no,350,rightarrow,985,true,focus,yes,722659,Firefox,112.0,Windows,10,undefined,undefined,1536 x 864,1536 x 864
S020,39,Vrouwelijk,Rechts,3,79,right,no,350,rightarrow,539,true,focus,yes,723984,Firefox,112.0,Windows,10,undefined,undefined,1536 x 864,1536 x 864
S020,39,Vrouwelijk,Rechts,3,80,right,yes,350,rightarrow,484,false,focus,yes,725242,Firefox,112.0,Windows,10,undefined,undefined,1536 x 864,1536 x 864
S020,39,Vrouwelijk,Rechts,3,81,right,no,300,rightarrow,603,true,focus,yes,726619,Firefox,112.0,Windows,10,undefined,undefined,1536 x 864,1536 x 864
S020,39,Vrouwelijk,Rechts,3,82,left,no,300,leftarrow,618,true,focus,yes,728012,Firefox,112.0,Windows,10,undefined,undefined,1536 x 864,1536 x 864
S020,39,Vrouwelijk,Rechts,3,83,left,no,300,leftarrow,502,true,focus,yes,729284,Firefox,112.0,Windows,10,undefined,undefined,1536 x 864,1536 x 864
S020,39,Vrouwelijk,Rechts,3,84,right,no,300,rightarrow,685,true,focus,yes,730734,Firefox,112.0,Windows,10,undefined,undefined,1536 x 864,1536 x 864
S020,39,Vrouwelijk,Rechts,3,85,right,no,300,rightarrow,781,true,focus,yes,732276,Firefox,112.0,Windows,10,undefined,undefined,1536 x 864,1536 x 864
S020,39,Vrouwelijk,Rechts,3,86,left,yes,300,undefined,null,true,focus,yes,734314,Firefox,112.0,Windows,10,undefined,undefined,1536 x 864,1536 x 864
S020,39,Vrouwelijk,Rechts,3,87,left,no,350,leftarrow,566,true,focus,yes,735657,Firefox,112.0,Windows,10,undefined,undefined,1536 x 864,1536 x 864
S020,39,Vrouwelijk,Rechts,3,88,right,yes,350,undefined,null,true,focus,yes,737681,Firefox,112.0,Windows,10,undefined,undefined,1536 x 864,1536 x 864
S020,39,Vrouwelijk,Rechts,3,89,left,no,400,leftarrow,557,true,focus,yes,739021,Firefox,112.0,Windows,10,undefined,undefined,1536 x 864,1536 x 864
S020,39,Vrouwelijk,Rechts,3,90,left,no,400,leftarrow,456,true,focus,yes,740247,Firefox,112.0,Windows,10,undefined,undefined,1536 x 864,1536 x 864
S020,39,Vrouwelijk,Rechts,3,91,right,no,400,rightarrow,634,true,focus,yes,741651,Firefox,112.0,Windows,10,undefined,undefined,1536 x 864,1536 x 864
S020,39,Vrouwelijk,Rechts,3,92,right,yes,400,rightarrow,632,false,focus,yes,743060,Firefox,112.0,Windows,10,undefined,undefined,1536 x 864,1536 x 864
S020,39,Vrouwelijk,Rechts,3,93,left,no,350,leftarrow,743,true,focus,yes,744575,Firefox,112.0,Windows,10,undefined,undefined,1536 x 864,1536 x 864
S020,39,Vrouwelijk,Rechts,3,94,left,yes,350,leftarrow,312,false,focus,yes,745651,Firefox,112.0,Windows,10,undefined,undefined,1536 x 864,1536 x 864
S020,39,Vrouwelijk,Rechts,3,95,right,no,300,rightarrow,426,true,focus,yes,746853,Firefox,112.0,Windows,10,undefined,undefined,1536 x 864,1536 x 864
S020,39,Vrouwelijk,Rechts,3,96,right,no,300,leftarrow,313,false,focus,yes,747935,Firefox,112.0,Windows,10,undefined,undefined,1536 x 864,1536 x 864
S020,39,Vrouwelijk,Rechts,3,97,left,no,300,leftarrow,413,true,focus,yes,749112,Firefox,112.0,Windows,10,undefined,undefined,1536 x 864,1536 x 864
S020,39,Vrouwelijk,Rechts,3,98,right,no,300,rightarrow,426,true,focus,yes,750305,Firefox,112.0,Windows,10,undefined,undefined,1536 x 864,1536 x 864
S020,39,Vrouwelijk,Rechts,3,99,right,yes,300,rightarrow,428,false,focus,yes,751509,Firefox,112.0,Windows,10,undefined,undefined,1536 x 864,1536 x 864
S020,39,Vrouwelijk,Rechts,3,100,left,yes,250,leftarrow,498,false,focus,yes,752781,Firefox,112.0,Windows,10,undefined,undefined,1536 x 864,1536 x 864
S020,39,Vrouwelijk,Rechts,3,101,right,no,200,rightarrow,508,true,focus,yes,754065,Firefox,112.0,Windows,10,undefined,undefined,1536 x 864,1536 x 864
S020,39,Vrouwelijk,Rechts,3,102,right,no,200,rightarrow,507,true,focus,yes,755340,Firefox,112.0,Windows,10,undefined,undefined,1536 x 864,1536 x 864
S020,39,Vrouwelijk,Rechts,3,103,left,no,200,leftarrow,446,true,focus,yes,756552,Firefox,112.0,Windows,10,undefined,undefined,1536 x 864,1536 x 864
S020,39,Vrouwelijk,Rechts,3,104,left,no,200,leftarrow,500,true,focus,yes,757822,Firefox,112.0,Windows,10,undefined,undefined,1536 x 864,1536 x 864
S020,39,Vrouwelijk,Rechts,3,105,left,no,200,leftarrow,491,true,focus,yes,759073,Firefox,112.0,Windows,10,undefined,undefined,1536 x 864,1536 x 864
S020,39,Vrouwelijk,Rechts,3,106,left,yes,200,undefined,null,true,focus,yes,761096,Firefox,112.0,Windows,10,undefined,undefined,1536 x 864,1536 x 864
S020,39,Vrouwelijk,Rechts,3,107,left,no,250,leftarrow,438,true,focus,yes,762311,Firefox,112.0,Windows,10,undefined,undefined,1536 x 864,1536 x 864
S020,39,Vrouwelijk,Rechts,3,108,right,no,250,rightarrow,448,true,focus,yes,763549,Firefox,112.0,Windows,10,undefined,undefined,1536 x 864,1536 x 864
S020,39,Vrouwelijk,Rechts,3,109,right,yes,250,rightarrow,470,false,focus,yes,764779,Firefox,112.0,Windows,10,undefined,undefined,1536 x 864,1536 x 864
S020,39,Vrouwelijk,Rechts,3,110,right,no,200,rightarrow,667,true,focus,yes,766225,Firefox,112.0,Windows,10,undefined,undefined,1536 x 864,1536 x 864
S020,39,Vrouwelijk,Rechts,3,111,right,no,200,rightarrow,446,true,focus,yes,767444,Firefox,112.0,Windows,10,undefined,undefined,1536 x 864,1536 x 864
S020,39,Vrouwelijk,Rechts,3,112,left,no,200,leftarrow,672,true,focus,yes,768886,Firefox,112.0,Windows,10,undefined,undefined,1536 x 864,1536 x 864
S020,39,Vrouwelijk,Rechts,3,113,right,yes,200,undefined,null,true,focus,yes,770905,Firefox,112.0,Windows,10,undefined,undefined,1536 x 864,1536 x 864
S020,39,Vrouwelijk,Rechts,3,114,left,yes,250,leftarrow,472,false,focus,yes,772144,Firefox,112.0,Windows,10,undefined,undefined,1536 x 864,1536 x 864
S020,39,Vrouwelijk,Rechts,3,115,right,no,200,rightarrow,508,true,focus,yes,773438,Firefox,112.0,Windows,10,undefined,undefined,1536 x 864,1536 x 864
S020,39,Vrouwelijk,Rechts,3,116,left,no,200,leftarrow,771,true,focus,yes,774970,Firefox,112.0,Windows,10,undefined,undefined,1536 x 864,1536 x 864
S020,39,Vrouwelijk,Rechts,3,117,left,no,200,leftarrow,544,true,focus,yes,776292,Firefox,112.0,Windows,10,undefined,undefined,1536 x 864,1536 x 864
S020,39,Vrouwelijk,Rechts,3,118,left,no,200,leftarrow,461,true,focus,yes,777538,Firefox,112.0,Windows,10,undefined,undefined,1536 x 864,1536 x 864
S020,39,Vrouwelijk,Rechts,3,119,right,no,200,rightarrow,709,true,focus,yes,779033,Firefox,112.0,Windows,10,undefined,undefined,1536 x 864,1536 x 864
S020,39,Vrouwelijk,Rechts,3,120,right,no,200,rightarrow,418,true,focus,yes,780222,Firefox,112.0,Windows,10,undefined,undefined,1536 x 864,1536 x 864
S020,39,Vrouwelijk,Rechts,3,121,left,no,200,leftarrow,646,true,focus,yes,781629,Firefox,112.0,Windows,10,undefined,undefined,1536 x 864,1536 x 864
S020,39,Vrouwelijk,Rechts,3,122,left,no,200,leftarrow,405,true,focus,yes,782819,Firefox,112.0,Windows,10,undefined,undefined,1536 x 864,1536 x 864
S020,39,Vrouwelijk,Rechts,3,123,right,no,200,rightarrow,616,true,focus,yes,784216,Firefox,112.0,Windows,10,undefined,undefined,1536 x 864,1536 x 864
S020,39,Vrouwelijk,Rechts,3,124,left,yes,200,undefined,null,true,focus,yes,786254,Firefox,112.0,Windows,10,undefined,undefined,1536 x 864,1536 x 864
S020,39,Vrouwelijk,Rechts,3,125,right,no,250,rightarrow,471,true,focus,yes,787502,Firefox,112.0,Windows,10,undefined,undefined,1536 x 864,1536 x 864
S020,39,Vrouwelijk,Rechts,3,126,right,no,250,rightarrow,493,true,focus,yes,788769,Firefox,112.0,Windows,10,undefined,undefined,1536 x 864,1536 x 864
S020,39,Vrouwelijk,Rechts,3,127,right,yes,250,rightarrow,514,false,focus,yes,790063,Firefox,112.0,Windows,10,undefined,undefined,1536 x 864,1536 x 864
S020,39,Vrouwelijk,Rechts,3,128,left,no,200,leftarrow,440,true,focus,yes,791271,Firefox,112.0,Windows,10,undefined,undefined,1536 x 864,1536 x 864
S020,39,Vrouwelijk,Rechts,4,1,right,no,200,rightarrow,545,true,focus,yes,810170,Firefox,112.0,Windows,10,undefined,undefined,1536 x 864,1536 x 864
S020,39,Vrouwelijk,Rechts,4,2,left,no,200,leftarrow,514,true,focus,yes,811465,Firefox,112.0,Windows,10,undefined,undefined,1536 x 864,1536 x 864
S020,39,Vrouwelijk,Rechts,4,3,left,no,200,leftarrow,557,true,focus,yes,812791,Firefox,112.0,Windows,10,undefined,undefined,1536 x 864,1536 x 864
S020,39,Vrouwelijk,Rechts,4,4,left,yes,200,undefined,null,true,focus,yes,814831,Firefox,112.0,Windows,10,undefined,undefined,1536 x 864,1536 x 864
S020,39,Vrouwelijk,Rechts,4,5,right,no,250,rightarrow,478,true,focus,yes,816078,Firefox,112.0,Windows,10,undefined,undefined,1536 x 864,1536 x 864
S020,39,Vrouwelijk,Rechts,4,6,left,no,250,leftarrow,593,true,focus,yes,817441,Firefox,112.0,Windows,10,undefined,undefined,1536 x 864,1536 x 864
S020,39,Vrouwelijk,Rechts,4,7,right,no,250,rightarrow,511,true,focus,yes,818713,Firefox,112.0,Windows,10,undefined,undefined,1536 x 864,1536 x 864
S020,39,Vrouwelijk,Rechts,4,8,right,yes,250,undefined,null,true,focus,yes,820742,Firefox,112.0,Windows,10,undefined,undefined,1536 x 864,1536 x 864
S020,39,Vrouwelijk,Rechts,4,9,left,no,300,leftarrow,537,true,focus,yes,822056,Firefox,112.0,Windows,10,undefined,undefined,1536 x 864,1536 x 864
S020,39,Vrouwelijk,Rechts,4,10,left,yes,300,leftarrow,449,false,focus,yes,823264,Firefox,112.0,Windows,10,undefined,undefined,1536 x 864,1536 x 864
S020,39,Vrouwelijk,Rechts,4,11,left,no,250,leftarrow,530,true,focus,yes,824571,Firefox,112.0,Windows,10,undefined,undefined,1536 x 864,1536 x 864
S020,39,Vrouwelijk,Rechts,4,12,right,no,250,rightarrow,684,true,focus,yes,826019,Firefox,112.0,Windows,10,undefined,undefined,1536 x 864,1536 x 864
S020,39,Vrouwelijk,Rechts,4,13,right,yes,250,undefined,null,true,focus,yes,828039,Firefox,112.0,Windows,10,undefined,undefined,1536 x 864,1536 x 864
S020,39,Vrouwelijk,Rechts,4,14,left,no,300,leftarrow,527,true,focus,yes,829344,Firefox,112.0,Windows,10,undefined,undefined,1536 x 864,1536 x 864
S020,39,Vrouwelijk,Rechts,4,15,right,no,300,rightarrow,534,true,focus,yes,830640,Firefox,112.0,Windows,10,undefined,undefined,1536 x 864,1536 x 864
S020,39,Vrouwelijk,Rechts,4,16,right,no,300,rightarrow,572,true,focus,yes,831987,Firefox,112.0,Windows,10,undefined,undefined,1536 x 864,1536 x 864
S020,39,Vrouwelijk,Rechts,4,17,right,no,300,rightarrow,438,true,focus,yes,833204,Firefox,112.0,Windows,10,undefined,undefined,1536 x 864,1536 x 864
S020,39,Vrouwelijk,Rechts,4,18,right,no,300,rightarrow,601,true,focus,yes,834575,Firefox,112.0,Windows,10,undefined,undefined,1536 x 864,1536 x 864
S020,39,Vrouwelijk,Rechts,4,19,left,no,300,leftarrow,615,true,focus,yes,835960,Firefox,112.0,Windows,10,undefined,undefined,1536 x 864,1536 x 864
S020,39,Vrouwelijk,Rechts,4,20,right,no,300,rightarrow,587,true,focus,yes,837311,Firefox,112.0,Windows,10,undefined,undefined,1536 x 864,1536 x 864
S020,39,Vrouwelijk,Rechts,4,21,left,no,300,leftarrow,533,true,focus,yes,838608,Firefox,112.0,Windows,10,undefined,undefined,1536 x 864,1536 x 864
S020,39,Vrouwelijk,Rechts,4,22,right,yes,300,rightarrow,543,false,focus,yes,839921,Firefox,112.0,Windows,10,undefined,undefined,1536 x 864,1536 x 864
S020,39,Vrouwelijk,Rechts,4,23,left,yes,250,undefined,null,true,focus,yes,841956,Firefox,112.0,Windows,10,undefined,undefined,1536 x 864,1536 x 864
S020,39,Vrouwelijk,Rechts,4,24,left,no,300,leftarrow,523,true,focus,yes,843239,Firefox,112.0,Windows,10,undefined,undefined,1536 x 864,1536 x 864
S020,39,Vrouwelijk,Rechts,4,25,left,no,300,leftarrow,895,true,focus,yes,844904,Firefox,112.0,Windows,10,undefined,undefined,1536 x 864,1536 x 864
S020,39,Vrouwelijk,Rechts,4,26,left,no,300,leftarrow,1226,true,focus,yes,846910,Firefox,112.0,Windows,10,undefined,undefined,1536 x 864,1536 x 864
S020,39,Vrouwelijk,Rechts,4,27,right,no,300,rightarrow,644,true,focus,yes,848325,Firefox,112.0,Windows,10,undefined,undefined,1536 x 864,1536 x 864
S020,39,Vrouwelijk,Rechts,4,28,right,yes,300,rightarrow,493,false,focus,yes,849590,Firefox,112.0,Windows,10,undefined,undefined,1536 x 864,1536 x 864
S020,39,Vrouwelijk,Rechts,4,29,right,no,250,rightarrow,731,true,focus,yes,851089,Firefox,112.0,Windows,10,undefined,undefined,1536 x 864,1536 x 864
S020,39,Vrouwelijk,Rechts,4,30,left,no,250,leftarrow,730,true,focus,yes,852579,Firefox,112.0,Windows,10,undefined,undefined,1536 x 864,1536 x 864
S020,39,Vrouwelijk,Rechts,4,31,right,no,250,rightarrow,784,true,focus,yes,854139,Firefox,112.0,Windows,10,undefined,undefined,1536 x 864,1536 x 864
S020,39,Vrouwelijk,Rechts,4,32,left,yes,250,undefined,null,true,focus,yes,856166,Firefox,112.0,Windows,10,undefined,undefined,1536 x 864,1536 x 864
S020,39,Vrouwelijk,Rechts,4,33,right,no,300,rightarrow,659,true,focus,yes,857593,Firefox,112.0,Windows,10,undefined,undefined,1536 x 864,1536 x 864
S020,39,Vrouwelijk,Rechts,4,34,right,no,300,rightarrow,635,true,focus,yes,858998,Firefox,112.0,Windows,10,undefined,undefined,1536 x 864,1536 x 864
S020,39,Vrouwelijk,Rechts,4,35,left,no,300,leftarrow,619,true,focus,yes,860390,Firefox,112.0,Windows,10,undefined,undefined,1536 x 864,1536 x 864
S020,39,Vrouwelijk,Rechts,4,36,left,yes,300,undefined,null,true,focus,yes,862410,Firefox,112.0,Windows,10,undefined,undefined,1536 x 864,1536 x 864
S020,39,Vrouwelijk,Rechts,4,37,right,no,350,rightarrow,540,true,focus,yes,863724,Firefox,112.0,Windows,10,undefined,undefined,1536 x 864,1536 x 864
S020,39,Vrouwelijk,Rechts,4,38,left,no,350,leftarrow,558,true,focus,yes,865045,Firefox,112.0,Windows,10,undefined,undefined,1536 x 864,1536 x 864
S020,39,Vrouwelijk,Rechts,4,39,right,yes,350,rightarrow,566,false,focus,yes,866391,Firefox,112.0,Windows,10,undefined,undefined,1536 x 864,1536 x 864
S020,39,Vrouwelijk,Rechts,4,40,left,no,300,leftarrow,887,true,focus,yes,868049,Firefox,112.0,Windows,10,undefined,undefined,1536 x 864,1536 x 864
S020,39,Vrouwelijk,Rechts,4,41,left,no,300,leftarrow,908,true,focus,yes,869725,Firefox,112.0,Windows,10,undefined,undefined,1536 x 864,1536 x 864
S020,39,Vrouwelijk,Rechts,4,42,left,no,300,leftarrow,645,true,focus,yes,871138,Firefox,112.0,Windows,10,undefined,undefined,1536 x 864,1536 x 864
S020,39,Vrouwelijk,Rechts,4,43,right,no,300,rightarrow,783,true,focus,yes,872694,Firefox,112.0,Windows,10,undefined,undefined,1536 x 864,1536 x 864
S020,39,Vrouwelijk,Rechts,4,44,right,yes,300,undefined,null,true,focus,yes,874734,Firefox,112.0,Windows,10,undefined,undefined,1536 x 864,1536 x 864
S020,39,Vrouwelijk,Rechts,4,45,right,no,350,rightarrow,527,true,focus,yes,876044,Firefox,112.0,Windows,10,undefined,undefined,1536 x 864,1536 x 864
S020,39,Vrouwelijk,Rechts,4,46,left,yes,350,leftarrow,541,false,focus,yes,877356,Firefox,112.0,Windows,10,undefined,undefined,1536 x 864,1536 x 864
S020,39,Vrouwelijk,Rechts,4,47,left,no,300,leftarrow,538,true,focus,yes,878669,Firefox,112.0,Windows,10,undefined,undefined,1536 x 864,1536 x 864
S020,39,Vrouwelijk,Rechts,4,48,right,no,300,rightarrow,578,true,focus,yes,880025,Firefox,112.0,Windows,10,undefined,undefined,1536 x 864,1536 x 864
S020,39,Vrouwelijk,Rechts,4,49,right,no,300,rightarrow,604,true,focus,yes,881405,Firefox,112.0,Windows,10,undefined,undefined,1536 x 864,1536 x 864
S020,39,Vrouwelijk,Rechts,4,50,right,no,300,rightarrow,542,true,focus,yes,882722,Firefox,112.0,Windows,10,undefined,undefined,1536 x 864,1536 x 864
S020,39,Vrouwelijk,Rechts,4,51,left,no,300,leftarrow,609,true,focus,yes,884110,Firefox,112.0,Windows,10,undefined,undefined,1536 x 864,1536 x 864
S020,39,Vrouwelijk,Rechts,4,52,left,yes,300,leftarrow,533,false,focus,yes,885411,Firefox,112.0,Windows,10,undefined,undefined,1536 x 864,1536 x 864
S020,39,Vrouwelijk,Rechts,4,53,right,yes,250,undefined,null,true,focus,yes,887440,Firefox,112.0,Windows,10,undefined,undefined,1536 x 864,1536 x 864
S020,39,Vrouwelijk,Rechts,4,54,right,no,300,rightarrow,463,true,focus,yes,888673,Firefox,112.0,Windows,10,undefined,undefined,1536 x 864,1536 x 864
S020,39,Vrouwelijk,Rechts,4,55,left,no,300,leftarrow,714,true,focus,yes,890155,Firefox,112.0,Windows,10,undefined,undefined,1536 x 864,1536 x 864
S020,39,Vrouwelijk,Rechts,4,56,left,no,300,leftarrow,590,true,focus,yes,891504,Firefox,112.0,Windows,10,undefined,undefined,1536 x 864,1536 x 864
S020,39,Vrouwelijk,Rechts,4,57,left,yes,300,undefined,null,true,focus,yes,893547,Firefox,112.0,Windows,10,undefined,undefined,1536 x 864,1536 x 864
S020,39,Vrouwelijk,Rechts,4,58,right,no,350,rightarrow,608,true,focus,yes,894925,Firefox,112.0,Windows,10,undefined,undefined,1536 x 864,1536 x 864
S020,39,Vrouwelijk,Rechts,4,59,right,no,350,rightarrow,634,true,focus,yes,896329,Firefox,112.0,Windows,10,undefined,undefined,1536 x 864,1536 x 864
S020,39,Vrouwelijk,Rechts,4,60,right,yes,350,rightarrow,567,false,focus,yes,897661,Firefox,112.0,Windows,10,undefined,undefined,1536 x 864,1536 x 864
S020,39,Vrouwelijk,Rechts,4,61,left,no,300,leftarrow,672,true,focus,yes,899104,Firefox,112.0,Windows,10,undefined,undefined,1536 x 864,1536 x 864
S020,39,Vrouwelijk,Rechts,4,62,left,no,300,leftarrow,483,true,focus,yes,900357,Firefox,112.0,Windows,10,undefined,undefined,1536 x 864,1536 x 864
S020,39,Vrouwelijk,Rechts,4,63,right,no,300,rightarrow,549,true,focus,yes,901686,Firefox,112.0,Windows,10,undefined,undefined,1536 x 864,1536 x 864
S020,39,Vrouwelijk,Rechts,4,64,left,no,300,leftarrow,792,true,focus,yes,903257,Firefox,112.0,Windows,10,undefined,undefined,1536 x 864,1536 x 864
S020,39,Vrouwelijk,Rechts,4,65,right,no,300,rightarrow,445,true,focus,yes,904476,Firefox,112.0,Windows,10,undefined,undefined,1536 x 864,1536 x 864
S020,39,Vrouwelijk,Rechts,4,66,left,no,300,leftarrow,884,true,focus,yes,906135,Firefox,112.0,Windows,10,undefined,undefined,1536 x 864,1536 x 864
S020,39,Vrouwelijk,Rechts,4,67,right,yes,300,rightarrow,467,false,focus,yes,907369,Firefox,112.0,Windows,10,undefined,undefined,1536 x 864,1536 x 864
S020,39,Vrouwelijk,Rechts,4,68,left,no,250,leftarrow,396,true,focus,yes,908539,Firefox,112.0,Windows,10,undefined,undefined,1536 x 864,1536 x 864
S020,39,Vrouwelijk,Rechts,4,69,left,no,250,leftarrow,1177,true,focus,yes,910490,Firefox,112.0,Windows,10,undefined,undefined,1536 x 864,1536 x 864
S020,39,Vrouwelijk,Rechts,4,70,right,no,250,rightarrow,746,true,focus,yes,912020,Firefox,112.0,Windows,10,undefined,undefined,1536 x 864,1536 x 864
S020,39,Vrouwelijk,Rechts,4,71,left,yes,250,undefined,null,true,focus,yes,914057,Firefox,112.0,Windows,10,undefined,undefined,1536 x 864,1536 x 864
S020,39,Vrouwelijk,Rechts,4,72,right,no,300,rightarrow,443,true,focus,yes,915259,Firefox,112.0,Windows,10,undefined,undefined,1536 x 864,1536 x 864
S020,39,Vrouwelijk,Rechts,4,73,left,no,300,leftarrow,593,true,focus,yes,916610,Firefox,112.0,Windows,10,undefined,undefined,1536 x 864,1536 x 864
S020,39,Vrouwelijk,Rechts,4,74,right,no,300,rightarrow,610,true,focus,yes,918007,Firefox,112.0,Windows,10,undefined,undefined,1536 x 864,1536 x 864
S020,39,Vrouwelijk,Rechts,4,75,left,yes,300,leftarrow,494,false,focus,yes,919269,Firefox,112.0,Windows,10,undefined,undefined,1536 x 864,1536 x 864
S020,39,Vrouwelijk,Rechts,4,76,right,yes,250,undefined,null,true,focus,yes,921294,Firefox,112.0,Windows,10,undefined,undefined,1536 x 864,1536 x 864
S020,39,Vrouwelijk,Rechts,4,77,right,no,300,rightarrow,539,true,focus,yes,922613,Firefox,112.0,Windows,10,undefined,undefined,1536 x 864,1536 x 864
S020,39,Vrouwelijk,Rechts,4,78,left,no,300,leftarrow,593,true,focus,yes,923978,Firefox,112.0,Windows,10,undefined,undefined,1536 x 864,1536 x 864
S020,39,Vrouwelijk,Rechts,4,79,left,no,300,leftarrow,631,true,focus,yes,925373,Firefox,112.0,Windows,10,undefined,undefined,1536 x 864,1536 x 864
S020,39,Vrouwelijk,Rechts,4,80,right,no,300,rightarrow,645,true,focus,yes,926796,Firefox,112.0,Windows,10,undefined,undefined,1536 x 864,1536 x 864
S020,39,Vrouwelijk,Rechts,4,81,right,no,300,rightarrow,536,true,focus,yes,928106,Firefox,112.0,Windows,10,undefined,undefined,1536 x 864,1536 x 864
S020,39,Vrouwelijk,Rechts,4,82,left,yes,300,leftarrow,583,false,focus,yes,929466,Firefox,112.0,Windows,10,undefined,undefined,1536 x 864,1536 x 864
S020,39,Vrouwelijk,Rechts,4,83,right,no,250,rightarrow,951,true,focus,yes,931185,Firefox,112.0,Windows,10,undefined,undefined,1536 x 864,1536 x 864
S020,39,Vrouwelijk,Rechts,4,84,left,no,250,leftarrow,475,true,focus,yes,932435,Firefox,112.0,Windows,10,undefined,undefined,1536 x 864,1536 x 864
S020,39,Vrouwelijk,Rechts,4,85,right,no,250,rightarrow,616,true,focus,yes,933833,Firefox,112.0,Windows,10,undefined,undefined,1536 x 864,1536 x 864
S020,39,Vrouwelijk,Rechts,4,86,right,yes,250,undefined,null,true,focus,yes,935861,Firefox,112.0,Windows,10,undefined,undefined,1536 x 864,1536 x 864
S020,39,Vrouwelijk,Rechts,4,87,left,no,300,leftarrow,663,true,focus,yes,937294,Firefox,112.0,Windows,10,undefined,undefined,1536 x 864,1536 x 864
S020,39,Vrouwelijk,Rechts,4,88,left,no,300,leftarrow,724,true,focus,yes,938786,Firefox,112.0,Windows,10,undefined,undefined,1536 x 864,1536 x 864
S020,39,Vrouwelijk,Rechts,4,89,left,no,300,leftarrow,520,true,focus,yes,940086,Firefox,112.0,Windows,10,undefined,undefined,1536 x 864,1536 x 864
S020,39,Vrouwelijk,Rechts,4,90,right,no,300,rightarrow,520,true,focus,yes,941387,Firefox,112.0,Windows,10,undefined,undefined,1536 x 864,1536 x 864
S020,39,Vrouwelijk,Rechts,4,91,right,yes,300,rightarrow,562,false,focus,yes,942728,Firefox,112.0,Windows,10,undefined,undefined,1536 x 864,1536 x 864
S020,39,Vrouwelijk,Rechts,4,92,left,no,250,leftarrow,583,true,focus,yes,944084,Firefox,112.0,Windows,10,undefined,undefined,1536 x 864,1536 x 864
S020,39,Vrouwelijk,Rechts,4,93,right,no,250,rightarrow,565,true,focus,yes,945417,Firefox,112.0,Windows,10,undefined,undefined,1536 x 864,1536 x 864
S020,39,Vrouwelijk,Rechts,4,94,left,no,250,leftarrow,665,true,focus,yes,946851,Firefox,112.0,Windows,10,undefined,undefined,1536 x 864,1536 x 864
S020,39,Vrouwelijk,Rechts,4,95,right,no,250,rightarrow,481,true,focus,yes,948096,Firefox,112.0,Windows,10,undefined,undefined,1536 x 864,1536 x 864
S020,39,Vrouwelijk,Rechts,4,96,left,yes,250,undefined,null,true,focus,yes,950130,Firefox,112.0,Windows,10,undefined,undefined,1536 x 864,1536 x 864
S020,39,Vrouwelijk,Rechts,4,97,left,no,300,leftarrow,507,true,focus,yes,951410,Firefox,112.0,Windows,10,undefined,undefined,1536 x 864,1536 x 864
S020,39,Vrouwelijk,Rechts,4,98,left,no,300,leftarrow,545,true,focus,yes,952739,Firefox,112.0,Windows,10,undefined,undefined,1536 x 864,1536 x 864
S020,39,Vrouwelijk,Rechts,4,99,right,yes,300,undefined,null,true,focus,yes,954783,Firefox,112.0,Windows,10,undefined,undefined,1536 x 864,1536 x 864
S020,39,Vrouwelijk,Rechts,4,100,left,yes,350,leftarrow,625,false,focus,yes,956194,Firefox,112.0,Windows,10,undefined,undefined,1536 x 864,1536 x 864
S020,39,Vrouwelijk,Rechts,4,101,left,no,300,leftarrow,894,true,focus,yes,957858,Firefox,112.0,Windows,10,undefined,undefined,1536 x 864,1536 x 864
S020,39,Vrouwelijk,Rechts,4,102,right,no,300,leftarrow,597,false,focus,yes,959215,Firefox,112.0,Windows,10,undefined,undefined,1536 x 864,1536 x 864
S020,39,Vrouwelijk,Rechts,4,103,right,no,300,rightarrow,883,true,focus,yes,960859,Firefox,112.0,Windows,10,undefined,undefined,1536 x 864,1536 x 864
S020,39,Vrouwelijk,Rechts,4,104,right,no,300,rightarrow,440,true,focus,yes,962070,Firefox,112.0,Windows,10,undefined,undefined,1536 x 864,1536 x 864
S020,39,Vrouwelijk,Rechts,4,105,left,no,300,leftarrow,677,true,focus,yes,963529,Firefox,112.0,Windows,10,undefined,undefined,1536 x 864,1536 x 864
S020,39,Vrouwelijk,Rechts,4,106,right,yes,300,rightarrow,509,false,focus,yes,964826,Firefox,112.0,Windows,10,undefined,undefined,1536 x 864,1536 x 864
S020,39,Vrouwelijk,Rechts,4,107,left,no,250,leftarrow,577,true,focus,yes,966179,Firefox,112.0,Windows,10,undefined,undefined,1536 x 864,1536 x 864
S020,39,Vrouwelijk,Rechts,4,108,right,no,250,rightarrow,744,true,focus,yes,967695,Firefox,112.0,Windows,10,undefined,undefined,1536 x 864,1536 x 864
S020,39,Vrouwelijk,Rechts,4,109,right,no,250,rightarrow,864,true,focus,yes,969326,Firefox,112.0,Windows,10,undefined,undefined,1536 x 864,1536 x 864
S020,39,Vrouwelijk,Rechts,4,110,left,no,250,leftarrow,770,true,focus,yes,970870,Firefox,112.0,Windows,10,undefined,undefined,1536 x 864,1536 x 864
S020,39,Vrouwelijk,Rechts,4,111,right,no,250,rightarrow,692,true,focus,yes,972342,Firefox,112.0,Windows,10,undefined,undefined,1536 x 864,1536 x 864
S020,39,Vrouwelijk,Rechts,4,112,left,yes,250,undefined,null,true,focus,yes,974360,Firefox,112.0,Windows,10,undefined,undefined,1536 x 864,1536 x 864
S020,39,Vrouwelijk,Rechts,4,113,left,yes,300,leftarrow,1125,false,focus,yes,976276,Firefox,112.0,Windows,10,undefined,undefined,1536 x 864,1536 x 864
S020,39,Vrouwelijk,Rechts,4,114,right,no,250,rightarrow,707,true,focus,yes,977772,Firefox,112.0,Windows,10,undefined,undefined,1536 x 864,1536 x 864
S020,39,Vrouwelijk,Rechts,4,115,right,no,250,rightarrow,769,true,focus,yes,979304,Firefox,112.0,Windows,10,undefined,undefined,1536 x 864,1536 x 864
S020,39,Vrouwelijk,Rechts,4,116,left,no,250,leftarrow,489,true,focus,yes,980574,Firefox,112.0,Windows,10,undefined,undefined,1536 x 864,1536 x 864
S020,39,Vrouwelijk,Rechts,4,117,left,no,250,leftarrow,527,true,focus,yes,981861,Firefox,112.0,Windows,10,undefined,undefined,1536 x 864,1536 x 864
S020,39,Vrouwelijk,Rechts,4,118,right,no,250,rightarrow,653,true,focus,yes,983295,Firefox,112.0,Windows,10,undefined,undefined,1536 x 864,1536 x 864
S020,39,Vrouwelijk,Rechts,4,119,right,yes,250,rightarrow,471,false,focus,yes,984546,Firefox,112.0,Windows,10,undefined,undefined,1536 x 864,1536 x 864
S020,39,Vrouwelijk,Rechts,4,120,left,no,200,leftarrow,532,true,focus,yes,985849,Firefox,112.0,Windows,10,undefined,undefined,1536 x 864,1536 x 864
S020,39,Vrouwelijk,Rechts,4,121,left,yes,200,undefined,null,true,focus,yes,987875,Firefox,112.0,Windows,10,undefined,undefined,1536 x 864,1536 x 864
S020,39,Vrouwelijk,Rechts,4,122,right,no,250,rightarrow,934,true,focus,yes,989578,Firefox,112.0,Windows,10,undefined,undefined,1536 x 864,1536 x 864
S020,39,Vrouwelijk,Rechts,4,123,right,no,250,rightarrow,666,true,focus,yes,991013,Firefox,112.0,Windows,10,undefined,undefined,1536 x 864,1536 x 864
S020,39,Vrouwelijk,Rechts,4,124,left,no,250,leftarrow,686,true,focus,yes,992472,Firefox,112.0,Windows,10,undefined,undefined,1536 x 864,1536 x 864
S020,39,Vrouwelijk,Rechts,4,125,left,no,250,leftarrow,520,true,focus,yes,993772,Firefox,112.0,Windows,10,undefined,undefined,1536 x 864,1536 x 864
S020,39,Vrouwelijk,Rechts,4,126,left,no,250,leftarrow,709,true,focus,yes,995278,Firefox,112.0,Windows,10,undefined,undefined,1536 x 864,1536 x 864
S020,39,Vrouwelijk,Rechts,4,127,right,no,250,rightarrow,863,true,focus,yes,996915,Firefox,112.0,Windows,10,undefined,undefined,1536 x 864,1536 x 864
S020,39,Vrouwelijk,Rechts,4,128,right,yes,250,undefined,null,true,focus,yes,998950,Firefox,112.0,Windows,10,undefined,undefined,1536 x 864,1536 x 864
S020,39,Vrouwelijk,Rechts,5,1,right,no,300,rightarrow,572,true,focus,yes,1030439,Firefox,112.0,Windows,10,undefined,undefined,1536 x 864,1536 x 864
S020,39,Vrouwelijk,Rechts,5,2,left,no,300,undefined,null,false,focus,yes,1032482,Firefox,112.0,Windows,10,undefined,undefined,1536 x 864,1536 x 864
S020,39,Vrouwelijk,Rechts,5,3,left,no,300,leftarrow,489,true,focus,yes,1033755,Firefox,112.0,Windows,10,undefined,undefined,1536 x 864,1536 x 864
S020,39,Vrouwelijk,Rechts,5,4,left,no,300,leftarrow,547,true,focus,yes,1035072,Firefox,112.0,Windows,10,undefined,undefined,1536 x 864,1536 x 864
S020,39,Vrouwelijk,Rechts,5,5,left,yes,300,leftarrow,714,false,focus,yes,1036555,Firefox,112.0,Windows,10,undefined,undefined,1536 x 864,1536 x 864
S020,39,Vrouwelijk,Rechts,5,6,right,no,250,rightarrow,593,true,focus,yes,1037928,Firefox,112.0,Windows,10,undefined,undefined,1536 x 864,1536 x 864
S020,39,Vrouwelijk,Rechts,5,7,right,yes,250,undefined,null,true,focus,yes,1039954,Firefox,112.0,Windows,10,undefined,undefined,1536 x 864,1536 x 864
S020,39,Vrouwelijk,Rechts,5,8,right,no,300,rightarrow,539,true,focus,yes,1041256,Firefox,112.0,Windows,10,undefined,undefined,1536 x 864,1536 x 864
S020,39,Vrouwelijk,Rechts,5,9,left,yes,300,leftarrow,476,false,focus,yes,1042508,Firefox,112.0,Windows,10,undefined,undefined,1536 x 864,1536 x 864
S020,39,Vrouwelijk,Rechts,5,10,left,no,250,leftarrow,670,true,focus,yes,1043947,Firefox,112.0,Windows,10,undefined,undefined,1536 x 864,1536 x 864
S020,39,Vrouwelijk,Rechts,5,11,left,no,250,leftarrow,723,true,focus,yes,1045442,Firefox,112.0,Windows,10,undefined,undefined,1536 x 864,1536 x 864
S020,39,Vrouwelijk,Rechts,5,12,right,no,250,rightarrow,607,true,focus,yes,1046825,Firefox,112.0,Windows,10,undefined,undefined,1536 x 864,1536 x 864
S020,39,Vrouwelijk,Rechts,5,13,right,no,250,rightarrow,668,true,focus,yes,1048258,Firefox,112.0,Windows,10,undefined,undefined,1536 x 864,1536 x 864
S020,39,Vrouwelijk,Rechts,5,14,right,yes,250,undefined,null,true,focus,yes,1050294,Firefox,112.0,Windows,10,undefined,undefined,1536 x 864,1536 x 864
S020,39,Vrouwelijk,Rechts,5,15,left,no,300,leftarrow,592,true,focus,yes,1051659,Firefox,112.0,Windows,10,undefined,undefined,1536 x 864,1536 x 864
S020,39,Vrouwelijk,Rechts,5,16,right,no,300,rightarrow,642,true,focus,yes,1053076,Firefox,112.0,Windows,10,undefined,undefined,1536 x 864,1536 x 864
S020,39,Vrouwelijk,Rechts,5,17,right,no,300,rightarrow,608,true,focus,yes,1054448,Firefox,112.0,Windows,10,undefined,undefined,1536 x 864,1536 x 864
S020,39,Vrouwelijk,Rechts,5,18,right,no,300,rightarrow,937,true,focus,yes,1056156,Firefox,112.0,Windows,10,undefined,undefined,1536 x 864,1536 x 864
S020,39,Vrouwelijk,Rechts,5,19,left,no,300,leftarrow,646,true,focus,yes,1057573,Firefox,112.0,Windows,10,undefined,undefined,1536 x 864,1536 x 864
S020,39,Vrouwelijk,Rechts,5,20,right,yes,300,undefined,null,true,focus,yes,1059598,Firefox,112.0,Windows,10,undefined,undefined,1536 x 864,1536 x 864
S020,39,Vrouwelijk,Rechts,5,21,left,yes,350,leftarrow,478,false,focus,yes,1060860,Firefox,112.0,Windows,10,undefined,undefined,1536 x 864,1536 x 864
S020,39,Vrouwelijk,Rechts,5,22,left,no,300,leftarrow,605,true,focus,yes,1062226,Firefox,112.0,Windows,10,undefined,undefined,1536 x 864,1536 x 864
S020,39,Vrouwelijk,Rechts,5,23,left,no,300,leftarrow,498,true,focus,yes,1063491,Firefox,112.0,Windows,10,undefined,undefined,1536 x 864,1536 x 864
S020,39,Vrouwelijk,Rechts,5,24,right,no,300,rightarrow,655,true,focus,yes,1064908,Firefox,112.0,Windows,10,undefined,undefined,1536 x 864,1536 x 864
S020,39,Vrouwelijk,Rechts,5,25,left,no,300,leftarrow,556,true,focus,yes,1066224,Firefox,112.0,Windows,10,undefined,undefined,1536 x 864,1536 x 864
S020,39,Vrouwelijk,Rechts,5,26,left,no,300,leftarrow,640,true,focus,yes,1067626,Firefox,112.0,Windows,10,undefined,undefined,1536 x 864,1536 x 864
S020,39,Vrouwelijk,Rechts,5,27,right,yes,300,undefined,null,true,focus,yes,1069650,Firefox,112.0,Windows,10,undefined,undefined,1536 x 864,1536 x 864
S020,39,Vrouwelijk,Rechts,5,28,left,yes,350,leftarrow,488,false,focus,yes,1070898,Firefox,112.0,Windows,10,undefined,undefined,1536 x 864,1536 x 864
S020,39,Vrouwelijk,Rechts,5,29,right,no,300,rightarrow,673,true,focus,yes,1072350,Firefox,112.0,Windows,10,undefined,undefined,1536 x 864,1536 x 864
S020,39,Vrouwelijk,Rechts,5,30,right,no,300,rightarrow,695,true,focus,yes,1073820,Firefox,112.0,Windows,10,undefined,undefined,1536 x 864,1536 x 864
S020,39,Vrouwelijk,Rechts,5,31,left,no,300,leftarrow,783,true,focus,yes,1075379,Firefox,112.0,Windows,10,undefined,undefined,1536 x 864,1536 x 864
S020,39,Vrouwelijk,Rechts,5,32,right,no,300,rightarrow,698,true,focus,yes,1076867,Firefox,112.0,Windows,10,undefined,undefined,1536 x 864,1536 x 864
S020,39,Vrouwelijk,Rechts,5,33,right,no,300,rightarrow,747,true,focus,yes,1078397,Firefox,112.0,Windows,10,undefined,undefined,1536 x 864,1536 x 864
S020,39,Vrouwelijk,Rechts,5,34,right,no,300,rightarrow,571,true,focus,yes,1079738,Firefox,112.0,Windows,10,undefined,undefined,1536 x 864,1536 x 864
S020,39,Vrouwelijk,Rechts,5,35,left,no,300,leftarrow,702,true,focus,yes,1081222,Firefox,112.0,Windows,10,undefined,undefined,1536 x 864,1536 x 864
S020,39,Vrouwelijk,Rechts,5,36,left,no,300,leftarrow,1037,true,focus,yes,1083025,Firefox,112.0,Windows,10,undefined,undefined,1536 x 864,1536 x 864
S020,39,Vrouwelijk,Rechts,5,37,right,yes,300,rightarrow,493,false,focus,yes,1084298,Firefox,112.0,Windows,10,undefined,undefined,1536 x 864,1536 x 864
S020,39,Vrouwelijk,Rechts,5,38,left,no,250,leftarrow,959,true,focus,yes,1086030,Firefox,112.0,Windows,10,undefined,undefined,1536 x 864,1536 x 864
S020,39,Vrouwelijk,Rechts,5,39,right,no,250,rightarrow,617,true,focus,yes,1087412,Firefox,112.0,Windows,10,undefined,undefined,1536 x 864,1536 x 864
S020,39,Vrouwelijk,Rechts,5,40,left,yes,250,undefined,null,true,focus,yes,1089435,Firefox,112.0,Windows,10,undefined,undefined,1536 x 864,1536 x 864
S020,39,Vrouwelijk,Rechts,5,41,left,no,300,leftarrow,698,true,focus,yes,1090909,Firefox,112.0,Windows,10,undefined,undefined,1536 x 864,1536 x 864
S020,39,Vrouwelijk,Rechts,5,42,left,no,300,leftarrow,874,true,focus,yes,1092558,Firefox,112.0,Windows,10,undefined,undefined,1536 x 864,1536 x 864
S020,39,Vrouwelijk,Rechts,5,43,right,no,300,rightarrow,710,true,focus,yes,1094038,Firefox,112.0,Windows,10,undefined,undefined,1536 x 864,1536 x 864
S020,39,Vrouwelijk,Rechts,5,44,right,no,300,rightarrow,687,true,focus,yes,1095507,Firefox,112.0,Windows,10,undefined,undefined,1536 x 864,1536 x 864
S020,39,Vrouwelijk,Rechts,5,45,right,no,300,rightarrow,608,true,focus,yes,1096893,Firefox,112.0,Windows,10,undefined,undefined,1536 x 864,1536 x 864
S020,39,Vrouwelijk,Rechts,5,46,right,yes,300,undefined,null,true,focus,yes,1098907,Firefox,112.0,Windows,10,undefined,undefined,1536 x 864,1536 x 864
S020,39,Vrouwelijk,Rechts,5,47,left,yes,350,undefined,null,true,focus,yes,1100934,Firefox,112.0,Windows,10,undefined,undefined,1536 x 864,1536 x 864
S020,39,Vrouwelijk,Rechts,5,48,left,no,400,leftarrow,704,true,focus,yes,1102407,Firefox,112.0,Windows,10,undefined,undefined,1536 x 864,1536 x 864
S020,39,Vrouwelijk,Rechts,5,49,left,no,400,leftarrow,708,true,focus,yes,1103893,Firefox,112.0,Windows,10,undefined,undefined,1536 x 864,1536 x 864
S020,39,Vrouwelijk,Rechts,5,50,left,yes,400,undefined,null,true,focus,yes,1105919,Firefox,112.0,Windows,10,undefined,undefined,1536 x 864,1536 x 864
S020,39,Vrouwelijk,Rechts,5,51,left,no,450,leftarrow,578,true,focus,yes,1107265,Firefox,112.0,Windows,10,undefined,undefined,1536 x 864,1536 x 864
S020,39,Vrouwelijk,Rechts,5,52,right,no,450,rightarrow,611,true,focus,yes,1108665,Firefox,112.0,Windows,10,undefined,undefined,1536 x 864,1536 x 864
S020,39,Vrouwelijk,Rechts,5,53,right,yes,450,undefined,null,true,focus,yes,1110709,Firefox,112.0,Windows,10,undefined,undefined,1536 x 864,1536 x 864
S020,39,Vrouwelijk,Rechts,5,54,left,no,500,leftarrow,572,true,focus,yes,1112057,Firefox,112.0,Windows,10,undefined,undefined,1536 x 864,1536 x 864
S020,39,Vrouwelijk,Rechts,5,55,right,no,500,rightarrow,724,true,focus,yes,1113558,Firefox,112.0,Windows,10,undefined,undefined,1536 x 864,1536 x 864
S020,39,Vrouwelijk,Rechts,5,56,right,no,500,rightarrow,576,true,focus,yes,1114903,Firefox,112.0,Windows,10,undefined,undefined,1536 x 864,1536 x 864
S020,39,Vrouwelijk,Rechts,5,57,left,no,500,leftarrow,758,true,focus,yes,1116440,Firefox,112.0,Windows,10,undefined,undefined,1536 x 864,1536 x 864
S020,39,Vrouwelijk,Rechts,5,58,left,yes,500,leftarrow,746,false,focus,yes,1117954,Firefox,112.0,Windows,10,undefined,undefined,1536 x 864,1536 x 864
S020,39,Vrouwelijk,Rechts,5,59,left,no,450,leftarrow,710,true,focus,yes,1119444,Firefox,112.0,Windows,10,undefined,undefined,1536 x 864,1536 x 864
S020,39,Vrouwelijk,Rechts,5,60,right,no,450,rightarrow,661,true,focus,yes,1120875,Firefox,112.0,Windows,10,undefined,undefined,1536 x 864,1536 x 864
S020,39,Vrouwelijk,Rechts,5,61,right,no,450,rightarrow,632,true,focus,yes,1122286,Firefox,112.0,Windows,10,undefined,undefined,1536 x 864,1536 x 864
S020,39,Vrouwelijk,Rechts,5,62,right,yes,450,rightarrow,521,false,focus,yes,1123575,Firefox,112.0,Windows,10,undefined,undefined,1536 x 864,1536 x 864
S020,39,Vrouwelijk,Rechts,5,63,right,no,400,rightarrow,572,true,focus,yes,1124908,Firefox,112.0,Windows,10,undefined,undefined,1536 x 864,1536 x 864
S020,39,Vrouwelijk,Rechts,5,64,left,no,400,leftarrow,628,true,focus,yes,1126298,Firefox,112.0,Windows,10,undefined,undefined,1536 x 864,1536 x 864
S020,39,Vrouwelijk,Rechts,5,65,right,no,400,rightarrow,635,true,focus,yes,1127707,Firefox,112.0,Windows,10,undefined,undefined,1536 x 864,1536 x 864
S020,39,Vrouwelijk,Rechts,5,66,left,yes,400,undefined,null,true,focus,yes,1129732,Firefox,112.0,Windows,10,undefined,undefined,1536 x 864,1536 x 864
S020,39,Vrouwelijk,Rechts,5,67,right,no,450,rightarrow,505,true,focus,yes,1131026,Firefox,112.0,Windows,10,undefined,undefined,1536 x 864,1536 x 864
S020,39,Vrouwelijk,Rechts,5,68,left,no,450,leftarrow,990,true,focus,yes,1132792,Firefox,112.0,Windows,10,undefined,undefined,1536 x 864,1536 x 864
S020,39,Vrouwelijk,Rechts,5,69,right,yes,450,rightarrow,464,false,focus,yes,1134018,Firefox,112.0,Windows,10,undefined,undefined,1536 x 864,1536 x 864
S020,39,Vrouwelijk,Rechts,5,70,left,no,400,leftarrow,604,true,focus,yes,1135402,Firefox,112.0,Windows,10,undefined,undefined,1536 x 864,1536 x 864
S020,39,Vrouwelijk,Rechts,5,71,right,no,400,rightarrow,890,true,focus,yes,1137061,Firefox,112.0,Windows,10,undefined,undefined,1536 x 864,1536 x 864
S020,39,Vrouwelijk,Rechts,5,72,left,no,400,leftarrow,631,true,focus,yes,1138482,Firefox,112.0,Windows,10,undefined,undefined,1536 x 864,1536 x 864
S020,39,Vrouwelijk,Rechts,5,73,left,yes,400,leftarrow,498,false,focus,yes,1139748,Firefox,112.0,Windows,10,undefined,undefined,1536 x 864,1536 x 864
S020,39,Vrouwelijk,Rechts,5,74,left,no,350,leftarrow,564,true,focus,yes,1141091,Firefox,112.0,Windows,10,undefined,undefined,1536 x 864,1536 x 864
S020,39,Vrouwelijk,Rechts,5,75,left,no,350,leftarrow,471,true,focus,yes,1142322,Firefox,112.0,Windows,10,undefined,undefined,1536 x 864,1536 x 864
S020,39,Vrouwelijk,Rechts,5,76,left,no,350,leftarrow,541,true,focus,yes,1143642,Firefox,112.0,Windows,10,undefined,undefined,1536 x 864,1536 x 864
S020,39,Vrouwelijk,Rechts,5,77,right,no,350,rightarrow,581,true,focus,yes,1144994,Firefox,112.0,Windows,10,undefined,undefined,1536 x 864,1536 x 864
S020,39,Vrouwelijk,Rechts,5,78,right,no,350,rightarrow,641,true,focus,yes,1146413,Firefox,112.0,Windows,10,undefined,undefined,1536 x 864,1536 x 864
S020,39,Vrouwelijk,Rechts,5,79,right,no,350,rightarrow,699,true,focus,yes,1147877,Firefox,112.0,Windows,10,undefined,undefined,1536 x 864,1536 x 864
S020,39,Vrouwelijk,Rechts,5,80,right,yes,350,undefined,null,true,focus,yes,1149914,Firefox,112.0,Windows,10,undefined,undefined,1536 x 864,1536 x 864
S020,39,Vrouwelijk,Rechts,5,81,right,no,400,rightarrow,582,true,focus,yes,1151286,Firefox,112.0,Windows,10,undefined,undefined,1536 x 864,1536 x 864
S020,39,Vrouwelijk,Rechts,5,82,right,no,400,rightarrow,787,true,focus,yes,1152856,Firefox,112.0,Windows,10,undefined,undefined,1536 x 864,1536 x 864
S020,39,Vrouwelijk,Rechts,5,83,right,yes,400,rightarrow,637,false,focus,yes,1154279,Firefox,112.0,Windows,10,undefined,undefined,1536 x 864,1536 x 864
S020,39,Vrouwelijk,Rechts,5,84,left,no,350,leftarrow,678,true,focus,yes,1155733,Firefox,112.0,Windows,10,undefined,undefined,1536 x 864,1536 x 864
S020,39,Vrouwelijk,Rechts,5,85,right,no,350,rightarrow,873,true,focus,yes,1157384,Firefox,112.0,Windows,10,undefined,undefined,1536 x 864,1536 x 864
S020,39,Vrouwelijk,Rechts,5,86,left,no,350,leftarrow,826,true,focus,yes,1158979,Firefox,112.0,Windows,10,undefined,undefined,1536 x 864,1536 x 864
S020,39,Vrouwelijk,Rechts,5,87,left,yes,350,leftarrow,505,false,focus,yes,1160248,Firefox,112.0,Windows,10,undefined,undefined,1536 x 864,1536 x 864
S020,39,Vrouwelijk,Rechts,5,88,left,no,300,leftarrow,784,true,focus,yes,1161818,Firefox,112.0,Windows,10,undefined,undefined,1536 x 864,1536 x 864
S020,39,Vrouwelijk,Rechts,5,89,right,no,300,rightarrow,623,true,focus,yes,1163221,Firefox,112.0,Windows,10,undefined,undefined,1536 x 864,1536 x 864
S020,39,Vrouwelijk,Rechts,5,90,right,no,300,rightarrow,803,true,focus,yes,1164807,Firefox,112.0,Windows,10,undefined,undefined,1536 x 864,1536 x 864
S020,39,Vrouwelijk,Rechts,5,91,right,no,300,rightarrow,796,true,focus,yes,1166372,Firefox,112.0,Windows,10,undefined,undefined,1536 x 864,1536 x 864
S020,39,Vrouwelijk,Rechts,5,92,left,no,300,leftarrow,1121,true,focus,yes,1168275,Firefox,112.0,Windows,10,undefined,undefined,1536 x 864,1536 x 864
S020,39,Vrouwelijk,Rechts,5,93,left,no,300,leftarrow,704,true,focus,yes,1169764,Firefox,112.0,Windows,10,undefined,undefined,1536 x 864,1536 x 864
S020,39,Vrouwelijk,Rechts,5,94,right,yes,300,undefined,null,true,focus,yes,1171802,Firefox,112.0,Windows,10,undefined,undefined,1536 x 864,1536 x 864
S020,39,Vrouwelijk,Rechts,5,95,left,yes,350,leftarrow,498,false,focus,yes,1173083,Firefox,112.0,Windows,10,undefined,undefined,1536 x 864,1536 x 864
S020,39,Vrouwelijk,Rechts,5,96,left,no,300,leftarrow,523,true,focus,yes,1174378,Firefox,112.0,Windows,10,undefined,undefined,1536 x 864,1536 x 864
S020,39,Vrouwelijk,Rechts,5,97,right,no,300,rightarrow,846,true,focus,yes,1175997,Firefox,112.0,Windows,10,undefined,undefined,1536 x 864,1536 x 864
S020,39,Vrouwelijk,Rechts,5,98,left,no,300,undefined,null,false,focus,yes,1178016,Firefox,112.0,Windows,10,undefined,undefined,1536 x 864,1536 x 864
S020,39,Vrouwelijk,Rechts,5,99,right,yes,300,rightarrow,645,false,focus,yes,1179448,Firefox,112.0,Windows,10,undefined,undefined,1536 x 864,1536 x 864
S020,39,Vrouwelijk,Rechts,5,100,left,no,250,undefined,null,false,focus,yes,1181468,Firefox,112.0,Windows,10,undefined,undefined,1536 x 864,1536 x 864
S020,39,Vrouwelijk,Rechts,5,101,right,no,250,rightarrow,541,true,focus,yes,1182779,Firefox,112.0,Windows,10,undefined,undefined,1536 x 864,1536 x 864
S020,39,Vrouwelijk,Rechts,5,102,left,no,250,leftarrow,516,true,focus,yes,1184079,Firefox,112.0,Windows,10,undefined,undefined,1536 x 864,1536 x 864
S020,39,Vrouwelijk,Rechts,5,103,left,yes,250,leftarrow,527,false,focus,yes,1185375,Firefox,112.0,Windows,10,undefined,undefined,1536 x 864,1536 x 864
S020,39,Vrouwelijk,Rechts,5,104,right,no,200,rightarrow,588,true,focus,yes,1186749,Firefox,112.0,Windows,10,undefined,undefined,1536 x 864,1536 x 864
S020,39,Vrouwelijk,Rechts,5,105,left,no,200,leftarrow,539,true,focus,yes,1188075,Firefox,112.0,Windows,10,undefined,undefined,1536 x 864,1536 x 864
S020,39,Vrouwelijk,Rechts,5,106,right,no,200,rightarrow,450,true,focus,yes,1189299,Firefox,112.0,Windows,10,undefined,undefined,1536 x 864,1536 x 864
S020,39,Vrouwelijk,Rechts,5,107,right,no,200,rightarrow,578,true,focus,yes,1190651,Firefox,112.0,Windows,10,undefined,undefined,1536 x 864,1536 x 864
S020,39,Vrouwelijk,Rechts,5,108,right,no,200,rightarrow,600,true,focus,yes,1192029,Firefox,112.0,Windows,10,undefined,undefined,1536 x 864,1536 x 864
S020,39,Vrouwelijk,Rechts,5,109,left,no,200,leftarrow,640,true,focus,yes,1193442,Firefox,112.0,Windows,10,undefined,undefined,1536 x 864,1536 x 864
S020,39,Vrouwelijk,Rechts,5,110,left,yes,200,leftarrow,469,false,focus,yes,1194684,Firefox,112.0,Windows,10,undefined,undefined,1536 x 864,1536 x 864
S020,39,Vrouwelijk,Rechts,5,111,left,no,150,leftarrow,763,true,focus,yes,1196233,Firefox,112.0,Windows,10,undefined,undefined,1536 x 864,1536 x 864
S020,39,Vrouwelijk,Rechts,5,112,right,yes,150,undefined,null,true,focus,yes,1198268,Firefox,112.0,Windows,10,undefined,undefined,1536 x 864,1536 x 864
S020,39,Vrouwelijk,Rechts,5,113,right,no,200,rightarrow,660,true,focus,yes,1199716,Firefox,112.0,Windows,10,undefined,undefined,1536 x 864,1536 x 864
S020,39,Vrouwelijk,Rechts,5,114,right,yes,200,rightarrow,444,false,focus,yes,1200929,Firefox,112.0,Windows,10,undefined,undefined,1536 x 864,1536 x 864
S020,39,Vrouwelijk,Rechts,5,115,left,yes,150,undefined,null,true,focus,yes,1202951,Firefox,112.0,Windows,10,undefined,undefined,1536 x 864,1536 x 864
S020,39,Vrouwelijk,Rechts,5,116,right,no,200,rightarrow,604,true,focus,yes,1204340,Firefox,112.0,Windows,10,undefined,undefined,1536 x 864,1536 x 864
S020,39,Vrouwelijk,Rechts,5,117,left,no,200,leftarrow,734,true,focus,yes,1205841,Firefox,112.0,Windows,10,undefined,undefined,1536 x 864,1536 x 864
S020,39,Vrouwelijk,Rechts,5,118,right,no,200,rightarrow,711,true,focus,yes,1207322,Firefox,112.0,Windows,10,undefined,undefined,1536 x 864,1536 x 864
S020,39,Vrouwelijk,Rechts,5,119,left,no,200,leftarrow,845,true,focus,yes,1208949,Firefox,112.0,Windows,10,undefined,undefined,1536 x 864,1536 x 864
S020,39,Vrouwelijk,Rechts,5,120,left,no,200,leftarrow,736,true,focus,yes,1210462,Firefox,112.0,Windows,10,undefined,undefined,1536 x 864,1536 x 864
S020,39,Vrouwelijk,Rechts,5,121,right,yes,200,undefined,null,true,focus,yes,1212483,Firefox,112.0,Windows,10,undefined,undefined,1536 x 864,1536 x 864
S020,39,Vrouwelijk,Rechts,5,122,left,no,250,leftarrow,700,true,focus,yes,1213957,Firefox,112.0,Windows,10,undefined,undefined,1536 x 864,1536 x 864
S020,39,Vrouwelijk,Rechts,5,123,left,yes,250,undefined,null,true,focus,yes,1215982,Firefox,112.0,Windows,10,undefined,undefined,1536 x 864,1536 x 864
S020,39,Vrouwelijk,Rechts,5,124,left,no,300,leftarrow,446,true,focus,yes,1217216,Firefox,112.0,Windows,10,undefined,undefined,1536 x 864,1536 x 864
S020,39,Vrouwelijk,Rechts,5,125,right,no,300,rightarrow,722,true,focus,yes,1218727,Firefox,112.0,Windows,10,undefined,undefined,1536 x 864,1536 x 864
S020,39,Vrouwelijk,Rechts,5,126,right,no,300,rightarrow,604,true,focus,yes,1220107,Firefox,112.0,Windows,10,undefined,undefined,1536 x 864,1536 x 864
S020,39,Vrouwelijk,Rechts,5,127,right,no,300,rightarrow,809,true,focus,yes,1221696,Firefox,112.0,Windows,10,undefined,undefined,1536 x 864,1536 x 864
S020,39,Vrouwelijk,Rechts,5,128,left,no,300,leftarrow,547,true,focus,yes,1223010,Firefox,112.0,Windows,10,undefined,undefined,1536 x 864,1536 x 864
S020,39,Vrouwelijk,Rechts,6,1,right,yes,300,rightarrow,610,false,focus,yes,1256779,Firefox,112.0,Windows,10,undefined,undefined,1536 x 864,1536 x 864
S020,39,Vrouwelijk,Rechts,6,2,left,yes,250,leftarrow,454,false,focus,yes,1258011,Firefox,112.0,Windows,10,undefined,undefined,1536 x 864,1536 x 864
S020,39,Vrouwelijk,Rechts,6,3,right,no,200,rightarrow,573,true,focus,yes,1259362,Firefox,112.0,Windows,10,undefined,undefined,1536 x 864,1536 x 864
S020,39,Vrouwelijk,Rechts,6,4,right,no,200,rightarrow,546,true,focus,yes,1260685,Firefox,112.0,Windows,10,undefined,undefined,1536 x 864,1536 x 864
S020,39,Vrouwelijk,Rechts,6,5,left,no,200,leftarrow,543,true,focus,yes,1261998,Firefox,112.0,Windows,10,undefined,undefined,1536 x 864,1536 x 864
S020,39,Vrouwelijk,Rechts,6,6,left,no,200,leftarrow,446,true,focus,yes,1263234,Firefox,112.0,Windows,10,undefined,undefined,1536 x 864,1536 x 864
S020,39,Vrouwelijk,Rechts,6,7,right,no,200,rightarrow,750,true,focus,yes,1264761,Firefox,112.0,Windows,10,undefined,undefined,1536 x 864,1536 x 864
S020,39,Vrouwelijk,Rechts,6,8,left,no,200,leftarrow,551,true,focus,yes,1266073,Firefox,112.0,Windows,10,undefined,undefined,1536 x 864,1536 x 864
S020,39,Vrouwelijk,Rechts,6,9,left,no,200,leftarrow,475,true,focus,yes,1267314,Firefox,112.0,Windows,10,undefined,undefined,1536 x 864,1536 x 864
S020,39,Vrouwelijk,Rechts,6,10,left,no,200,leftarrow,403,true,focus,yes,1268493,Firefox,112.0,Windows,10,undefined,undefined,1536 x 864,1536 x 864
S020,39,Vrouwelijk,Rechts,6,11,left,yes,200,undefined,null,true,focus,yes,1270536,Firefox,112.0,Windows,10,undefined,undefined,1536 x 864,1536 x 864
S020,39,Vrouwelijk,Rechts,6,12,right,yes,250,rightarrow,506,false,focus,yes,1271828,Firefox,112.0,Windows,10,undefined,undefined,1536 x 864,1536 x 864
S020,39,Vrouwelijk,Rechts,6,13,right,no,200,rightarrow,1003,true,focus,yes,1273607,Firefox,112.0,Windows,10,undefined,undefined,1536 x 864,1536 x 864
S020,39,Vrouwelijk,Rechts,6,14,right,no,200,rightarrow,568,true,focus,yes,1274941,Firefox,112.0,Windows,10,undefined,undefined,1536 x 864,1536 x 864
S020,39,Vrouwelijk,Rechts,6,15,right,no,200,rightarrow,655,true,focus,yes,1276360,Firefox,112.0,Windows,10,undefined,undefined,1536 x 864,1536 x 864
S020,39,Vrouwelijk,Rechts,6,16,left,no,200,leftarrow,708,true,focus,yes,1277855,Firefox,112.0,Windows,10,undefined,undefined,1536 x 864,1536 x 864
S020,39,Vrouwelijk,Rechts,6,17,right,no,200,rightarrow,790,true,focus,yes,1279427,Firefox,112.0,Windows,10,undefined,undefined,1536 x 864,1536 x 864
S020,39,Vrouwelijk,Rechts,6,18,left,no,200,leftarrow,1074,true,focus,yes,1281281,Firefox,112.0,Windows,10,undefined,undefined,1536 x 864,1536 x 864
S020,39,Vrouwelijk,Rechts,6,19,left,yes,200,undefined,null,true,focus,yes,1283310,Firefox,112.0,Windows,10,undefined,undefined,1536 x 864,1536 x 864
S020,39,Vrouwelijk,Rechts,6,20,left,no,250,leftarrow,952,true,focus,yes,1285040,Firefox,112.0,Windows,10,undefined,undefined,1536 x 864,1536 x 864
S020,39,Vrouwelijk,Rechts,6,21,right,yes,250,undefined,null,true,focus,yes,1287061,Firefox,112.0,Windows,10,undefined,undefined,1536 x 864,1536 x 864
S020,39,Vrouwelijk,Rechts,6,22,left,no,300,leftarrow,858,true,focus,yes,1288694,Firefox,112.0,Windows,10,undefined,undefined,1536 x 864,1536 x 864
S020,39,Vrouwelijk,Rechts,6,23,right,no,300,rightarrow,1121,true,focus,yes,1290593,Firefox,112.0,Windows,10,undefined,undefined,1536 x 864,1536 x 864
S020,39,Vrouwelijk,Rechts,6,24,right,no,300,rightarrow,933,true,focus,yes,1292294,Firefox,112.0,Windows,10,undefined,undefined,1536 x 864,1536 x 864
S020,39,Vrouwelijk,Rechts,6,25,left,yes,300,undefined,null,true,focus,yes,1294328,Firefox,112.0,Windows,10,undefined,undefined,1536 x 864,1536 x 864
S020,39,Vrouwelijk,Rechts,6,26,right,no,350,undefined,null,false,focus,yes,1296348,Firefox,112.0,Windows,10,undefined,undefined,1536 x 864,1536 x 864
S020,39,Vrouwelijk,Rechts,6,27,right,no,350,rightarrow,598,true,focus,yes,1297712,Firefox,112.0,Windows,10,undefined,undefined,1536 x 864,1536 x 864
