participantID,age,gender,handedness,block_i,trial_i,stim,signal,SSD,response,rt,correct,focus,Fullscreen,time_elapsed,browser_name,browser_version,os_name,os_version,tablet,mobile,screen_resolution,window_resolution
S012,51,Mannelijk,Links,0,1,left,no,200,leftarrow,742,true,focus,yes,9771181,Chrome,109.0,Windows,10,undefined,undefined,1536 x 864,1536 x 864
S012,51,Mannelijk,Links,0,2,right,yes,200,rightarrow,624,false,focus,yes,9773347,Chrome,109.0,Windows,10,undefined,undefined,1536 x 864,1536 x 864
S012,51,Mannelijk,Links,0,3,right,no,150,leftarrow,300,false,focus,yes,9775204,Chrome,109.0,Windows,10,undefined,undefined,1536 x 864,1536 x 864
S012,51,Mannelijk,Links,0,4,right,no,150,rightarrow,479,true,focus,yes,9777233,Chrome,109.0,Windows,10,undefined,undefined,1536 x 864,1536 x 864
S012,51,Mannelijk,Links,0,5,left,no,150,leftarrow,465,true,focus,yes,9779237,Chrome,109.0,Windows,10,undefined,undefined,1536 x 864,1536 x 864
S012,51,Mannelijk,Links,0,6,left,no,150,leftarrow,426,true,focus,yes,9781207,Chrome,109.0,Windows,10,undefined,undefined,1536 x 864,1536 x 864
S012,51,Mannelijk,Links,0,7,right,no,150,rightarrow,449,true,focus,yes,9783199,Chrome,109.0,Windows,10,undefined,undefined,1536 x 864,1536 x 864
S012,51,Mannelijk,Links,0,8,left,yes,150,leftarrow,429,false,focus,yes,9785171,Chrome,109.0,Windows,10,undefined,undefined,1536 x 864,1536 x 864
S012,51,Mannelijk,Links,1,1,left,no,100,leftarrow,622,true,focus,yes,9806602,Chrome,109.0,Windows,10,undefined,undefined,1536 x 864,1536 x 864
S012,51,Mannelijk,Links,1,2,right,no,100,rightarrow,631,true,focus,yes,9808025,Chrome,109.0,Windows,10,undefined,undefined,1536 x 864,1536 x 864
S012,51,Mannelijk,Links,1,3,right,no,100,rightarrow,570,true,focus,yes,9809369,Chrome,109.0,Windows,10,undefined,undefined,1536 x 864,1536 x 864
S012,51,Mannelijk,Links,1,4,left,no,100,leftarrow,448,true,focus,yes,9810577,Chrome,109.0,Windows,10,undefined,undefined,1536 x 864,1536 x 864
S012,51,Mannelijk,Links,1,5,right,no,100,rightarrow,711,true,focus,yes,9812050,Chrome,109.0,Windows,10,undefined,undefined,1536 x 864,1536 x 864
S012,51,Mannelijk,Links,1,6,left,no,100,leftarrow,369,true,focus,yes,9813216,Chrome,109.0,Windows,10,undefined,undefined,1536 x 864,1536 x 864
S012,51,Mannelijk,Links,1,7,left,yes,100,rightarrow,290,false,focus,yes,9814272,Chrome,109.0,Windows,10,undefined,undefined,1536 x 864,1536 x 864
S012,51,Mannelijk,Links,1,8,right,yes,50,rightarrow,389,false,focus,yes,9815442,Chrome,109.0,Windows,10,undefined,undefined,1536 x 864,1536 x 864
S012,51,Mannelijk,Links,1,9,left,yes,50,leftarrow,299,false,focus,yes,9816520,Chrome,109.0,Windows,10,undefined,undefined,1536 x 864,1536 x 864
S012,51,Mannelijk,Links,1,10,left,no,50,leftarrow,428,true,focus,yes,9817715,Chrome,109.0,Windows,10,undefined,undefined,1536 x 864,1536 x 864
S012,51,Mannelijk,Links,1,11,left,no,50,rightarrow,328,false,focus,yes,9818832,Chrome,109.0,Windows,10,undefined,undefined,1536 x 864,1536 x 864
S012,51,Mannelijk,Links,1,12,right,no,50,rightarrow,398,true,focus,yes,9820010,Chrome,109.0,Windows,10,undefined,undefined,1536 x 864,1536 x 864
S012,51,Mannelijk,Links,1,13,right,no,50,rightarrow,456,true,focus,yes,9821238,Chrome,109.0,Windows,10,undefined,undefined,1536 x 864,1536 x 864
S012,51,Mannelijk,Links,1,14,left,no,50,leftarrow,370,true,focus,yes,9822401,Chrome,109.0,Windows,10,undefined,undefined,1536 x 864,1536 x 864
S012,51,Mannelijk,Links,1,15,right,yes,50,rightarrow,284,false,focus,yes,9823478,Chrome,109.0,Windows,10,undefined,undefined,1536 x 864,1536 x 864
S012,51,Mannelijk,Links,1,16,right,no,50,leftarrow,326,false,focus,yes,9824586,Chrome,109.0,Windows,10,undefined,undefined,1536 x 864,1536 x 864
S012,51,Mannelijk,Links,1,17,right,no,50,rightarrow,471,true,focus,yes,9825854,Chrome,109.0,Windows,10,undefined,undefined,1536 x 864,1536 x 864
S012,51,Mannelijk,Links,1,18,right,no,50,rightarrow,400,true,focus,yes,9827040,Chrome,109.0,Windows,10,undefined,undefined,1536 x 864,1536 x 864
S012,51,Mannelijk,Links,1,19,left,no,50,leftarrow,432,true,focus,yes,9828268,Chrome,109.0,Windows,10,undefined,undefined,1536 x 864,1536 x 864
S012,51,Mannelijk,Links,1,20,left,no,50,leftarrow,443,true,focus,yes,9829477,Chrome,109.0,Windows,10,undefined,undefined,1536 x 864,1536 x 864
S012,51,Mannelijk,Links,1,21,left,yes,50,leftarrow,425,false,focus,yes,9830682,Chrome,109.0,Windows,10,undefined,undefined,1536 x 864,1536 x 864
S012,51,Mannelijk,Links,1,22,right,yes,50,rightarrow,444,false,focus,yes,9831900,Chrome,109.0,Windows,10,undefined,undefined,1536 x 864,1536 x 864
S012,51,Mannelijk,Links,1,23,left,no,50,leftarrow,341,true,focus,yes,9833036,Chrome,109.0,Windows,10,undefined,undefined,1536 x 864,1536 x 864
S012,51,Mannelijk,Links,1,24,right,no,50,leftarrow,344,false,focus,yes,9834160,Chrome,109.0,Windows,10,undefined,undefined,1536 x 864,1536 x 864
S012,51,Mannelijk,Links,1,25,left,no,50,leftarrow,396,true,focus,yes,9835338,Chrome,109.0,Windows,10,undefined,undefined,1536 x 864,1536 x 864
S012,51,Mannelijk,Links,1,26,left,no,50,leftarrow,348,true,focus,yes,9836486,Chrome,109.0,Windows,10,undefined,undefined,1536 x 864,1536 x 864
S012,51,Mannelijk,Links,1,27,right,no,50,leftarrow,354,false,focus,yes,9837620,Chrome,109.0,Windows,10,undefined,undefined,1536 x 864,1536 x 864
S012,51,Mannelijk,Links,1,28,right,yes,50,rightarrow,447,false,focus,yes,9838836,Chrome,109.0,Windows,10,undefined,undefined,1536 x 864,1536 x 864
S012,51,Mannelijk,Links,1,29,right,no,50,leftarrow,334,false,focus,yes,9839947,Chrome,109.0,Windows,10,undefined,undefined,1536 x 864,1536 x 864
S012,51,Mannelijk,Links,1,30,right,no,50,rightarrow,444,true,focus,yes,9841173,Chrome,109.0,Windows,10,undefined,undefined,1536 x 864,1536 x 864
S012,51,Mannelijk,Links,1,31,left,no,50,leftarrow,435,true,focus,yes,9842391,Chrome,109.0,Windows,10,undefined,undefined,1536 x 864,1536 x 864
S012,51,Mannelijk,Links,1,32,left,yes,50,leftarrow,467,false,focus,yes,9843640,Chrome,109.0,Windows,10,undefined,undefined,1536 x 864,1536 x 864
S012,51,Mannelijk,Links,1,33,left,yes,50,leftarrow,407,false,focus,yes,9844817,Chrome,109.0,Windows,10,undefined,undefined,1536 x 864,1536 x 864
S012,51,Mannelijk,Links,1,34,left,no,50,rightarrow,320,false,focus,yes,9845933,Chrome,109.0,Windows,10,undefined,undefined,1536 x 864,1536 x 864
S012,51,Mannelijk,Links,1,35,right,no,50,rightarrow,432,true,focus,yes,9847141,Chrome,109.0,Windows,10,undefined,undefined,1536 x 864,1536 x 864
S012,51,Mannelijk,Links,1,36,left,no,50,leftarrow,383,true,focus,yes,9848323,Chrome,109.0,Windows,10,undefined,undefined,1536 x 864,1536 x 864
S012,51,Mannelijk,Links,1,37,right,no,50,rightarrow,390,true,focus,yes,9849496,Chrome,109.0,Windows,10,undefined,undefined,1536 x 864,1536 x 864
S012,51,Mannelijk,Links,1,38,right,no,50,leftarrow,370,false,focus,yes,9850661,Chrome,109.0,Windows,10,undefined,undefined,1536 x 864,1536 x 864
S012,51,Mannelijk,Links,1,39,right,yes,50,rightarrow,459,false,focus,yes,9851896,Chrome,109.0,Windows,10,undefined,undefined,1536 x 864,1536 x 864
S012,51,Mannelijk,Links,1,40,left,no,50,leftarrow,516,true,focus,yes,9853179,Chrome,109.0,Windows,10,undefined,undefined,1536 x 864,1536 x 864
S012,51,Mannelijk,Links,1,41,left,no,50,leftarrow,423,true,focus,yes,9854382,Chrome,109.0,Windows,10,undefined,undefined,1536 x 864,1536 x 864
S012,51,Mannelijk,Links,1,42,right,no,50,rightarrow,379,true,focus,yes,9855540,Chrome,109.0,Windows,10,undefined,undefined,1536 x 864,1536 x 864
S012,51,Mannelijk,Links,1,43,right,no,50,rightarrow,484,true,focus,yes,9856805,Chrome,109.0,Windows,10,undefined,undefined,1536 x 864,1536 x 864
S012,51,Mannelijk,Links,1,44,left,no,50,leftarrow,386,true,focus,yes,9857958,Chrome,109.0,Windows,10,undefined,undefined,1536 x 864,1536 x 864
S012,51,Mannelijk,Links,1,45,right,no,50,rightarrow,428,true,focus,yes,9859169,Chrome,109.0,Windows,10,undefined,undefined,1536 x 864,1536 x 864
S012,51,Mannelijk,Links,1,46,left,yes,50,leftarrow,476,false,focus,yes,9860433,Chrome,109.0,Windows,10,undefined,undefined,1536 x 864,1536 x 864
S012,51,Mannelijk,Links,1,47,left,no,50,leftarrow,467,true,focus,yes,9861701,Chrome,109.0,Windows,10,undefined,undefined,1536 x 864,1536 x 864
S012,51,Mannelijk,Links,1,48,right,yes,50,rightarrow,459,false,focus,yes,9862932,Chrome,109.0,Windows,10,undefined,undefined,1536 x 864,1536 x 864
S012,51,Mannelijk,Links,1,49,right,no,50,rightarrow,427,true,focus,yes,9864151,Chrome,109.0,Windows,10,undefined,undefined,1536 x 864,1536 x 864
S012,51,Mannelijk,Links,1,50,right,no,50,rightarrow,379,true,focus,yes,9865298,Chrome,109.0,Windows,10,undefined,undefined,1536 x 864,1536 x 864
S012,51,Mannelijk,Links,1,51,left,yes,50,leftarrow,452,false,focus,yes,9866531,Chrome,109.0,Windows,10,undefined,undefined,1536 x 864,1536 x 864
S012,51,Mannelijk,Links,1,52,left,no,50,leftarrow,451,true,focus,yes,9867780,Chrome,109.0,Windows,10,undefined,undefined,1536 x 864,1536 x 864
S012,51,Mannelijk,Links,1,53,left,no,50,rightarrow,383,false,focus,yes,9868954,Chrome,109.0,Windows,10,undefined,undefined,1536 x 864,1536 x 864
S012,51,Mannelijk,Links,1,54,left,no,50,leftarrow,484,true,focus,yes,9870211,Chrome,109.0,Windows,10,undefined,undefined,1536 x 864,1536 x 864
S012,51,Mannelijk,Links,1,55,right,no,50,rightarrow,396,true,focus,yes,9871399,Chrome,109.0,Windows,10,undefined,undefined,1536 x 864,1536 x 864
S012,51,Mannelijk,Links,1,56,right,yes,50,rightarrow,554,false,focus,yes,9872720,Chrome,109.0,Windows,10,undefined,undefined,1536 x 864,1536 x 864
S012,51,Mannelijk,Links,1,57,right,no,50,rightarrow,494,true,focus,yes,9873984,Chrome,109.0,Windows,10,undefined,undefined,1536 x 864,1536 x 864
S012,51,Mannelijk,Links,1,58,left,no,50,leftarrow,374,true,focus,yes,9875144,Chrome,109.0,Windows,10,undefined,undefined,1536 x 864,1536 x 864
S012,51,Mannelijk,Links,1,59,right,no,50,rightarrow,456,true,focus,yes,9876380,Chrome,109.0,Windows,10,undefined,undefined,1536 x 864,1536 x 864
S012,51,Mannelijk,Links,1,60,right,yes,50,rightarrow,401,false,focus,yes,9877548,Chrome,109.0,Windows,10,undefined,undefined,1536 x 864,1536 x 864
S012,51,Mannelijk,Links,1,61,left,yes,50,leftarrow,374,false,focus,yes,9878699,Chrome,109.0,Windows,10,undefined,undefined,1536 x 864,1536 x 864
S012,51,Mannelijk,Links,1,62,left,no,50,leftarrow,582,true,focus,yes,9880078,Chrome,109.0,Windows,10,undefined,undefined,1536 x 864,1536 x 864
S012,51,Mannelijk,Links,1,63,left,no,50,leftarrow,373,true,focus,yes,9881227,Chrome,109.0,Windows,10,undefined,undefined,1536 x 864,1536 x 864
S012,51,Mannelijk,Links,1,64,right,no,50,leftarrow,373,false,focus,yes,9882391,Chrome,109.0,Windows,10,undefined,undefined,1536 x 864,1536 x 864
S012,51,Mannelijk,Links,1,65,left,yes,50,leftarrow,444,false,focus,yes,9883610,Chrome,109.0,Windows,10,undefined,undefined,1536 x 864,1536 x 864
S012,51,Mannelijk,Links,1,66,left,no,50,leftarrow,424,true,focus,yes,9884828,Chrome,109.0,Windows,10,undefined,undefined,1536 x 864,1536 x 864
S012,51,Mannelijk,Links,1,67,right,no,50,leftarrow,424,false,focus,yes,9886028,Chrome,109.0,Windows,10,undefined,undefined,1536 x 864,1536 x 864
S012,51,Mannelijk,Links,1,68,right,no,50,rightarrow,447,true,focus,yes,9887263,Chrome,109.0,Windows,10,undefined,undefined,1536 x 864,1536 x 864
S012,51,Mannelijk,Links,1,69,left,no,50,leftarrow,410,true,focus,yes,9888443,Chrome,109.0,Windows,10,undefined,undefined,1536 x 864,1536 x 864
S012,51,Mannelijk,Links,1,70,right,yes,50,rightarrow,392,false,focus,yes,9889608,Chrome,109.0,Windows,10,undefined,undefined,1536 x 864,1536 x 864
S012,51,Mannelijk,Links,1,71,right,no,50,rightarrow,415,true,focus,yes,9890805,Chrome,109.0,Windows,10,undefined,undefined,1536 x 864,1536 x 864
S012,51,Mannelijk,Links,1,72,left,no,50,leftarrow,403,true,focus,yes,9891979,Chrome,109.0,Windows,10,undefined,undefined,1536 x 864,1536 x 864
S012,51,Mannelijk,Links,1,73,right,no,50,rightarrow,400,true,focus,yes,9893151,Chrome,109.0,Windows,10,undefined,undefined,1536 x 864,1536 x 864
S012,51,Mannelijk,Links,1,74,right,no,50,rightarrow,395,true,focus,yes,9894329,Chrome,109.0,Windows,10,undefined,undefined,1536 x 864,1536 x 864
S012,51,Mannelijk,Links,1,75,left,no,50,leftarrow,358,true,focus,yes,9895456,Chrome,109.0,Windows,10,undefined,undefined,1536 x 864,1536 x 864
S012,51,Mannelijk,Links,1,76,right,no,50,rightarrow,414,true,focus,yes,9896651,Chrome,109.0,Windows,10,undefined,undefined,1536 x 864,1536 x 864
S012,51,Mannelijk,Links,1,77,left,yes,50,leftarrow,371,false,focus,yes,9897807,Chrome,109.0,Windows,10,undefined,undefined,1536 x 864,1536 x 864
S012,51,Mannelijk,Links,1,78,left,no,50,leftarrow,392,true,focus,yes,9898975,Chrome,109.0,Windows,10,undefined,undefined,1536 x 864,1536 x 864
S012,51,Mannelijk,Links,1,79,right,yes,50,rightarrow,613,false,focus,yes,9900367,Chrome,109.0,Windows,10,undefined,undefined,1536 x 864,1536 x 864
S012,51,Mannelijk,Links,1,80,left,no,50,leftarrow,374,true,focus,yes,9901529,Chrome,109.0,Windows,10,undefined,undefined,1536 x 864,1536 x 864
S012,51,Mannelijk,Links,1,81,right,yes,50,rightarrow,399,false,focus,yes,9902718,Chrome,109.0,Windows,10,undefined,undefined,1536 x 864,1536 x 864
S012,51,Mannelijk,Links,1,82,left,no,50,leftarrow,354,true,focus,yes,9903851,Chrome,109.0,Windows,10,undefined,undefined,1536 x 864,1536 x 864
S012,51,Mannelijk,Links,1,83,left,yes,50,leftarrow,360,false,focus,yes,9905007,Chrome,109.0,Windows,10,undefined,undefined,1536 x 864,1536 x 864
S012,51,Mannelijk,Links,1,84,left,no,50,leftarrow,400,true,focus,yes,9906172,Chrome,109.0,Windows,10,undefined,undefined,1536 x 864,1536 x 864
S012,51,Mannelijk,Links,1,85,right,no,50,rightarrow,463,true,focus,yes,9907407,Chrome,109.0,Windows,10,undefined,undefined,1536 x 864,1536 x 864
S012,51,Mannelijk,Links,1,86,right,no,50,leftarrow,370,false,focus,yes,9908562,Chrome,109.0,Windows,10,undefined,undefined,1536 x 864,1536 x 864
S012,51,Mannelijk,Links,1,87,left,no,50,leftarrow,395,true,focus,yes,9909723,Chrome,109.0,Windows,10,undefined,undefined,1536 x 864,1536 x 864
S012,51,Mannelijk,Links,1,88,right,no,50,rightarrow,363,true,focus,yes,9910877,Chrome,109.0,Windows,10,undefined,undefined,1536 x 864,1536 x 864
S012,51,Mannelijk,Links,1,89,left,no,50,rightarrow,415,false,focus,yes,9912083,Chrome,109.0,Windows,10,undefined,undefined,1536 x 864,1536 x 864
S012,51,Mannelijk,Links,1,90,left,no,50,leftarrow,432,true,focus,yes,9913295,Chrome,109.0,Windows,10,undefined,undefined,1536 x 864,1536 x 864
S012,51,Mannelijk,Links,1,91,right,no,50,rightarrow,450,true,focus,yes,9914518,Chrome,109.0,Windows,10,undefined,undefined,1536 x 864,1536 x 864
S012,51,Mannelijk,Links,1,92,left,no,50,leftarrow,351,true,focus,yes,9915636,Chrome,109.0,Windows,10,undefined,undefined,1536 x 864,1536 x 864
S012,51,Mannelijk,Links,1,93,left,yes,50,leftarrow,447,false,focus,yes,9916853,Chrome,109.0,Windows,10,undefined,undefined,1536 x 864,1536 x 864
S012,51,Mannelijk,Links,1,94,right,no,50,rightarrow,419,true,focus,yes,9918048,Chrome,109.0,Windows,10,undefined,undefined,1536 x 864,1536 x 864
S012,51,Mannelijk,Links,1,95,right,yes,50,undefined,null,true,focus,yes,9920099,Chrome,109.0,Windows,10,undefined,undefined,1536 x 864,1536 x 864
S012,51,Mannelijk,Links,1,96,right,no,100,rightarrow,482,true,focus,yes,9921385,Chrome,109.0,Windows,10,undefined,undefined,1536 x 864,1536 x 864
S012,51,Mannelijk,Links,1,97,right,no,100,rightarrow,405,true,focus,yes,9922570,Chrome,109.0,Windows,10,undefined,undefined,1536 x 864,1536 x 864
S012,51,Mannelijk,Links,1,98,left,yes,100,leftarrow,414,false,focus,yes,9923762,Chrome,109.0,Windows,10,undefined,undefined,1536 x 864,1536 x 864
S012,51,Mannelijk,Links,1,99,left,no,50,leftarrow,443,true,focus,yes,9924980,Chrome,109.0,Windows,10,undefined,undefined,1536 x 864,1536 x 864
S012,51,Mannelijk,Links,1,100,left,no,50,leftarrow,431,true,focus,yes,9926184,Chrome,109.0,Windows,10,undefined,undefined,1536 x 864,1536 x 864
S012,51,Mannelijk,Links,1,101,right,no,50,rightarrow,380,true,focus,yes,9927348,Chrome,109.0,Windows,10,undefined,undefined,1536 x 864,1536 x 864
S012,51,Mannelijk,Links,1,102,left,no,50,leftarrow,369,true,focus,yes,9928498,Chrome,109.0,Windows,10,undefined,undefined,1536 x 864,1536 x 864
S012,51,Mannelijk,Links,1,103,right,no,50,rightarrow,444,true,focus,yes,9929721,Chrome,109.0,Windows,10,undefined,undefined,1536 x 864,1536 x 864
S012,51,Mannelijk,Links,1,104,right,yes,50,rightarrow,439,false,focus,yes,9930941,Chrome,109.0,Windows,10,undefined,undefined,1536 x 864,1536 x 864
S012,51,Mannelijk,Links,1,105,left,no,50,leftarrow,426,true,focus,yes,9932145,Chrome,109.0,Windows,10,undefined,undefined,1536 x 864,1536 x 864
S012,51,Mannelijk,Links,1,106,left,no,50,leftarrow,361,true,focus,yes,9933276,Chrome,109.0,Windows,10,undefined,undefined,1536 x 864,1536 x 864
S012,51,Mannelijk,Links,1,107,left,no,50,leftarrow,410,true,focus,yes,9934464,Chrome,109.0,Windows,10,undefined,undefined,1536 x 864,1536 x 864
S012,51,Mannelijk,Links,1,108,right,no,50,rightarrow,454,true,focus,yes,9935716,Chrome,109.0,Windows,10,undefined,undefined,1536 x 864,1536 x 864
S012,51,Mannelijk,Links,1,109,right,no,50,rightarrow,373,true,focus,yes,9936877,Chrome,109.0,Windows,10,undefined,undefined,1536 x 864,1536 x 864
S012,51,Mannelijk,Links,1,110,left,yes,50,leftarrow,454,false,focus,yes,9938098,Chrome,109.0,Windows,10,undefined,undefined,1536 x 864,1536 x 864
S012,51,Mannelijk,Links,1,111,right,no,50,rightarrow,391,true,focus,yes,9939262,Chrome,109.0,Windows,10,undefined,undefined,1536 x 864,1536 x 864
S012,51,Mannelijk,Links,1,112,right,yes,50,rightarrow,411,false,focus,yes,9940472,Chrome,109.0,Windows,10,undefined,undefined,1536 x 864,1536 x 864
S012,51,Mannelijk,Links,1,113,right,no,50,rightarrow,382,true,focus,yes,9941647,Chrome,109.0,Windows,10,undefined,undefined,1536 x 864,1536 x 864
S012,51,Mannelijk,Links,1,114,left,no,50,leftarrow,463,true,focus,yes,9942900,Chrome,109.0,Windows,10,undefined,undefined,1536 x 864,1536 x 864
S012,51,Mannelijk,Links,1,115,left,no,50,leftarrow,367,true,focus,yes,9944063,Chrome,109.0,Windows,10,undefined,undefined,1536 x 864,1536 x 864
S012,51,Mannelijk,Links,1,116,right,no,50,rightarrow,439,true,focus,yes,9945271,Chrome,109.0,Windows,10,undefined,undefined,1536 x 864,1536 x 864
S012,51,Mannelijk,Links,1,117,right,yes,50,rightarrow,390,false,focus,yes,9946439,Chrome,109.0,Windows,10,undefined,undefined,1536 x 864,1536 x 864
S012,51,Mannelijk,Links,1,118,right,no,50,rightarrow,385,true,focus,yes,9947599,Chrome,109.0,Windows,10,undefined,undefined,1536 x 864,1536 x 864
S012,51,Mannelijk,Links,1,119,left,no,50,leftarrow,427,true,focus,yes,9948790,Chrome,109.0,Windows,10,undefined,undefined,1536 x 864,1536 x 864
S012,51,Mannelijk,Links,1,120,left,yes,50,leftarrow,421,false,focus,yes,9949998,Chrome,109.0,Windows,10,undefined,undefined,1536 x 864,1536 x 864
S012,51,Mannelijk,Links,1,121,right,no,50,rightarrow,489,true,focus,yes,9951263,Chrome,109.0,Windows,10,undefined,undefined,1536 x 864,1536 x 864
S012,51,Mannelijk,Links,1,122,left,no,50,leftarrow,395,true,focus,yes,9952434,Chrome,109.0,Windows,10,undefined,undefined,1536 x 864,1536 x 864
S012,51,Mannelijk,Links,1,123,right,yes,50,rightarrow,402,false,focus,yes,9953630,Chrome,109.0,Windows,10,undefined,undefined,1536 x 864,1536 x 864
S012,51,Mannelijk,Links,1,124,right,no,50,rightarrow,381,true,focus,yes,9954794,Chrome,109.0,Windows,10,undefined,undefined,1536 x 864,1536 x 864
S012,51,Mannelijk,Links,1,125,right,no,50,leftarrow,394,false,focus,yes,9955960,Chrome,109.0,Windows,10,undefined,undefined,1536 x 864,1536 x 864
S012,51,Mannelijk,Links,1,126,left,yes,50,leftarrow,455,false,focus,yes,9957184,Chrome,109.0,Windows,10,undefined,undefined,1536 x 864,1536 x 864
S012,51,Mannelijk,Links,1,127,left,no,50,leftarrow,592,true,focus,yes,9958561,Chrome,109.0,Windows,10,undefined,undefined,1536 x 864,1536 x 864
S012,51,Mannelijk,Links,1,128,left,no,50,leftarrow,497,true,focus,yes,9959854,Chrome,109.0,Windows,10,undefined,undefined,1536 x 864,1536 x 864
S012,51,Mannelijk,Links,2,1,left,yes,50,leftarrow,516,false,focus,no,9984227,Chrome,109.0,Windows,10,undefined,undefined,1536 x 864,1707 x 828
S012,51,Mannelijk,Links,2,2,right,no,50,rightarrow,428,true,focus,no,9985439,Chrome,109.0,Windows,10,undefined,undefined,1536 x 864,1707 x 828
S012,51,Mannelijk,Links,2,3,left,no,50,leftarrow,421,true,focus,no,9986634,Chrome,109.0,Windows,10,undefined,undefined,1536 x 864,1707 x 828
S012,51,Mannelijk,Links,2,4,left,no,50,leftarrow,441,true,focus,no,9987856,Chrome,109.0,Windows,10,undefined,undefined,1536 x 864,1707 x 828
S012,51,Mannelijk,Links,2,5,right,no,50,rightarrow,393,true,focus,no,9989030,Chrome,109.0,Windows,10,undefined,undefined,1536 x 864,1707 x 828
S012,51,Mannelijk,Links,2,6,right,yes,50,rightarrow,434,false,focus,no,9990238,Chrome,109.0,Windows,10,undefined,undefined,1536 x 864,1707 x 828
S012,51,Mannelijk,Links,2,7,right,no,50,rightarrow,422,true,focus,no,9991441,Chrome,109.0,Windows,10,undefined,undefined,1536 x 864,1707 x 828
S012,51,Mannelijk,Links,2,8,left,no,50,leftarrow,428,true,focus,no,9992651,Chrome,109.0,Windows,10,undefined,undefined,1536 x 864,1707 x 828
S012,51,Mannelijk,Links,2,9,right,no,50,rightarrow,431,true,focus,no,9993874,Chrome,109.0,Windows,10,undefined,undefined,1536 x 864,1707 x 828
S012,51,Mannelijk,Links,2,10,left,no,50,leftarrow,448,true,focus,no,9995087,Chrome,109.0,Windows,10,undefined,undefined,1536 x 864,1707 x 828
S012,51,Mannelijk,Links,2,11,right,no,50,rightarrow,406,true,focus,no,9996282,Chrome,109.0,Windows,10,undefined,undefined,1536 x 864,1707 x 828
S012,51,Mannelijk,Links,2,12,right,yes,50,rightarrow,432,false,focus,no,9997505,Chrome,109.0,Windows,10,undefined,undefined,1536 x 864,1707 x 828
S012,51,Mannelijk,Links,2,13,left,no,50,leftarrow,433,true,focus,no,9998703,Chrome,109.0,Windows,10,undefined,undefined,1536 x 864,1707 x 828
S012,51,Mannelijk,Links,2,14,left,no,50,leftarrow,383,true,focus,no,9999861,Chrome,109.0,Windows,10,undefined,undefined,1536 x 864,1707 x 828
S012,51,Mannelijk,Links,2,15,right,no,50,rightarrow,413,true,focus,no,10001059,Chrome,109.0,Windows,10,undefined,undefined,1536 x 864,1707 x 828
S012,51,Mannelijk,Links,2,16,left,yes,50,leftarrow,421,false,focus,no,10002258,Chrome,109.0,Windows,10,undefined,undefined,1536 x 864,1707 x 828
S012,51,Mannelijk,Links,2,17,right,yes,50,rightarrow,440,false,focus,no,10003493,Chrome,109.0,Windows,10,undefined,undefined,1536 x 864,1707 x 828
S012,51,Mannelijk,Links,2,18,left,yes,50,leftarrow,370,false,focus,no,10004637,Chrome,109.0,Windows,10,undefined,undefined,1536 x 864,1707 x 828
S012,51,Mannelijk,Links,2,19,left,no,50,leftarrow,377,true,focus,no,10005799,Chrome,109.0,Windows,10,undefined,undefined,1536 x 864,1707 x 828
S012,51,Mannelijk,Links,2,20,right,no,50,rightarrow,350,true,focus,no,10006934,Chrome,109.0,Windows,10,undefined,undefined,1536 x 864,1707 x 828
S012,51,Mannelijk,Links,2,21,left,no,50,leftarrow,434,true,focus,no,10008148,Chrome,109.0,Windows,10,undefined,undefined,1536 x 864,1707 x 828
S012,51,Mannelijk,Links,2,22,right,no,50,rightarrow,432,true,focus,no,10009368,Chrome,109.0,Windows,10,undefined,undefined,1536 x 864,1707 x 828
S012,51,Mannelijk,Links,2,23,right,no,50,rightarrow,407,true,focus,no,10010554,Chrome,109.0,Windows,10,undefined,undefined,1536 x 864,1707 x 828
S012,51,Mannelijk,Links,2,24,left,no,50,leftarrow,340,true,focus,no,10011685,Chrome,109.0,Windows,10,undefined,undefined,1536 x 864,1707 x 828
S012,51,Mannelijk,Links,2,25,right,no,50,rightarrow,357,true,focus,no,10012824,Chrome,109.0,Windows,10,undefined,undefined,1536 x 864,1707 x 828
S012,51,Mannelijk,Links,2,26,left,yes,50,leftarrow,350,false,focus,no,10013950,Chrome,109.0,Windows,10,undefined,undefined,1536 x 864,1707 x 828
S012,51,Mannelijk,Links,2,27,left,no,50,leftarrow,404,true,focus,no,10015127,Chrome,109.0,Windows,10,undefined,undefined,1536 x 864,1707 x 828
S012,51,Mannelijk,Links,2,28,right,yes,50,rightarrow,407,false,focus,no,10016306,Chrome,109.0,Windows,10,undefined,undefined,1536 x 864,1707 x 828
S012,51,Mannelijk,Links,2,29,right,no,50,leftarrow,368,false,focus,no,10017469,Chrome,109.0,Windows,10,undefined,undefined,1536 x 864,1707 x 828
S012,51,Mannelijk,Links,2,30,left,no,50,leftarrow,350,true,focus,no,10018597,Chrome,109.0,Windows,10,undefined,undefined,1536 x 864,1707 x 828
S012,51,Mannelijk,Links,2,31,left,no,50,leftarrow,448,true,focus,no,10019832,Chrome,109.0,Windows,10,undefined,undefined,1536 x 864,1707 x 828
S012,51,Mannelijk,Links,2,32,right,no,50,rightarrow,367,true,focus,no,10020967,Chrome,109.0,Windows,10,undefined,undefined,1536 x 864,1707 x 828
S012,51,Mannelijk,Links,2,33,right,no,50,rightarrow,364,true,focus,no,10022117,Chrome,109.0,Windows,10,undefined,undefined,1536 x 864,1707 x 828
S012,51,Mannelijk,Links,2,34,left,no,50,leftarrow,353,true,focus,no,10023244,Chrome,109.0,Windows,10,undefined,undefined,1536 x 864,1707 x 828
S012,51,Mannelijk,Links,2,35,left,no,50,leftarrow,364,true,focus,no,10024387,Chrome,109.0,Windows,10,undefined,undefined,1536 x 864,1707 x 828
S012,51,Mannelijk,Links,2,36,left,yes,50,leftarrow,433,false,focus,no,10025608,Chrome,109.0,Windows,10,undefined,undefined,1536 x 864,1707 x 828
S012,51,Mannelijk,Links,2,37,right,no,50,rightarrow,374,true,focus,no,10026755,Chrome,109.0,Windows,10,undefined,undefined,1536 x 864,1707 x 828
S012,51,Mannelijk,Links,2,38,left,no,50,leftarrow,348,true,focus,no,10027880,Chrome,109.0,Windows,10,undefined,undefined,1536 x 864,1707 x 828
S012,51,Mannelijk,Links,2,39,right,yes,50,rightarrow,491,false,focus,no,10029144,Chrome,109.0,Windows,10,undefined,undefined,1536 x 864,1707 x 828
S012,51,Mannelijk,Links,2,40,right,no,50,rightarrow,418,true,focus,no,10030356,Chrome,109.0,Windows,10,undefined,undefined,1536 x 864,1707 x 828
S012,51,Mannelijk,Links,2,41,left,yes,50,leftarrow,387,false,focus,no,10031539,Chrome,109.0,Windows,10,undefined,undefined,1536 x 864,1707 x 828
S012,51,Mannelijk,Links,2,42,left,no,50,leftarrow,369,true,focus,no,10032686,Chrome,109.0,Windows,10,undefined,undefined,1536 x 864,1707 x 828
S012,51,Mannelijk,Links,2,43,right,yes,50,rightarrow,320,false,focus,no,10033773,Chrome,109.0,Windows,10,undefined,undefined,1536 x 864,1707 x 828
S012,51,Mannelijk,Links,2,44,right,no,50,rightarrow,330,true,focus,no,10034878,Chrome,109.0,Windows,10,undefined,undefined,1536 x 864,1707 x 828
S012,51,Mannelijk,Links,2,45,right,no,50,leftarrow,303,false,focus,no,10035953,Chrome,109.0,Windows,10,undefined,undefined,1536 x 864,1707 x 828
S012,51,Mannelijk,Links,2,46,right,no,50,rightarrow,565,true,focus,no,10037290,Chrome,109.0,Windows,10,undefined,undefined,1536 x 864,1707 x 828
S012,51,Mannelijk,Links,2,47,left,no,50,leftarrow,373,true,focus,no,10038443,Chrome,109.0,Windows,10,undefined,undefined,1536 x 864,1707 x 828
S012,51,Mannelijk,Links,2,48,left,no,50,leftarrow,404,true,focus,no,10039618,Chrome,109.0,Windows,10,undefined,undefined,1536 x 864,1707 x 828
S012,51,Mannelijk,Links,2,49,left,no,50,leftarrow,431,true,focus,no,10040828,Chrome,109.0,Windows,10,undefined,undefined,1536 x 864,1707 x 828
S012,51,Mannelijk,Links,2,50,left,no,50,leftarrow,417,true,focus,no,10042014,Chrome,109.0,Windows,10,undefined,undefined,1536 x 864,1707 x 828
S012,51,Mannelijk,Links,2,51,right,no,50,rightarrow,382,true,focus,no,10043175,Chrome,109.0,Windows,10,undefined,undefined,1536 x 864,1707 x 828
S012,51,Mannelijk,Links,2,52,left,yes,50,leftarrow,475,false,focus,no,10044416,Chrome,109.0,Windows,10,undefined,undefined,1536 x 864,1707 x 828
S012,51,Mannelijk,Links,2,53,right,yes,50,rightarrow,391,false,focus,no,10045603,Chrome,109.0,Windows,10,undefined,undefined,1536 x 864,1707 x 828
S012,51,Mannelijk,Links,2,54,right,no,50,rightarrow,359,true,focus,no,10046758,Chrome,109.0,Windows,10,undefined,undefined,1536 x 864,1707 x 828
S012,51,Mannelijk,Links,2,55,left,no,50,leftarrow,368,true,focus,no,10047920,Chrome,109.0,Windows,10,undefined,undefined,1536 x 864,1707 x 828
S012,51,Mannelijk,Links,2,56,right,no,50,rightarrow,360,true,focus,no,10049048,Chrome,109.0,Windows,10,undefined,undefined,1536 x 864,1707 x 828
S012,51,Mannelijk,Links,2,57,left,no,50,leftarrow,483,true,focus,no,10050310,Chrome,109.0,Windows,10,undefined,undefined,1536 x 864,1707 x 828
S012,51,Mannelijk,Links,2,58,right,no,50,rightarrow,340,true,focus,no,10051442,Chrome,109.0,Windows,10,undefined,undefined,1536 x 864,1707 x 828
S012,51,Mannelijk,Links,2,59,right,no,50,rightarrow,368,true,focus,no,10052609,Chrome,109.0,Windows,10,undefined,undefined,1536 x 864,1707 x 828
S012,51,Mannelijk,Links,2,60,left,no,50,leftarrow,406,true,focus,no,10053796,Chrome,109.0,Windows,10,undefined,undefined,1536 x 864,1707 x 828
S012,51,Mannelijk,Links,2,61,right,no,50,rightarrow,364,true,focus,no,10054928,Chrome,109.0,Windows,10,undefined,undefined,1536 x 864,1707 x 828
S012,51,Mannelijk,Links,2,62,right,yes,50,rightarrow,365,false,focus,no,10056078,Chrome,109.0,Windows,10,undefined,undefined,1536 x 864,1707 x 828
S012,51,Mannelijk,Links,2,63,left,yes,50,leftarrow,418,false,focus,no,10057297,Chrome,109.0,Windows,10,undefined,undefined,1536 x 864,1707 x 828
S012,51,Mannelijk,Links,2,64,left,no,50,leftarrow,501,true,focus,no,10058563,Chrome,109.0,Windows,10,undefined,undefined,1536 x 864,1707 x 828
S012,51,Mannelijk,Links,2,65,left,no,50,leftarrow,420,true,focus,no,10059768,Chrome,109.0,Windows,10,undefined,undefined,1536 x 864,1707 x 828
S012,51,Mannelijk,Links,2,66,right,no,50,rightarrow,382,true,focus,no,10060923,Chrome,109.0,Windows,10,undefined,undefined,1536 x 864,1707 x 828
S012,51,Mannelijk,Links,2,67,right,no,50,rightarrow,348,true,focus,no,10062066,Chrome,109.0,Windows,10,undefined,undefined,1536 x 864,1707 x 828
S012,51,Mannelijk,Links,2,68,left,yes,50,leftarrow,351,false,focus,no,10063198,Chrome,109.0,Windows,10,undefined,undefined,1536 x 864,1707 x 828
S012,51,Mannelijk,Links,2,69,right,yes,50,rightarrow,405,false,focus,no,10064385,Chrome,109.0,Windows,10,undefined,undefined,1536 x 864,1707 x 828
S012,51,Mannelijk,Links,2,70,left,no,50,leftarrow,392,true,focus,no,10065559,Chrome,109.0,Windows,10,undefined,undefined,1536 x 864,1707 x 828
S012,51,Mannelijk,Links,2,71,right,no,50,rightarrow,355,true,focus,no,10066717,Chrome,109.0,Windows,10,undefined,undefined,1536 x 864,1707 x 828
S012,51,Mannelijk,Links,2,72,left,no,50,leftarrow,525,true,focus,no,10068029,Chrome,109.0,Windows,10,undefined,undefined,1536 x 864,1707 x 828
S012,51,Mannelijk,Links,2,73,left,yes,50,leftarrow,374,false,focus,no,10069195,Chrome,109.0,Windows,10,undefined,undefined,1536 x 864,1707 x 828
S012,51,Mannelijk,Links,2,74,right,no,50,rightarrow,354,true,focus,no,10070330,Chrome,109.0,Windows,10,undefined,undefined,1536 x 864,1707 x 828
S012,51,Mannelijk,Links,2,75,left,no,50,leftarrow,431,true,focus,no,10071544,Chrome,109.0,Windows,10,undefined,undefined,1536 x 864,1707 x 828
S012,51,Mannelijk,Links,2,76,right,no,50,rightarrow,394,true,focus,no,10072707,Chrome,109.0,Windows,10,undefined,undefined,1536 x 864,1707 x 828
S012,51,Mannelijk,Links,2,77,left,no,50,leftarrow,379,true,focus,no,10073865,Chrome,109.0,Windows,10,undefined,undefined,1536 x 864,1707 x 828
S012,51,Mannelijk,Links,2,78,right,yes,50,rightarrow,430,false,focus,no,10075090,Chrome,109.0,Windows,10,undefined,undefined,1536 x 864,1707 x 828
S012,51,Mannelijk,Links,2,79,left,no,50,leftarrow,411,true,focus,no,10076287,Chrome,109.0,Windows,10,undefined,undefined,1536 x 864,1707 x 828
S012,51,Mannelijk,Links,2,80,right,no,50,rightarrow,408,true,focus,no,10077466,Chrome,109.0,Windows,10,undefined,undefined,1536 x 864,1707 x 828
S012,51,Mannelijk,Links,2,81,left,no,50,leftarrow,393,true,focus,no,10078626,Chrome,109.0,Windows,10,undefined,undefined,1536 x 864,1707 x 828
S012,51,Mannelijk,Links,2,82,right,no,50,rightarrow,354,true,focus,no,10079782,Chrome,109.0,Windows,10,undefined,undefined,1536 x 864,1707 x 828
S012,51,Mannelijk,Links,2,83,left,no,50,leftarrow,420,true,focus,no,10080975,Chrome,109.0,Windows,10,undefined,undefined,1536 x 864,1707 x 828
S012,51,Mannelijk,Links,2,84,right,no,50,rightarrow,383,true,focus,no,10082149,Chrome,109.0,Windows,10,undefined,undefined,1536 x 864,1707 x 828
S012,51,Mannelijk,Links,2,85,right,yes,50,rightarrow,442,false,focus,no,10083371,Chrome,109.0,Windows,10,undefined,undefined,1536 x 864,1707 x 828
S012,51,Mannelijk,Links,2,86,left,yes,50,leftarrow,439,false,focus,no,10084588,Chrome,109.0,Windows,10,undefined,undefined,1536 x 864,1707 x 828
S012,51,Mannelijk,Links,2,87,right,no,50,rightarrow,418,true,focus,no,10085780,Chrome,109.0,Windows,10,undefined,undefined,1536 x 864,1707 x 828
S012,51,Mannelijk,Links,2,88,left,no,50,leftarrow,75,true,focus,no,10086631,Chrome,109.0,Windows,10,undefined,undefined,1536 x 864,1707 x 828
S012,51,Mannelijk,Links,2,89,left,no,50,leftarrow,394,true,focus,no,10087793,Chrome,109.0,Windows,10,undefined,undefined,1536 x 864,1707 x 828
S012,51,Mannelijk,Links,2,90,left,no,50,leftarrow,405,true,focus,no,10088982,Chrome,109.0,Windows,10,undefined,undefined,1536 x 864,1707 x 828
S012,51,Mannelijk,Links,2,91,left,no,50,leftarrow,381,true,focus,no,10090148,Chrome,109.0,Windows,10,undefined,undefined,1536 x 864,1707 x 828
S012,51,Mannelijk,Links,2,92,left,yes,50,leftarrow,430,false,focus,no,10091372,Chrome,109.0,Windows,10,undefined,undefined,1536 x 864,1707 x 828
S012,51,Mannelijk,Links,2,93,right,no,50,rightarrow,394,true,focus,no,10092552,Chrome,109.0,Windows,10,undefined,undefined,1536 x 864,1707 x 828
S012,51,Mannelijk,Links,2,94,right,no,50,rightarrow,381,true,focus,no,10093720,Chrome,109.0,Windows,10,undefined,undefined,1536 x 864,1707 x 828
S012,51,Mannelijk,Links,2,95,right,no,50,rightarrow,376,true,focus,no,10094867,Chrome,109.0,Windows,10,undefined,undefined,1536 x 864,1707 x 828
S012,51,Mannelijk,Links,2,96,right,yes,50,rightarrow,394,false,focus,no,10096054,Chrome,109.0,Windows,10,undefined,undefined,1536 x 864,1707 x 828
S012,51,Mannelijk,Links,2,97,left,no,50,leftarrow,369,true,focus,no,10097196,Chrome,109.0,Windows,10,undefined,undefined,1536 x 864,1707 x 828
S012,51,Mannelijk,Links,2,98,right,yes,50,rightarrow,424,false,focus,no,10098399,Chrome,109.0,Windows,10,undefined,undefined,1536 x 864,1707 x 828
S012,51,Mannelijk,Links,2,99,left,yes,50,leftarrow,394,false,focus,no,10099582,Chrome,109.0,Windows,10,undefined,undefined,1536 x 864,1707 x 828
S012,51,Mannelijk,Links,2,100,right,no,50,rightarrow,421,true,focus,no,10100789,Chrome,109.0,Windows,10,undefined,undefined,1536 x 864,1707 x 828
S012,51,Mannelijk,Links,2,101,right,no,50,rightarrow,381,true,focus,no,10101958,Chrome,109.0,Windows,10,undefined,undefined,1536 x 864,1707 x 828
S012,51,Mannelijk,Links,2,102,left,no,50,leftarrow,448,true,focus,no,10103170,Chrome,109.0,Windows,10,undefined,undefined,1536 x 864,1707 x 828
S012,51,Mannelijk,Links,2,103,left,no,50,leftarrow,387,true,focus,no,10104344,Chrome,109.0,Windows,10,undefined,undefined,1536 x 864,1707 x 828
S012,51,Mannelijk,Links,2,104,right,no,50,rightarrow,314,true,focus,no,10105444,Chrome,109.0,Windows,10,undefined,undefined,1536 x 864,1707 x 828
S012,51,Mannelijk,Links,2,105,left,no,50,leftarrow,347,true,focus,no,10106569,Chrome,109.0,Windows,10,undefined,undefined,1536 x 864,1707 x 828
S012,51,Mannelijk,Links,2,106,right,no,50,rightarrow,452,true,focus,no,10107807,Chrome,109.0,Windows,10,undefined,undefined,1536 x 864,1707 x 828
S012,51,Mannelijk,Links,2,107,right,yes,50,rightarrow,463,false,focus,no,10109057,Chrome,109.0,Windows,10,undefined,undefined,1536 x 864,1707 x 828
S012,51,Mannelijk,Links,2,108,left,no,50,leftarrow,338,true,focus,no,10110165,Chrome,109.0,Windows,10,undefined,undefined,1536 x 864,1707 x 828
S012,51,Mannelijk,Links,2,109,left,no,50,leftarrow,371,true,focus,no,10111313,Chrome,109.0,Windows,10,undefined,undefined,1536 x 864,1707 x 828
S012,51,Mannelijk,Links,2,110,right,no,50,rightarrow,365,true,focus,no,10112450,Chrome,109.0,Windows,10,undefined,undefined,1536 x 864,1707 x 828
S012,51,Mannelijk,Links,2,111,right,no,50,rightarrow,382,true,focus,no,10113612,Chrome,109.0,Windows,10,undefined,undefined,1536 x 864,1707 x 828
S012,51,Mannelijk,Links,2,112,left,yes,50,leftarrow,448,false,focus,no,10114828,Chrome,109.0,Windows,10,undefined,undefined,1536 x 864,1707 x 828
S012,51,Mannelijk,Links,2,113,left,no,50,leftarrow,402,true,focus,no,10116019,Chrome,109.0,Windows,10,undefined,undefined,1536 x 864,1707 x 828
S012,51,Mannelijk,Links,2,114,left,yes,50,leftarrow,418,false,focus,no,10117207,Chrome,109.0,Windows,10,undefined,undefined,1536 x 864,1707 x 828
S012,51,Mannelijk,Links,2,115,right,no,50,rightarrow,383,true,focus,no,10118357,Chrome,109.0,Windows,10,undefined,undefined,1536 x 864,1707 x 828
S012,51,Mannelijk,Links,2,116,right,no,50,rightarrow,448,true,focus,no,10119593,Chrome,109.0,Windows,10,undefined,undefined,1536 x 864,1707 x 828
S012,51,Mannelijk,Links,2,117,right,yes,50,rightarrow,381,false,focus,no,10120744,Chrome,109.0,Windows,10,undefined,undefined,1536 x 864,1707 x 828
S012,51,Mannelijk,Links,2,118,right,no,50,rightarrow,382,true,focus,no,10121895,Chrome,109.0,Windows,10,undefined,undefined,1536 x 864,1707 x 828
S012,51,Mannelijk,Links,2,119,left,no,50,leftarrow,415,true,focus,no,10123094,Chrome,109.0,Windows,10,undefined,undefined,1536 x 864,1707 x 828
S012,51,Mannelijk,Links,2,120,left,no,50,leftarrow,402,true,focus,no,10124289,Chrome,109.0,Windows,10,undefined,undefined,1536 x 864,1707 x 828
S012,51,Mannelijk,Links,2,121,right,no,50,rightarrow,352,true,focus,no,10125422,Chrome,109.0,Windows,10,undefined,undefined,1536 x 864,1707 x 828
S012,51,Mannelijk,Links,2,122,right,yes,50,rightarrow,374,false,focus,no,10126570,Chrome,109.0,Windows,10,undefined,undefined,1536 x 864,1707 x 828
S012,51,Mannelijk,Links,2,123,left,no,50,leftarrow,497,true,focus,no,10127853,Chrome,109.0,Windows,10,undefined,undefined,1536 x 864,1707 x 828
S012,51,Mannelijk,Links,2,124,right,no,50,rightarrow,477,true,focus,no,10129112,Chrome,109.0,Windows,10,undefined,undefined,1536 x 864,1707 x 828
S012,51,Mannelijk,Links,2,125,left,no,50,leftarrow,339,true,focus,no,10130233,Chrome,109.0,Windows,10,undefined,undefined,1536 x 864,1707 x 828
S012,51,Mannelijk,Links,2,126,left,no,50,leftarrow,392,true,focus,no,10131397,Chrome,109.0,Windows,10,undefined,undefined,1536 x 864,1707 x 828
S012,51,Mannelijk,Links,2,127,left,yes,50,leftarrow,410,false,focus,no,10132587,Chrome,109.0,Windows,10,undefined,undefined,1536 x 864,1707 x 828
S012,51,Mannelijk,Links,2,128,right,no,50,rightarrow,375,true,focus,no,10133752,Chrome,109.0,Windows,10,undefined,undefined,1536 x 864,1707 x 828
S012,51,Mannelijk,Links,3,1,right,no,50,rightarrow,450,true,focus,no,10158591,Chrome,109.0,Windows,10,undefined,undefined,1536 x 864,1707 x 828
S012,51,Mannelijk,Links,3,2,right,yes,50,rightarrow,378,false,focus,no,10159749,Chrome,109.0,Windows,10,undefined,undefined,1536 x 864,1707 x 828
S012,51,Mannelijk,Links,3,3,right,no,50,rightarrow,357,true,focus,no,10160878,Chrome,109.0,Windows,10,undefined,undefined,1536 x 864,1707 x 828
S012,51,Mannelijk,Links,3,4,left,no,50,leftarrow,456,true,focus,no,10162105,Chrome,109.0,Windows,10,undefined,undefined,1536 x 864,1707 x 828
S012,51,Mannelijk,Links,3,5,left,yes,50,undefined,null,true,focus,no,10164152,Chrome,109.0,Windows,10,undefined,undefined,1536 x 864,1707 x 828
S012,51,Mannelijk,Links,3,6,right,no,100,rightarrow,374,true,focus,no,10165308,Chrome,109.0,Windows,10,undefined,undefined,1536 x 864,1707 x 828
S012,51,Mannelijk,Links,3,7,left,no,100,leftarrow,510,true,focus,no,10166596,Chrome,109.0,Windows,10,undefined,undefined,1536 x 864,1707 x 828
S012,51,Mannelijk,Links,3,8,left,no,100,leftarrow,469,true,focus,no,10167849,Chrome,109.0,Windows,10,undefined,undefined,1536 x 864,1707 x 828
S012,51,Mannelijk,Links,3,9,left,no,100,leftarrow,459,true,focus,no,10169092,Chrome,109.0,Windows,10,undefined,undefined,1536 x 864,1707 x 828
S012,51,Mannelijk,Links,3,10,right,yes,100,rightarrow,402,false,focus,no,10170278,Chrome,109.0,Windows,10,undefined,undefined,1536 x 864,1707 x 828
S012,51,Mannelijk,Links,3,11,left,yes,50,undefined,null,true,focus,no,10172316,Chrome,109.0,Windows,10,undefined,undefined,1536 x 864,1707 x 828
S012,51,Mannelijk,Links,3,12,right,no,100,rightarrow,430,true,focus,no,10173553,Chrome,109.0,Windows,10,undefined,undefined,1536 x 864,1707 x 828
S012,51,Mannelijk,Links,3,13,left,no,100,leftarrow,390,true,focus,no,10174716,Chrome,109.0,Windows,10,undefined,undefined,1536 x 864,1707 x 828
S012,51,Mannelijk,Links,3,14,left,no,100,leftarrow,384,true,focus,no,10175884,Chrome,109.0,Windows,10,undefined,undefined,1536 x 864,1707 x 828
S012,51,Mannelijk,Links,3,15,right,no,100,rightarrow,363,true,focus,no,10177038,Chrome,109.0,Windows,10,undefined,undefined,1536 x 864,1707 x 828
S012,51,Mannelijk,Links,3,16,right,no,100,leftarrow,306,false,focus,no,10178141,Chrome,109.0,Windows,10,undefined,undefined,1536 x 864,1707 x 828
S012,51,Mannelijk,Links,3,17,left,no,100,leftarrow,398,true,focus,no,10179317,Chrome,109.0,Windows,10,undefined,undefined,1536 x 864,1707 x 828
S012,51,Mannelijk,Links,3,18,right,no,100,rightarrow,457,true,focus,no,10180559,Chrome,109.0,Windows,10,undefined,undefined,1536 x 864,1707 x 828
S012,51,Mannelijk,Links,3,19,right,yes,100,rightarrow,431,false,focus,no,10181767,Chrome,109.0,Windows,10,undefined,undefined,1536 x 864,1707 x 828
S012,51,Mannelijk,Links,3,20,left,no,50,leftarrow,367,true,focus,no,10182933,Chrome,109.0,Windows,10,undefined,undefined,1536 x 864,1707 x 828
S012,51,Mannelijk,Links,3,21,right,no,50,rightarrow,389,true,focus,no,10184093,Chrome,109.0,Windows,10,undefined,undefined,1536 x 864,1707 x 828
S012,51,Mannelijk,Links,3,22,left,no,50,leftarrow,496,true,focus,no,10185375,Chrome,109.0,Windows,10,undefined,undefined,1536 x 864,1707 x 828
S012,51,Mannelijk,Links,3,23,left,yes,50,undefined,null,true,focus,no,10187432,Chrome,109.0,Windows,10,undefined,undefined,1536 x 864,1707 x 828
S012,51,Mannelijk,Links,3,24,right,no,100,rightarrow,426,true,focus,no,10188633,Chrome,109.0,Windows,10,undefined,undefined,1536 x 864,1707 x 828
S012,51,Mannelijk,Links,3,25,left,no,100,leftarrow,474,true,focus,no,10189905,Chrome,109.0,Windows,10,undefined,undefined,1536 x 864,1707 x 828
S012,51,Mannelijk,Links,3,26,right,no,100,rightarrow,377,true,focus,no,10191062,Chrome,109.0,Windows,10,undefined,undefined,1536 x 864,1707 x 828
S012,51,Mannelijk,Links,3,27,right,no,100,rightarrow,414,true,focus,no,10192266,Chrome,109.0,Windows,10,undefined,undefined,1536 x 864,1707 x 828
S012,51,Mannelijk,Links,3,28,right,no,100,rightarrow,408,true,focus,no,10193459,Chrome,109.0,Windows,10,undefined,undefined,1536 x 864,1707 x 828
S012,51,Mannelijk,Links,3,29,right,yes,100,rightarrow,652,false,focus,no,10194907,Chrome,109.0,Windows,10,undefined,undefined,1536 x 864,1707 x 828
S012,51,Mannelijk,Links,3,30,left,no,50,leftarrow,395,true,focus,no,10196098,Chrome,109.0,Windows,10,undefined,undefined,1536 x 864,1707 x 828
S012,51,Mannelijk,Links,3,31,left,no,50,leftarrow,864,true,focus,no,10197740,Chrome,109.0,Windows,10,undefined,undefined,1536 x 864,1707 x 828
S012,51,Mannelijk,Links,3,32,left,yes,50,undefined,null,true,focus,no,10199775,Chrome,109.0,Windows,10,undefined,undefined,1536 x 864,1707 x 828
S012,51,Mannelijk,Links,3,33,right,yes,100,undefined,null,true,focus,no,10201823,Chrome,109.0,Windows,10,undefined,undefined,1536 x 864,1707 x 828
S012,51,Mannelijk,Links,3,34,right,no,150,rightarrow,440,true,focus,no,10203048,Chrome,109.0,Windows,10,undefined,undefined,1536 x 864,1707 x 828
S012,51,Mannelijk,Links,3,35,left,no,150,leftarrow,512,true,focus,no,10204339,Chrome,109.0,Windows,10,undefined,undefined,1536 x 864,1707 x 828
S012,51,Mannelijk,Links,3,36,right,no,150,rightarrow,404,true,focus,no,10205515,Chrome,109.0,Windows,10,undefined,undefined,1536 x 864,1707 x 828
S012,51,Mannelijk,Links,3,37,left,no,150,leftarrow,454,true,focus,no,10206754,Chrome,109.0,Windows,10,undefined,undefined,1536 x 864,1707 x 828
S012,51,Mannelijk,Links,3,38,left,no,150,leftarrow,479,true,focus,no,10208010,Chrome,109.0,Windows,10,undefined,undefined,1536 x 864,1707 x 828
S012,51,Mannelijk,Links,3,39,right,no,150,rightarrow,480,true,focus,no,10209293,Chrome,109.0,Windows,10,undefined,undefined,1536 x 864,1707 x 828
S012,51,Mannelijk,Links,3,40,left,yes,150,leftarrow,765,false,focus,no,10210849,Chrome,109.0,Windows,10,undefined,undefined,1536 x 864,1707 x 828
S012,51,Mannelijk,Links,3,41,right,no,100,rightarrow,376,true,focus,no,10212000,Chrome,109.0,Windows,10,undefined,undefined,1536 x 864,1707 x 828
S012,51,Mannelijk,Links,3,42,left,yes,100,undefined,null,true,focus,no,10214047,Chrome,109.0,Windows,10,undefined,undefined,1536 x 864,1707 x 828
S012,51,Mannelijk,Links,3,43,right,yes,150,rightarrow,432,false,focus,no,10215262,Chrome,109.0,Windows,10,undefined,undefined,1536 x 864,1707 x 828
S012,51,Mannelijk,Links,3,44,left,no,100,leftarrow,692,true,focus,no,10216737,Chrome,109.0,Windows,10,undefined,undefined,1536 x 864,1707 x 828
S012,51,Mannelijk,Links,3,45,left,no,100,leftarrow,435,true,focus,no,10217954,Chrome,109.0,Windows,10,undefined,undefined,1536 x 864,1707 x 828
S012,51,Mannelijk,Links,3,46,left,no,100,leftarrow,443,true,focus,no,10219192,Chrome,109.0,Windows,10,undefined,undefined,1536 x 864,1707 x 828
S012,51,Mannelijk,Links,3,47,right,no,100,rightarrow,454,true,focus,no,10220415,Chrome,109.0,Windows,10,undefined,undefined,1536 x 864,1707 x 828
S012,51,Mannelijk,Links,3,48,right,no,100,rightarrow,419,true,focus,no,10221627,Chrome,109.0,Windows,10,undefined,undefined,1536 x 864,1707 x 828
S012,51,Mannelijk,Links,3,49,right,no,100,rightarrow,398,true,focus,no,10222809,Chrome,109.0,Windows,10,undefined,undefined,1536 x 864,1707 x 828
S012,51,Mannelijk,Links,3,50,left,no,100,leftarrow,509,true,focus,no,10224088,Chrome,109.0,Windows,10,undefined,undefined,1536 x 864,1707 x 828
S012,51,Mannelijk,Links,3,51,left,no,100,leftarrow,431,true,focus,no,10225305,Chrome,109.0,Windows,10,undefined,undefined,1536 x 864,1707 x 828
S012,51,Mannelijk,Links,3,52,right,no,100,rightarrow,371,true,focus,no,10226464,Chrome,109.0,Windows,10,undefined,undefined,1536 x 864,1707 x 828
S012,51,Mannelijk,Links,3,53,left,no,100,leftarrow,375,true,focus,no,10227605,Chrome,109.0,Windows,10,undefined,undefined,1536 x 864,1707 x 828
S012,51,Mannelijk,Links,3,54,right,no,100,rightarrow,387,true,focus,no,10228763,Chrome,109.0,Windows,10,undefined,undefined,1536 x 864,1707 x 828
S012,51,Mannelijk,Links,3,55,left,yes,100,leftarrow,360,false,focus,no,10229893,Chrome,109.0,Windows,10,undefined,undefined,1536 x 864,1707 x 828
S012,51,Mannelijk,Links,3,56,right,yes,50,rightarrow,325,false,focus,no,10230993,Chrome,109.0,Windows,10,undefined,undefined,1536 x 864,1707 x 828
S012,51,Mannelijk,Links,3,57,left,no,50,leftarrow,401,true,focus,no,10232160,Chrome,109.0,Windows,10,undefined,undefined,1536 x 864,1707 x 828
S012,51,Mannelijk,Links,3,58,left,no,50,leftarrow,412,true,focus,no,10233344,Chrome,109.0,Windows,10,undefined,undefined,1536 x 864,1707 x 828
S012,51,Mannelijk,Links,3,59,right,yes,50,undefined,null,true,focus,no,10235379,Chrome,109.0,Windows,10,undefined,undefined,1536 x 864,1707 x 828
S012,51,Mannelijk,Links,3,60,right,no,100,rightarrow,447,true,focus,no,10236619,Chrome,109.0,Windows,10,undefined,undefined,1536 x 864,1707 x 828
S012,51,Mannelijk,Links,3,61,right,no,100,rightarrow,449,true,focus,no,10237855,Chrome,109.0,Windows,10,undefined,undefined,1536 x 864,1707 x 828
S012,51,Mannelijk,Links,3,62,right,no,100,rightarrow,417,true,focus,no,10239060,Chrome,109.0,Windows,10,undefined,undefined,1536 x 864,1707 x 828
S012,51,Mannelijk,Links,3,63,left,yes,100,undefined,null,true,focus,no,10241085,Chrome,109.0,Windows,10,undefined,undefined,1536 x 864,1707 x 828
S012,51,Mannelijk,Links,3,64,left,no,150,leftarrow,416,true,focus,no,10242300,Chrome,109.0,Windows,10,undefined,undefined,1536 x 864,1707 x 828
S012,51,Mannelijk,Links,3,65,left,yes,150,rightarrow,334,false,focus,no,10243410,Chrome,109.0,Windows,10,undefined,undefined,1536 x 864,1707 x 828
S012,51,Mannelijk,Links,3,66,left,no,100,leftarrow,589,true,focus,no,10244789,Chrome,109.0,Windows,10,undefined,undefined,1536 x 864,1707 x 828
S012,51,Mannelijk,Links,3,67,left,no,100,leftarrow,356,true,focus,no,10245945,Chrome,109.0,Windows,10,undefined,undefined,1536 x 864,1707 x 828
S012,51,Mannelijk,Links,3,68,right,yes,100,rightarrow,380,false,focus,no,10247104,Chrome,109.0,Windows,10,undefined,undefined,1536 x 864,1707 x 828
S012,51,Mannelijk,Links,3,69,left,no,50,leftarrow,402,true,focus,no,10248272,Chrome,109.0,Windows,10,undefined,undefined,1536 x 864,1707 x 828
S012,51,Mannelijk,Links,3,70,right,no,50,rightarrow,398,true,focus,no,10249456,Chrome,109.0,Windows,10,undefined,undefined,1536 x 864,1707 x 828
S012,51,Mannelijk,Links,3,71,right,no,50,rightarrow,403,true,focus,no,10250626,Chrome,109.0,Windows,10,undefined,undefined,1536 x 864,1707 x 828
S012,51,Mannelijk,Links,3,72,right,no,50,rightarrow,398,true,focus,no,10251807,Chrome,109.0,Windows,10,undefined,undefined,1536 x 864,1707 x 828
S012,51,Mannelijk,Links,3,73,right,yes,50,rightarrow,436,false,focus,no,10253030,Chrome,109.0,Windows,10,undefined,undefined,1536 x 864,1707 x 828
S012,51,Mannelijk,Links,3,74,right,no,50,rightarrow,411,true,focus,no,10254224,Chrome,109.0,Windows,10,undefined,undefined,1536 x 864,1707 x 828
S012,51,Mannelijk,Links,3,75,left,no,50,leftarrow,450,true,focus,no,10255443,Chrome,109.0,Windows,10,undefined,undefined,1536 x 864,1707 x 828
S012,51,Mannelijk,Links,3,76,left,yes,50,undefined,null,true,focus,no,10257485,Chrome,109.0,Windows,10,undefined,undefined,1536 x 864,1707 x 828
S012,51,Mannelijk,Links,3,77,left,no,100,leftarrow,477,true,focus,no,10258739,Chrome,109.0,Windows,10,undefined,undefined,1536 x 864,1707 x 828
S012,51,Mannelijk,Links,3,78,left,no,100,leftarrow,517,true,focus,no,10260036,Chrome,109.0,Windows,10,undefined,undefined,1536 x 864,1707 x 828
S012,51,Mannelijk,Links,3,79,right,no,100,rightarrow,463,true,focus,no,10261278,Chrome,109.0,Windows,10,undefined,undefined,1536 x 864,1707 x 828
S012,51,Mannelijk,Links,3,80,right,no,100,rightarrow,608,true,focus,no,10262686,Chrome,109.0,Windows,10,undefined,undefined,1536 x 864,1707 x 828
S012,51,Mannelijk,Links,3,81,right,yes,100,rightarrow,359,false,focus,no,10263819,Chrome,109.0,Windows,10,undefined,undefined,1536 x 864,1707 x 828
S012,51,Mannelijk,Links,3,82,right,no,50,leftarrow,357,false,focus,no,10264969,Chrome,109.0,Windows,10,undefined,undefined,1536 x 864,1707 x 828
S012,51,Mannelijk,Links,3,83,left,no,50,leftarrow,461,true,focus,no,10266223,Chrome,109.0,Windows,10,undefined,undefined,1536 x 864,1707 x 828
S012,51,Mannelijk,Links,3,84,left,no,50,leftarrow,427,true,focus,no,10267422,Chrome,109.0,Windows,10,undefined,undefined,1536 x 864,1707 x 828
S012,51,Mannelijk,Links,3,85,right,no,50,rightarrow,465,true,focus,no,10268676,Chrome,109.0,Windows,10,undefined,undefined,1536 x 864,1707 x 828
S012,51,Mannelijk,Links,3,86,left,yes,50,undefined,null,true,focus,no,10270730,Chrome,109.0,Windows,10,undefined,undefined,1536 x 864,1707 x 828
S012,51,Mannelijk,Links,3,87,left,no,100,leftarrow,430,true,focus,no,10271945,Chrome,109.0,Windows,10,undefined,undefined,1536 x 864,1707 x 828
S012,51,Mannelijk,Links,3,88,right,no,100,rightarrow,456,true,focus,no,10273190,Chrome,109.0,Windows,10,undefined,undefined,1536 x 864,1707 x 828
S012,51,Mannelijk,Links,3,89,right,no,100,rightarrow,584,true,focus,no,10274553,Chrome,109.0,Windows,10,undefined,undefined,1536 x 864,1707 x 828
S012,51,Mannelijk,Links,3,90,left,no,100,leftarrow,522,true,focus,no,10275846,Chrome,109.0,Windows,10,undefined,undefined,1536 x 864,1707 x 828
S012,51,Mannelijk,Links,3,91,left,no,100,leftarrow,473,true,focus,no,10277113,Chrome,109.0,Windows,10,undefined,undefined,1536 x 864,1707 x 828
S012,51,Mannelijk,Links,3,92,right,yes,100,undefined,null,true,focus,no,10279147,Chrome,109.0,Windows,10,undefined,undefined,1536 x 864,1707 x 828
S012,51,Mannelijk,Links,3,93,right,no,150,rightarrow,557,true,focus,no,10280494,Chrome,109.0,Windows,10,undefined,undefined,1536 x 864,1707 x 828
S012,51,Mannelijk,Links,3,94,left,yes,150,leftarrow,452,false,focus,no,10281731,Chrome,109.0,Windows,10,undefined,undefined,1536 x 864,1707 x 828
S012,51,Mannelijk,Links,3,95,left,no,100,leftarrow,395,true,focus,no,10282902,Chrome,109.0,Windows,10,undefined,undefined,1536 x 864,1707 x 828
S012,51,Mannelijk,Links,3,96,right,no,100,rightarrow,481,true,focus,no,10284162,Chrome,109.0,Windows,10,undefined,undefined,1536 x 864,1707 x 828
S012,51,Mannelijk,Links,3,97,left,no,100,leftarrow,477,true,focus,no,10285428,Chrome,109.0,Windows,10,undefined,undefined,1536 x 864,1707 x 828
S012,51,Mannelijk,Links,3,98,right,no,100,rightarrow,620,true,focus,no,10286830,Chrome,109.0,Windows,10,undefined,undefined,1536 x 864,1707 x 828
S012,51,Mannelijk,Links,3,99,left,no,100,leftarrow,441,true,focus,no,10288057,Chrome,109.0,Windows,10,undefined,undefined,1536 x 864,1707 x 828
S012,51,Mannelijk,Links,3,100,left,no,100,leftarrow,343,true,focus,no,10289177,Chrome,109.0,Windows,10,undefined,undefined,1536 x 864,1707 x 828
S012,51,Mannelijk,Links,3,101,right,no,100,rightarrow,490,true,focus,no,10290431,Chrome,109.0,Windows,10,undefined,undefined,1536 x 864,1707 x 828
S012,51,Mannelijk,Links,3,102,right,yes,100,rightarrow,386,false,focus,no,10291584,Chrome,109.0,Windows,10,undefined,undefined,1536 x 864,1707 x 828
S012,51,Mannelijk,Links,3,103,right,no,50,rightarrow,434,true,focus,no,10292798,Chrome,109.0,Windows,10,undefined,undefined,1536 x 864,1707 x 828
S012,51,Mannelijk,Links,3,104,left,yes,50,undefined,null,true,focus,no,10294851,Chrome,109.0,Windows,10,undefined,undefined,1536 x 864,1707 x 828
S012,51,Mannelijk,Links,3,105,right,no,100,rightarrow,395,true,focus,no,10296026,Chrome,109.0,Windows,10,undefined,undefined,1536 x 864,1707 x 828
S012,51,Mannelijk,Links,3,106,left,no,100,leftarrow,489,true,focus,no,10297306,Chrome,109.0,Windows,10,undefined,undefined,1536 x 864,1707 x 828
S012,51,Mannelijk,Links,3,107,right,yes,100,undefined,null,true,focus,no,10299366,Chrome,109.0,Windows,10,undefined,undefined,1536 x 864,1707 x 828
S012,51,Mannelijk,Links,3,108,left,no,150,leftarrow,406,true,focus,no,10300565,Chrome,109.0,Windows,10,undefined,undefined,1536 x 864,1707 x 828
S012,51,Mannelijk,Links,3,109,right,no,150,rightarrow,500,true,focus,no,10301841,Chrome,109.0,Windows,10,undefined,undefined,1536 x 864,1707 x 828
S012,51,Mannelijk,Links,3,110,right,no,150,rightarrow,495,true,focus,no,10303131,Chrome,109.0,Windows,10,undefined,undefined,1536 x 864,1707 x 828
S012,51,Mannelijk,Links,3,111,left,yes,150,leftarrow,482,false,focus,no,10304403,Chrome,109.0,Windows,10,undefined,undefined,1536 x 864,1707 x 828
S012,51,Mannelijk,Links,3,112,left,no,100,leftarrow,479,true,focus,no,10305654,Chrome,109.0,Windows,10,undefined,undefined,1536 x 864,1707 x 828
S012,51,Mannelijk,Links,3,113,right,yes,100,undefined,null,true,focus,no,10307713,Chrome,109.0,Windows,10,undefined,undefined,1536 x 864,1707 x 828
S012,51,Mannelijk,Links,3,114,right,no,150,rightarrow,467,true,focus,no,10308966,Chrome,109.0,Windows,10,undefined,undefined,1536 x 864,1707 x 828
S012,51,Mannelijk,Links,3,115,right,no,150,rightarrow,458,true,focus,no,10310209,Chrome,109.0,Windows,10,undefined,undefined,1536 x 864,1707 x 828
S012,51,Mannelijk,Links,3,116,left,yes,150,undefined,null,true,focus,no,10312269,Chrome,109.0,Windows,10,undefined,undefined,1536 x 864,1707 x 828
S012,51,Mannelijk,Links,3,117,left,no,200,leftarrow,404,true,focus,no,10313450,Chrome,109.0,Windows,10,undefined,undefined,1536 x 864,1707 x 828
S012,51,Mannelijk,Links,3,118,right,no,200,rightarrow,431,true,focus,no,10314649,Chrome,109.0,Windows,10,undefined,undefined,1536 x 864,1707 x 828
S012,51,Mannelijk,Links,3,119,left,no,200,leftarrow,637,true,focus,no,10316090,Chrome,109.0,Windows,10,undefined,undefined,1536 x 864,1707 x 828
S012,51,Mannelijk,Links,3,120,left,no,200,leftarrow,487,true,focus,no,10317368,Chrome,109.0,Windows,10,undefined,undefined,1536 x 864,1707 x 828
S012,51,Mannelijk,Links,3,121,left,no,200,leftarrow,563,true,focus,no,10318741,Chrome,109.0,Windows,10,undefined,undefined,1536 x 864,1707 x 828
S012,51,Mannelijk,Links,3,122,right,no,200,rightarrow,535,true,focus,no,10320057,Chrome,109.0,Windows,10,undefined,undefined,1536 x 864,1707 x 828
S012,51,Mannelijk,Links,3,123,left,no,200,leftarrow,535,true,focus,no,10321380,Chrome,109.0,Windows,10,undefined,undefined,1536 x 864,1707 x 828
S012,51,Mannelijk,Links,3,124,right,no,200,rightarrow,467,true,focus,no,10322632,Chrome,109.0,Windows,10,undefined,undefined,1536 x 864,1707 x 828
S012,51,Mannelijk,Links,3,125,right,no,200,rightarrow,417,true,focus,no,10323820,Chrome,109.0,Windows,10,undefined,undefined,1536 x 864,1707 x 828
S012,51,Mannelijk,Links,3,126,left,no,200,leftarrow,532,true,focus,no,10325144,Chrome,109.0,Windows,10,undefined,undefined,1536 x 864,1707 x 828
S012,51,Mannelijk,Links,3,127,left,yes,200,leftarrow,430,false,focus,no,10326351,Chrome,109.0,Windows,10,undefined,undefined,1536 x 864,1707 x 828
S012,51,Mannelijk,Links,3,128,right,yes,150,rightarrow,426,false,focus,no,10327569,Chrome,109.0,Windows,10,undefined,undefined,1536 x 864,1707 x 828
S012,51,Mannelijk,Links,4,1,left,no,100,leftarrow,505,true,focus,no,10348209,Chrome,109.0,Windows,10,undefined,undefined,1536 x 864,1707 x 828
S012,51,Mannelijk,Links,4,2,left,yes,100,undefined,null,true,focus,no,10350263,Chrome,109.0,Windows,10,undefined,undefined,1536 x 864,1707 x 828
S012,51,Mannelijk,Links,4,3,right,yes,150,undefined,null,true,focus,no,10352306,Chrome,109.0,Windows,10,undefined,undefined,1536 x 864,1707 x 828
S012,51,Mannelijk,Links,4,4,left,no,200,leftarrow,459,true,focus,no,10353548,Chrome,109.0,Windows,10,undefined,undefined,1536 x 864,1707 x 828
S012,51,Mannelijk,Links,4,5,right,no,200,rightarrow,539,true,focus,no,10354900,Chrome,109.0,Windows,10,undefined,undefined,1536 x 864,1707 x 828
S012,51,Mannelijk,Links,4,6,right,no,200,rightarrow,647,true,focus,no,10356319,Chrome,109.0,Windows,10,undefined,undefined,1536 x 864,1707 x 828
S012,51,Mannelijk,Links,4,7,right,no,200,rightarrow,438,true,focus,no,10357529,Chrome,109.0,Windows,10,undefined,undefined,1536 x 864,1707 x 828
S012,51,Mannelijk,Links,4,8,left,no,200,leftarrow,488,true,focus,no,10358790,Chrome,109.0,Windows,10,undefined,undefined,1536 x 864,1707 x 828
S012,51,Mannelijk,Links,4,9,left,no,200,leftarrow,467,true,focus,no,10360053,Chrome,109.0,Windows,10,undefined,undefined,1536 x 864,1707 x 828
S012,51,Mannelijk,Links,4,10,right,no,200,rightarrow,544,true,focus,no,10361368,Chrome,109.0,Windows,10,undefined,undefined,1536 x 864,1707 x 828
S012,51,Mannelijk,Links,4,11,left,no,200,leftarrow,641,true,focus,no,10362802,Chrome,109.0,Windows,10,undefined,undefined,1536 x 864,1707 x 828
S012,51,Mannelijk,Links,4,12,right,yes,200,rightarrow,384,false,focus,no,10363974,Chrome,109.0,Windows,10,undefined,undefined,1536 x 864,1707 x 828
S012,51,Mannelijk,Links,4,13,right,no,150,rightarrow,493,true,focus,no,10365254,Chrome,109.0,Windows,10,undefined,undefined,1536 x 864,1707 x 828
S012,51,Mannelijk,Links,4,14,left,no,150,leftarrow,673,true,focus,no,10366720,Chrome,109.0,Windows,10,undefined,undefined,1536 x 864,1707 x 828
S012,51,Mannelijk,Links,4,15,left,yes,150,undefined,null,true,focus,no,10368776,Chrome,109.0,Windows,10,undefined,undefined,1536 x 864,1707 x 828
S012,51,Mannelijk,Links,4,16,right,no,200,rightarrow,482,true,focus,no,10370040,Chrome,109.0,Windows,10,undefined,undefined,1536 x 864,1707 x 828
S012,51,Mannelijk,Links,4,17,left,no,200,leftarrow,495,true,focus,no,10371306,Chrome,109.0,Windows,10,undefined,undefined,1536 x 864,1707 x 828
S012,51,Mannelijk,Links,4,18,right,no,200,rightarrow,470,true,focus,no,10372573,Chrome,109.0,Windows,10,undefined,undefined,1536 x 864,1707 x 828
S012,51,Mannelijk,Links,4,19,right,yes,200,rightarrow,402,false,focus,no,10373750,Chrome,109.0,Windows,10,undefined,undefined,1536 x 864,1707 x 828
S012,51,Mannelijk,Links,4,20,left,no,150,leftarrow,403,true,focus,no,10374943,Chrome,109.0,Windows,10,undefined,undefined,1536 x 864,1707 x 828
S012,51,Mannelijk,Links,4,21,left,no,150,leftarrow,595,true,focus,no,10376334,Chrome,109.0,Windows,10,undefined,undefined,1536 x 864,1707 x 828
S012,51,Mannelijk,Links,4,22,right,no,150,rightarrow,389,true,focus,no,10377503,Chrome,109.0,Windows,10,undefined,undefined,1536 x 864,1707 x 828
S012,51,Mannelijk,Links,4,23,right,no,150,rightarrow,447,true,focus,no,10378738,Chrome,109.0,Windows,10,undefined,undefined,1536 x 864,1707 x 828
S012,51,Mannelijk,Links,4,24,left,yes,150,undefined,null,true,focus,no,10380792,Chrome,109.0,Windows,10,undefined,undefined,1536 x 864,1707 x 828
S012,51,Mannelijk,Links,4,25,right,yes,200,rightarrow,426,false,focus,no,10382000,Chrome,109.0,Windows,10,undefined,undefined,1536 x 864,1707 x 828
S012,51,Mannelijk,Links,4,26,left,yes,150,undefined,null,true,focus,no,10384076,Chrome,109.0,Windows,10,undefined,undefined,1536 x 864,1707 x 828
S012,51,Mannelijk,Links,4,27,left,no,200,leftarrow,642,true,focus,no,10385506,Chrome,109.0,Windows,10,undefined,undefined,1536 x 864,1707 x 828
S012,51,Mannelijk,Links,4,28,right,no,200,rightarrow,544,true,focus,no,10386843,Chrome,109.0,Windows,10,undefined,undefined,1536 x 864,1707 x 828
S012,51,Mannelijk,Links,4,29,left,no,200,leftarrow,542,true,focus,no,10388183,Chrome,109.0,Windows,10,undefined,undefined,1536 x 864,1707 x 828
S012,51,Mannelijk,Links,4,30,left,no,200,leftarrow,491,true,focus,no,10389455,Chrome,109.0,Windows,10,undefined,undefined,1536 x 864,1707 x 828
S012,51,Mannelijk,Links,4,31,right,no,200,rightarrow,461,true,focus,no,10390675,Chrome,109.0,Windows,10,undefined,undefined,1536 x 864,1707 x 828
S012,51,Mannelijk,Links,4,32,right,no,200,rightarrow,526,true,focus,no,10391983,Chrome,109.0,Windows,10,undefined,undefined,1536 x 864,1707 x 828
S012,51,Mannelijk,Links,4,33,right,no,200,rightarrow,448,true,focus,no,10393209,Chrome,109.0,Windows,10,undefined,undefined,1536 x 864,1707 x 828
S012,51,Mannelijk,Links,4,34,right,no,200,rightarrow,548,true,focus,no,10394538,Chrome,109.0,Windows,10,undefined,undefined,1536 x 864,1707 x 828
S012,51,Mannelijk,Links,4,35,left,no,200,leftarrow,608,true,focus,no,10395927,Chrome,109.0,Windows,10,undefined,undefined,1536 x 864,1707 x 828
S012,51,Mannelijk,Links,4,36,left,no,200,leftarrow,462,true,focus,no,10397159,Chrome,109.0,Windows,10,undefined,undefined,1536 x 864,1707 x 828
S012,51,Mannelijk,Links,4,37,right,no,200,rightarrow,524,true,focus,no,10398480,Chrome,109.0,Windows,10,undefined,undefined,1536 x 864,1707 x 828
S012,51,Mannelijk,Links,4,38,left,yes,200,leftarrow,412,false,focus,no,10399665,Chrome,109.0,Windows,10,undefined,undefined,1536 x 864,1707 x 828
S012,51,Mannelijk,Links,4,39,right,yes,150,rightarrow,385,false,focus,no,10400815,Chrome,109.0,Windows,10,undefined,undefined,1536 x 864,1707 x 828
S012,51,Mannelijk,Links,4,40,left,no,100,leftarrow,613,true,focus,no,10402217,Chrome,109.0,Windows,10,undefined,undefined,1536 x 864,1707 x 828
S012,51,Mannelijk,Links,4,41,right,no,100,rightarrow,391,true,focus,no,10403409,Chrome,109.0,Windows,10,undefined,undefined,1536 x 864,1707 x 828
S012,51,Mannelijk,Links,4,42,left,no,100,leftarrow,520,true,focus,no,10404729,Chrome,109.0,Windows,10,undefined,undefined,1536 x 864,1707 x 828
S012,51,Mannelijk,Links,4,43,left,no,100,leftarrow,385,true,focus,no,10405918,Chrome,109.0,Windows,10,undefined,undefined,1536 x 864,1707 x 828
S012,51,Mannelijk,Links,4,44,left,yes,100,undefined,null,true,focus,no,10407968,Chrome,109.0,Windows,10,undefined,undefined,1536 x 864,1707 x 828
S012,51,Mannelijk,Links,4,45,right,yes,150,undefined,null,true,focus,no,10410007,Chrome,109.0,Windows,10,undefined,undefined,1536 x 864,1707 x 828
S012,51,Mannelijk,Links,4,46,right,no,200,rightarrow,490,true,focus,no,10411293,Chrome,109.0,Windows,10,undefined,undefined,1536 x 864,1707 x 828
S012,51,Mannelijk,Links,4,47,right,no,200,rightarrow,444,true,focus,no,10412533,Chrome,109.0,Windows,10,undefined,undefined,1536 x 864,1707 x 828
S012,51,Mannelijk,Links,4,48,left,no,200,leftarrow,528,true,focus,no,10413836,Chrome,109.0,Windows,10,undefined,undefined,1536 x 864,1707 x 828
S012,51,Mannelijk,Links,4,49,left,no,200,leftarrow,455,true,focus,no,10415069,Chrome,109.0,Windows,10,undefined,undefined,1536 x 864,1707 x 828
S012,51,Mannelijk,Links,4,50,right,no,200,rightarrow,459,true,focus,no,10416298,Chrome,109.0,Windows,10,undefined,undefined,1536 x 864,1707 x 828
S012,51,Mannelijk,Links,4,51,left,yes,200,leftarrow,435,false,focus,no,10417508,Chrome,109.0,Windows,10,undefined,undefined,1536 x 864,1707 x 828
S012,51,Mannelijk,Links,4,52,right,yes,150,undefined,null,true,focus,no,10419548,Chrome,109.0,Windows,10,undefined,undefined,1536 x 864,1707 x 828
S012,51,Mannelijk,Links,4,53,right,no,200,rightarrow,547,true,focus,no,10420881,Chrome,109.0,Windows,10,undefined,undefined,1536 x 864,1707 x 828
S012,51,Mannelijk,Links,4,54,right,no,200,rightarrow,559,true,focus,no,10422219,Chrome,109.0,Windows,10,undefined,undefined,1536 x 864,1707 x 828
S012,51,Mannelijk,Links,4,55,left,no,200,leftarrow,531,true,focus,no,10423547,Chrome,109.0,Windows,10,undefined,undefined,1536 x 864,1707 x 828
S012,51,Mannelijk,Links,4,56,left,no,200,leftarrow,491,true,focus,no,10424816,Chrome,109.0,Windows,10,undefined,undefined,1536 x 864,1707 x 828
S012,51,Mannelijk,Links,4,57,right,yes,200,undefined,null,true,focus,no,10426850,Chrome,109.0,Windows,10,undefined,undefined,1536 x 864,1707 x 828
S012,51,Mannelijk,Links,4,58,right,no,250,rightarrow,426,true,focus,no,10428047,Chrome,109.0,Windows,10,undefined,undefined,1536 x 864,1707 x 828
S012,51,Mannelijk,Links,4,59,left,yes,250,leftarrow,461,false,focus,no,10429279,Chrome,109.0,Windows,10,undefined,undefined,1536 x 864,1707 x 828
S012,51,Mannelijk,Links,4,60,left,no,200,leftarrow,458,true,focus,no,10430522,Chrome,109.0,Windows,10,undefined,undefined,1536 x 864,1707 x 828
S012,51,Mannelijk,Links,4,61,left,no,200,leftarrow,479,true,focus,no,10431768,Chrome,109.0,Windows,10,undefined,undefined,1536 x 864,1707 x 828
S012,51,Mannelijk,Links,4,62,right,no,200,rightarrow,461,true,focus,no,10433006,Chrome,109.0,Windows,10,undefined,undefined,1536 x 864,1707 x 828
S012,51,Mannelijk,Links,4,63,left,no,200,leftarrow,592,true,focus,no,10434363,Chrome,109.0,Windows,10,undefined,undefined,1536 x 864,1707 x 828
S012,51,Mannelijk,Links,4,64,right,no,200,rightarrow,477,true,focus,no,10435621,Chrome,109.0,Windows,10,undefined,undefined,1536 x 864,1707 x 828
S012,51,Mannelijk,Links,4,65,left,yes,200,undefined,null,true,focus,no,10437659,Chrome,109.0,Windows,10,undefined,undefined,1536 x 864,1707 x 828
S012,51,Mannelijk,Links,4,66,left,no,250,leftarrow,477,true,focus,no,10438923,Chrome,109.0,Windows,10,undefined,undefined,1536 x 864,1707 x 828
S012,51,Mannelijk,Links,4,67,right,no,250,rightarrow,553,true,focus,no,10440267,Chrome,109.0,Windows,10,undefined,undefined,1536 x 864,1707 x 828
S012,51,Mannelijk,Links,4,68,left,no,250,leftarrow,387,true,focus,no,10441447,Chrome,109.0,Windows,10,undefined,undefined,1536 x 864,1707 x 828
S012,51,Mannelijk,Links,4,69,right,no,250,rightarrow,468,true,focus,no,10442700,Chrome,109.0,Windows,10,undefined,undefined,1536 x 864,1707 x 828
S012,51,Mannelijk,Links,4,70,right,yes,250,rightarrow,487,false,focus,no,10443976,Chrome,109.0,Windows,10,undefined,undefined,1536 x 864,1707 x 828
S012,51,Mannelijk,Links,4,71,left,no,200,leftarrow,402,true,focus,no,10445157,Chrome,109.0,Windows,10,undefined,undefined,1536 x 864,1707 x 828
S012,51,Mannelijk,Links,4,72,right,no,200,leftarrow,460,false,focus,no,10446409,Chrome,109.0,Windows,10,undefined,undefined,1536 x 864,1707 x 828
S012,51,Mannelijk,Links,4,73,right,no,200,rightarrow,418,true,focus,no,10447619,Chrome,109.0,Windows,10,undefined,undefined,1536 x 864,1707 x 828
S012,51,Mannelijk,Links,4,74,left,yes,200,leftarrow,437,false,focus,no,10448842,Chrome,109.0,Windows,10,undefined,undefined,1536 x 864,1707 x 828
S012,51,Mannelijk,Links,4,75,left,no,150,leftarrow,696,true,focus,no,10450330,Chrome,109.0,Windows,10,undefined,undefined,1536 x 864,1707 x 828
S012,51,Mannelijk,Links,4,76,right,no,150,rightarrow,484,true,focus,no,10451613,Chrome,109.0,Windows,10,undefined,undefined,1536 x 864,1707 x 828
S012,51,Mannelijk,Links,4,77,left,no,150,leftarrow,553,true,focus,no,10452941,Chrome,109.0,Windows,10,undefined,undefined,1536 x 864,1707 x 828
S012,51,Mannelijk,Links,4,78,right,yes,150,undefined,null,true,focus,no,10454993,Chrome,109.0,Windows,10,undefined,undefined,1536 x 864,1707 x 828
S012,51,Mannelijk,Links,4,79,left,no,200,leftarrow,409,true,focus,no,10456195,Chrome,109.0,Windows,10,undefined,undefined,1536 x 864,1707 x 828
S012,51,Mannelijk,Links,4,80,right,no,200,rightarrow,624,true,focus,no,10457605,Chrome,109.0,Windows,10,undefined,undefined,1536 x 864,1707 x 828
S012,51,Mannelijk,Links,4,81,left,no,200,leftarrow,524,true,focus,no,10458907,Chrome,109.0,Windows,10,undefined,undefined,1536 x 864,1707 x 828
S012,51,Mannelijk,Links,4,82,left,yes,200,undefined,null,true,focus,no,10460962,Chrome,109.0,Windows,10,undefined,undefined,1536 x 864,1707 x 828
S012,51,Mannelijk,Links,4,83,right,no,250,rightarrow,348,true,focus,no,10462095,Chrome,109.0,Windows,10,undefined,undefined,1536 x 864,1707 x 828
S012,51,Mannelijk,Links,4,84,left,no,250,leftarrow,458,true,focus,no,10463335,Chrome,109.0,Windows,10,undefined,undefined,1536 x 864,1707 x 828
S012,51,Mannelijk,Links,4,85,left,no,250,leftarrow,483,true,focus,no,10464608,Chrome,109.0,Windows,10,undefined,undefined,1536 x 864,1707 x 828
S012,51,Mannelijk,Links,4,86,right,yes,250,undefined,null,true,focus,no,10466650,Chrome,109.0,Windows,10,undefined,undefined,1536 x 864,1707 x 828
S012,51,Mannelijk,Links,4,87,right,no,300,rightarrow,436,true,focus,no,10467870,Chrome,109.0,Windows,10,undefined,undefined,1536 x 864,1707 x 828
S012,51,Mannelijk,Links,4,88,right,no,300,rightarrow,406,true,focus,no,10469057,Chrome,109.0,Windows,10,undefined,undefined,1536 x 864,1707 x 828
S012,51,Mannelijk,Links,4,89,left,yes,300,rightarrow,654,false,focus,no,10470517,Chrome,109.0,Windows,10,undefined,undefined,1536 x 864,1707 x 828
S012,51,Mannelijk,Links,4,90,right,no,250,rightarrow,370,true,focus,no,10471656,Chrome,109.0,Windows,10,undefined,undefined,1536 x 864,1707 x 828
S012,51,Mannelijk,Links,4,91,left,no,250,leftarrow,422,true,focus,no,10472871,Chrome,109.0,Windows,10,undefined,undefined,1536 x 864,1707 x 828
S012,51,Mannelijk,Links,4,92,left,no,250,leftarrow,483,true,focus,no,10474129,Chrome,109.0,Windows,10,undefined,undefined,1536 x 864,1707 x 828
S012,51,Mannelijk,Links,4,93,right,no,250,rightarrow,377,true,focus,no,10475291,Chrome,109.0,Windows,10,undefined,undefined,1536 x 864,1707 x 828
S012,51,Mannelijk,Links,4,94,right,no,250,rightarrow,404,true,focus,no,10476484,Chrome,109.0,Windows,10,undefined,undefined,1536 x 864,1707 x 828
S012,51,Mannelijk,Links,4,95,left,no,250,rightarrow,416,false,focus,no,10477697,Chrome,109.0,Windows,10,undefined,undefined,1536 x 864,1707 x 828
S012,51,Mannelijk,Links,4,96,right,yes,250,rightarrow,419,false,focus,no,10478910,Chrome,109.0,Windows,10,undefined,undefined,1536 x 864,1707 x 828
S012,51,Mannelijk,Links,4,97,left,no,200,leftarrow,424,true,focus,no,10480119,Chrome,109.0,Windows,10,undefined,undefined,1536 x 864,1707 x 828
S012,51,Mannelijk,Links,4,98,right,no,200,rightarrow,405,true,focus,no,10481296,Chrome,109.0,Windows,10,undefined,undefined,1536 x 864,1707 x 828
S012,51,Mannelijk,Links,4,99,left,no,200,leftarrow,346,true,focus,no,10482410,Chrome,109.0,Windows,10,undefined,undefined,1536 x 864,1707 x 828
S012,51,Mannelijk,Links,4,100,left,yes,200,rightarrow,370,false,focus,no,10483546,Chrome,109.0,Windows,10,undefined,undefined,1536 x 864,1707 x 828
S012,51,Mannelijk,Links,4,101,right,no,150,rightarrow,405,true,focus,no,10484738,Chrome,109.0,Windows,10,undefined,undefined,1536 x 864,1707 x 828
S012,51,Mannelijk,Links,4,102,right,yes,150,rightarrow,420,false,focus,no,10485938,Chrome,109.0,Windows,10,undefined,undefined,1536 x 864,1707 x 828
S012,51,Mannelijk,Links,4,103,right,no,100,rightarrow,416,true,focus,no,10487141,Chrome,109.0,Windows,10,undefined,undefined,1536 x 864,1707 x 828
S012,51,Mannelijk,Links,4,104,left,no,100,leftarrow,442,true,focus,no,10488368,Chrome,109.0,Windows,10,undefined,undefined,1536 x 864,1707 x 828
S012,51,Mannelijk,Links,4,105,left,yes,100,rightarrow,353,false,focus,no,10489496,Chrome,109.0,Windows,10,undefined,undefined,1536 x 864,1707 x 828
S012,51,Mannelijk,Links,4,106,right,no,50,rightarrow,415,true,focus,no,10490687,Chrome,109.0,Windows,10,undefined,undefined,1536 x 864,1707 x 828
S012,51,Mannelijk,Links,4,107,left,no,50,leftarrow,404,true,focus,no,10491875,Chrome,109.0,Windows,10,undefined,undefined,1536 x 864,1707 x 828
S012,51,Mannelijk,Links,4,108,right,yes,50,undefined,null,true,focus,no,10493908,Chrome,109.0,Windows,10,undefined,undefined,1536 x 864,1707 x 828
S012,51,Mannelijk,Links,4,109,right,no,100,rightarrow,429,true,focus,no,10495107,Chrome,109.0,Windows,10,undefined,undefined,1536 x 864,1707 x 828
S012,51,Mannelijk,Links,4,110,right,no,100,rightarrow,371,true,focus,no,10496264,Chrome,109.0,Windows,10,undefined,undefined,1536 x 864,1707 x 828
S012,51,Mannelijk,Links,4,111,left,no,100,leftarrow,422,true,focus,no,10497455,Chrome,109.0,Windows,10,undefined,undefined,1536 x 864,1707 x 828
S012,51,Mannelijk,Links,4,112,left,no,100,leftarrow,424,true,focus,no,10498659,Chrome,109.0,Windows,10,undefined,undefined,1536 x 864,1707 x 828
S012,51,Mannelijk,Links,4,113,right,no,100,rightarrow,390,true,focus,no,10499818,Chrome,109.0,Windows,10,undefined,undefined,1536 x 864,1707 x 828
S012,51,Mannelijk,Links,4,114,left,no,100,leftarrow,298,true,focus,no,10500919,Chrome,109.0,Windows,10,undefined,undefined,1536 x 864,1707 x 828
S012,51,Mannelijk,Links,4,115,left,yes,100,undefined,null,true,focus,no,10502959,Chrome,109.0,Windows,10,undefined,undefined,1536 x 864,1707 x 828
S012,51,Mannelijk,Links,4,116,left,no,150,leftarrow,413,true,focus,no,10504152,Chrome,109.0,Windows,10,undefined,undefined,1536 x 864,1707 x 828
S012,51,Mannelijk,Links,4,117,left,no,150,leftarrow,352,true,focus,no,10505300,Chrome,109.0,Windows,10,undefined,undefined,1536 x 864,1707 x 828
S012,51,Mannelijk,Links,4,118,right,no,150,rightarrow,362,true,focus,no,10506453,Chrome,109.0,Windows,10,undefined,undefined,1536 x 864,1707 x 828
S012,51,Mannelijk,Links,4,119,right,no,150,leftarrow,247,false,focus,no,10507494,Chrome,109.0,Windows,10,undefined,undefined,1536 x 864,1707 x 828
S012,51,Mannelijk,Links,4,120,right,yes,150,rightarrow,353,false,focus,no,10508626,Chrome,109.0,Windows,10,undefined,undefined,1536 x 864,1707 x 828
S012,51,Mannelijk,Links,4,121,right,no,100,rightarrow,667,true,focus,no,10510074,Chrome,109.0,Windows,10,undefined,undefined,1536 x 864,1707 x 828
S012,51,Mannelijk,Links,4,122,left,no,100,leftarrow,411,true,focus,no,10511245,Chrome,109.0,Windows,10,undefined,undefined,1536 x 864,1707 x 828
S012,51,Mannelijk,Links,4,123,right,no,100,rightarrow,355,true,focus,no,10512374,Chrome,109.0,Windows,10,undefined,undefined,1536 x 864,1707 x 828
S012,51,Mannelijk,Links,4,124,left,no,100,rightarrow,310,false,focus,no,10513464,Chrome,109.0,Windows,10,undefined,undefined,1536 x 864,1707 x 828
S012,51,Mannelijk,Links,4,125,left,yes,100,leftarrow,363,false,focus,no,10514617,Chrome,109.0,Windows,10,undefined,undefined,1536 x 864,1707 x 828
S012,51,Mannelijk,Links,4,126,right,no,50,rightarrow,428,true,focus,no,10515836,Chrome,109.0,Windows,10,undefined,undefined,1536 x 864,1707 x 828
S012,51,Mannelijk,Links,4,127,left,no,50,leftarrow,352,true,focus,no,10516974,Chrome,109.0,Windows,10,undefined,undefined,1536 x 864,1707 x 828
S012,51,Mannelijk,Links,4,128,right,yes,50,undefined,null,true,focus,no,10519018,Chrome,109.0,Windows,10,undefined,undefined,1536 x 864,1707 x 828
S012,51,Mannelijk,Links,5,1,right,yes,100,undefined,null,true,focus,no,10540666,Chrome,109.0,Windows,10,undefined,undefined,1536 x 864,1707 x 828
S012,51,Mannelijk,Links,5,2,left,no,150,leftarrow,431,true,focus,no,10541886,Chrome,109.0,Windows,10,undefined,undefined,1536 x 864,1707 x 828
S012,51,Mannelijk,Links,5,3,left,no,150,leftarrow,434,true,focus,no,10543096,Chrome,109.0,Windows,10,undefined,undefined,1536 x 864,1707 x 828
S012,51,Mannelijk,Links,5,4,right,no,150,rightarrow,419,true,focus,no,10544299,Chrome,109.0,Windows,10,undefined,undefined,1536 x 864,1707 x 828
S012,51,Mannelijk,Links,5,5,right,no,150,leftarrow,283,false,focus,no,10545374,Chrome,109.0,Windows,10,undefined,undefined,1536 x 864,1707 x 828
S012,51,Mannelijk,Links,5,6,left,no,150,leftarrow,378,true,focus,no,10546516,Chrome,109.0,Windows,10,undefined,undefined,1536 x 864,1707 x 828
S012,51,Mannelijk,Links,5,7,right,no,150,rightarrow,333,true,focus,no,10547646,Chrome,109.0,Windows,10,undefined,undefined,1536 x 864,1707 x 828
S012,51,Mannelijk,Links,5,8,left,yes,150,leftarrow,307,false,focus,no,10548745,Chrome,109.0,Windows,10,undefined,undefined,1536 x 864,1707 x 828
S012,51,Mannelijk,Links,5,9,right,no,100,rightarrow,354,true,focus,no,10549879,Chrome,109.0,Windows,10,undefined,undefined,1536 x 864,1707 x 828
S012,51,Mannelijk,Links,5,10,right,yes,100,rightarrow,378,false,focus,no,10551044,Chrome,109.0,Windows,10,undefined,undefined,1536 x 864,1707 x 828
S012,51,Mannelijk,Links,5,11,left,yes,50,undefined,null,true,focus,no,10553096,Chrome,109.0,Windows,10,undefined,undefined,1536 x 864,1707 x 828
S012,51,Mannelijk,Links,5,12,right,no,100,rightarrow,447,true,focus,no,10554313,Chrome,109.0,Windows,10,undefined,undefined,1536 x 864,1707 x 828
S012,51,Mannelijk,Links,5,13,right,no,100,rightarrow,421,true,focus,no,10555508,Chrome,109.0,Windows,10,undefined,undefined,1536 x 864,1707 x 828
S012,51,Mannelijk,Links,5,14,left,no,100,leftarrow,416,true,focus,no,10556719,Chrome,109.0,Windows,10,undefined,undefined,1536 x 864,1707 x 828
S012,51,Mannelijk,Links,5,15,left,no,100,leftarrow,406,true,focus,no,10557910,Chrome,109.0,Windows,10,undefined,undefined,1536 x 864,1707 x 828
S012,51,Mannelijk,Links,5,16,left,no,100,rightarrow,287,false,focus,no,10558990,Chrome,109.0,Windows,10,undefined,undefined,1536 x 864,1707 x 828
S012,51,Mannelijk,Links,5,17,left,no,100,leftarrow,427,true,focus,no,10560212,Chrome,109.0,Windows,10,undefined,undefined,1536 x 864,1707 x 828
S012,51,Mannelijk,Links,5,18,right,no,100,rightarrow,415,true,focus,no,10561407,Chrome,109.0,Windows,10,undefined,undefined,1536 x 864,1707 x 828
S012,51,Mannelijk,Links,5,19,left,yes,100,leftarrow,378,false,focus,no,10562565,Chrome,109.0,Windows,10,undefined,undefined,1536 x 864,1707 x 828
S012,51,Mannelijk,Links,5,20,left,no,50,leftarrow,383,true,focus,no,10563729,Chrome,109.0,Windows,10,undefined,undefined,1536 x 864,1707 x 828
S012,51,Mannelijk,Links,5,21,right,no,50,rightarrow,473,true,focus,no,10564988,Chrome,109.0,Windows,10,undefined,undefined,1536 x 864,1707 x 828
S012,51,Mannelijk,Links,5,22,right,no,50,rightarrow,490,true,focus,no,10566276,Chrome,109.0,Windows,10,undefined,undefined,1536 x 864,1707 x 828
S012,51,Mannelijk,Links,5,23,left,no,50,leftarrow,399,true,focus,no,10567474,Chrome,109.0,Windows,10,undefined,undefined,1536 x 864,1707 x 828
S012,51,Mannelijk,Links,5,24,right,yes,50,undefined,null,true,focus,no,10569520,Chrome,109.0,Windows,10,undefined,undefined,1536 x 864,1707 x 828
S012,51,Mannelijk,Links,5,25,left,no,100,leftarrow,367,true,focus,no,10570691,Chrome,109.0,Windows,10,undefined,undefined,1536 x 864,1707 x 828
S012,51,Mannelijk,Links,5,26,left,no,100,leftarrow,369,true,focus,no,10571845,Chrome,109.0,Windows,10,undefined,undefined,1536 x 864,1707 x 828
S012,51,Mannelijk,Links,5,27,right,no,100,rightarrow,389,true,focus,no,10573023,Chrome,109.0,Windows,10,undefined,undefined,1536 x 864,1707 x 828
S012,51,Mannelijk,Links,5,28,right,no,100,rightarrow,432,true,focus,no,10574232,Chrome,109.0,Windows,10,undefined,undefined,1536 x 864,1707 x 828
S012,51,Mannelijk,Links,5,29,left,yes,100,leftarrow,347,false,focus,no,10575364,Chrome,109.0,Windows,10,undefined,undefined,1536 x 864,1707 x 828
S012,51,Mannelijk,Links,5,30,left,no,50,leftarrow,423,true,focus,no,10576554,Chrome,109.0,Windows,10,undefined,undefined,1536 x 864,1707 x 828
S012,51,Mannelijk,Links,5,31,right,no,50,rightarrow,439,true,focus,no,10577783,Chrome,109.0,Windows,10,undefined,undefined,1536 x 864,1707 x 828
S012,51,Mannelijk,Links,5,32,right,yes,50,undefined,null,true,focus,no,10579825,Chrome,109.0,Windows,10,undefined,undefined,1536 x 864,1707 x 828
S012,51,Mannelijk,Links,5,33,right,no,100,rightarrow,415,true,focus,no,10581033,Chrome,109.0,Windows,10,undefined,undefined,1536 x 864,1707 x 828
S012,51,Mannelijk,Links,5,34,left,no,100,leftarrow,382,true,focus,no,10582200,Chrome,109.0,Windows,10,undefined,undefined,1536 x 864,1707 x 828
S012,51,Mannelijk,Links,5,35,right,yes,100,undefined,null,true,focus,no,10584233,Chrome,109.0,Windows,10,undefined,undefined,1536 x 864,1707 x 828
S012,51,Mannelijk,Links,5,36,left,no,150,leftarrow,409,true,focus,no,10585433,Chrome,109.0,Windows,10,undefined,undefined,1536 x 864,1707 x 828
S012,51,Mannelijk,Links,5,37,left,yes,150,undefined,null,true,focus,no,10587473,Chrome,109.0,Windows,10,undefined,undefined,1536 x 864,1707 x 828
S012,51,Mannelijk,Links,5,38,left,no,200,leftarrow,413,true,focus,no,10588672,Chrome,109.0,Windows,10,undefined,undefined,1536 x 864,1707 x 828
S012,51,Mannelijk,Links,5,39,right,no,200,rightarrow,396,true,focus,no,10589881,Chrome,109.0,Windows,10,undefined,undefined,1536 x 864,1707 x 828
S012,51,Mannelijk,Links,5,40,right,no,200,rightarrow,463,true,focus,no,10591126,Chrome,109.0,Windows,10,undefined,undefined,1536 x 864,1707 x 828
S012,51,Mannelijk,Links,5,41,right,yes,200,rightarrow,454,false,focus,no,10592371,Chrome,109.0,Windows,10,undefined,undefined,1536 x 864,1707 x 828
S012,51,Mannelijk,Links,5,42,right,no,150,rightarrow,624,true,focus,no,10593787,Chrome,109.0,Windows,10,undefined,undefined,1536 x 864,1707 x 828
S012,51,Mannelijk,Links,5,43,right,no,150,rightarrow,455,true,focus,no,10595033,Chrome,109.0,Windows,10,undefined,undefined,1536 x 864,1707 x 828
S012,51,Mannelijk,Links,5,44,right,no,150,rightarrow,684,true,focus,no,10596483,Chrome,109.0,Windows,10,undefined,undefined,1536 x 864,1707 x 828
S012,51,Mannelijk,Links,5,45,left,no,150,leftarrow,372,true,focus,no,10597650,Chrome,109.0,Windows,10,undefined,undefined,1536 x 864,1707 x 828
S012,51,Mannelijk,Links,5,46,left,no,150,leftarrow,384,true,focus,no,10598831,Chrome,109.0,Windows,10,undefined,undefined,1536 x 864,1707 x 828
S012,51,Mannelijk,Links,5,47,left,yes,150,leftarrow,470,false,focus,no,10600080,Chrome,109.0,Windows,10,undefined,undefined,1536 x 864,1707 x 828
S012,51,Mannelijk,Links,5,48,left,no,100,leftarrow,464,true,focus,no,10601348,Chrome,109.0,Windows,10,undefined,undefined,1536 x 864,1707 x 828
S012,51,Mannelijk,Links,5,49,left,no,100,leftarrow,397,true,focus,no,10602530,Chrome,109.0,Windows,10,undefined,undefined,1536 x 864,1707 x 828
S012,51,Mannelijk,Links,5,50,left,no,100,leftarrow,415,true,focus,no,10603737,Chrome,109.0,Windows,10,undefined,undefined,1536 x 864,1707 x 828
S012,51,Mannelijk,Links,5,51,right,no,100,rightarrow,363,true,focus,no,10604883,Chrome,109.0,Windows,10,undefined,undefined,1536 x 864,1707 x 828
S012,51,Mannelijk,Links,5,52,right,yes,100,undefined,null,true,focus,no,10606945,Chrome,109.0,Windows,10,undefined,undefined,1536 x 864,1707 x 828
S012,51,Mannelijk,Links,5,53,right,no,150,rightarrow,486,true,focus,no,10608228,Chrome,109.0,Windows,10,undefined,undefined,1536 x 864,1707 x 828
S012,51,Mannelijk,Links,5,54,right,no,150,rightarrow,588,true,focus,no,10609603,Chrome,109.0,Windows,10,undefined,undefined,1536 x 864,1707 x 828
S012,51,Mannelijk,Links,5,55,left,no,150,leftarrow,415,true,focus,no,10610812,Chrome,109.0,Windows,10,undefined,undefined,1536 x 864,1707 x 828
S012,51,Mannelijk,Links,5,56,left,yes,150,undefined,null,true,focus,no,10612886,Chrome,109.0,Windows,10,undefined,undefined,1536 x 864,1707 x 828
S012,51,Mannelijk,Links,5,57,right,no,200,rightarrow,372,true,focus,no,10614045,Chrome,109.0,Windows,10,undefined,undefined,1536 x 864,1707 x 828
S012,51,Mannelijk,Links,5,58,right,no,200,rightarrow,427,true,focus,no,10615258,Chrome,109.0,Windows,10,undefined,undefined,1536 x 864,1707 x 828
S012,51,Mannelijk,Links,5,59,left,no,200,leftarrow,498,true,focus,no,10616543,Chrome,109.0,Windows,10,undefined,undefined,1536 x 864,1707 x 828
S012,51,Mannelijk,Links,5,60,right,yes,200,rightarrow,411,false,focus,no,10617729,Chrome,109.0,Windows,10,undefined,undefined,1536 x 864,1707 x 828
S012,51,Mannelijk,Links,5,61,left,no,150,leftarrow,414,true,focus,no,10618930,Chrome,109.0,Windows,10,undefined,undefined,1536 x 864,1707 x 828
S012,51,Mannelijk,Links,5,62,right,no,150,rightarrow,497,true,focus,no,10620209,Chrome,109.0,Windows,10,undefined,undefined,1536 x 864,1707 x 828
S012,51,Mannelijk,Links,5,63,left,no,150,leftarrow,489,true,focus,no,10621487,Chrome,109.0,Windows,10,undefined,undefined,1536 x 864,1707 x 828
S012,51,Mannelijk,Links,5,64,left,yes,150,undefined,null,true,focus,no,10623531,Chrome,109.0,Windows,10,undefined,undefined,1536 x 864,1707 x 828
S012,51,Mannelijk,Links,5,65,left,no,200,leftarrow,447,true,focus,no,10624760,Chrome,109.0,Windows,10,undefined,undefined,1536 x 864,1707 x 828
S012,51,Mannelijk,Links,5,66,left,no,200,leftarrow,495,true,focus,no,10626033,Chrome,109.0,Windows,10,undefined,undefined,1536 x 864,1707 x 828
S012,51,Mannelijk,Links,5,67,left,no,200,leftarrow,425,true,focus,no,10627252,Chrome,109.0,Windows,10,undefined,undefined,1536 x 864,1707 x 828
S012,51,Mannelijk,Links,5,68,right,no,200,rightarrow,447,true,focus,no,10628475,Chrome,109.0,Windows,10,undefined,undefined,1536 x 864,1707 x 828
S012,51,Mannelijk,Links,5,69,right,yes,200,rightarrow,465,false,focus,no,10629726,Chrome,109.0,Windows,10,undefined,undefined,1536 x 864,1707 x 828
S012,51,Mannelijk,Links,5,70,right,no,150,rightarrow,413,true,focus,no,10630924,Chrome,109.0,Windows,10,undefined,undefined,1536 x 864,1707 x 828
S012,51,Mannelijk,Links,5,71,right,no,150,rightarrow,631,true,focus,no,10632329,Chrome,109.0,Windows,10,undefined,undefined,1536 x 864,1707 x 828
S012,51,Mannelijk,Links,5,72,left,yes,150,undefined,null,true,focus,no,10634380,Chrome,109.0,Windows,10,undefined,undefined,1536 x 864,1707 x 828
S012,51,Mannelijk,Links,5,73,left,no,200,leftarrow,481,true,focus,no,10635669,Chrome,109.0,Windows,10,undefined,undefined,1536 x 864,1707 x 828
S012,51,Mannelijk,Links,5,74,right,no,200,rightarrow,401,true,focus,no,10636846,Chrome,109.0,Windows,10,undefined,undefined,1536 x 864,1707 x 828
S012,51,Mannelijk,Links,5,75,right,no,200,rightarrow,421,true,focus,no,10638044,Chrome,109.0,Windows,10,undefined,undefined,1536 x 864,1707 x 828
S012,51,Mannelijk,Links,5,76,right,no,200,rightarrow,421,true,focus,no,10639245,Chrome,109.0,Windows,10,undefined,undefined,1536 x 864,1707 x 828
S012,51,Mannelijk,Links,5,77,left,yes,200,leftarrow,448,false,focus,no,10640474,Chrome,109.0,Windows,10,undefined,undefined,1536 x 864,1707 x 828
S012,51,Mannelijk,Links,5,78,left,no,150,leftarrow,395,true,focus,no,10641644,Chrome,109.0,Windows,10,undefined,undefined,1536 x 864,1707 x 828
S012,51,Mannelijk,Links,5,79,left,no,150,leftarrow,539,true,focus,no,10642962,Chrome,109.0,Windows,10,undefined,undefined,1536 x 864,1707 x 828
S012,51,Mannelijk,Links,5,80,right,yes,150,rightarrow,385,false,focus,no,10644140,Chrome,109.0,Windows,10,undefined,undefined,1536 x 864,1707 x 828
S012,51,Mannelijk,Links,5,81,left,no,100,leftarrow,381,true,focus,no,10645287,Chrome,109.0,Windows,10,undefined,undefined,1536 x 864,1707 x 828
S012,51,Mannelijk,Links,5,82,right,yes,100,undefined,null,true,focus,no,10647318,Chrome,109.0,Windows,10,undefined,undefined,1536 x 864,1707 x 828
S012,51,Mannelijk,Links,5,83,left,no,150,leftarrow,401,true,focus,no,10648505,Chrome,109.0,Windows,10,undefined,undefined,1536 x 864,1707 x 828
S012,51,Mannelijk,Links,5,84,right,no,150,rightarrow,487,true,focus,no,10649773,Chrome,109.0,Windows,10,undefined,undefined,1536 x 864,1707 x 828
S012,51,Mannelijk,Links,5,85,right,no,150,rightarrow,559,true,focus,no,10651115,Chrome,109.0,Windows,10,undefined,undefined,1536 x 864,1707 x 828
S012,51,Mannelijk,Links,5,86,left,no,150,leftarrow,443,true,focus,no,10652348,Chrome,109.0,Windows,10,undefined,undefined,1536 x 864,1707 x 828
S012,51,Mannelijk,Links,5,87,left,yes,150,undefined,null,true,focus,no,10654383,Chrome,109.0,Windows,10,undefined,undefined,1536 x 864,1707 x 828
S012,51,Mannelijk,Links,5,88,right,no,200,rightarrow,415,true,focus,no,10655586,Chrome,109.0,Windows,10,undefined,undefined,1536 x 864,1707 x 828
S012,51,Mannelijk,Links,5,89,left,no,200,leftarrow,474,true,focus,no,10656840,Chrome,109.0,Windows,10,undefined,undefined,1536 x 864,1707 x 828
S012,51,Mannelijk,Links,5,90,left,yes,200,leftarrow,380,false,focus,no,10658009,Chrome,109.0,Windows,10,undefined,undefined,1536 x 864,1707 x 828
S012,51,Mannelijk,Links,5,91,right,no,150,rightarrow,364,true,focus,no,10659154,Chrome,109.0,Windows,10,undefined,undefined,1536 x 864,1707 x 828
S012,51,Mannelijk,Links,5,92,left,no,150,leftarrow,427,true,focus,no,10660365,Chrome,109.0,Windows,10,undefined,undefined,1536 x 864,1707 x 828
S012,51,Mannelijk,Links,5,93,right,no,150,rightarrow,493,true,focus,no,10661657,Chrome,109.0,Windows,10,undefined,undefined,1536 x 864,1707 x 828
S012,51,Mannelijk,Links,5,94,right,no,150,rightarrow,418,true,focus,no,10662854,Chrome,109.0,Windows,10,undefined,undefined,1536 x 864,1707 x 828
S012,51,Mannelijk,Links,5,95,left,no,150,leftarrow,551,true,focus,no,10664187,Chrome,109.0,Windows,10,undefined,undefined,1536 x 864,1707 x 828
S012,51,Mannelijk,Links,5,96,right,yes,150,rightarrow,421,false,focus,no,10665393,Chrome,109.0,Windows,10,undefined,undefined,1536 x 864,1707 x 828
S012,51,Mannelijk,Links,5,97,right,no,100,leftarrow,332,false,focus,no,10666515,Chrome,109.0,Windows,10,undefined,undefined,1536 x 864,1707 x 828
S012,51,Mannelijk,Links,5,98,right,yes,100,undefined,null,true,focus,no,10668569,Chrome,109.0,Windows,10,undefined,undefined,1536 x 864,1707 x 828
S012,51,Mannelijk,Links,5,99,right,no,150,rightarrow,482,true,focus,no,10669851,Chrome,109.0,Windows,10,undefined,undefined,1536 x 864,1707 x 828
S012,51,Mannelijk,Links,5,100,left,no,150,leftarrow,519,true,focus,no,10671135,Chrome,109.0,Windows,10,undefined,undefined,1536 x 864,1707 x 828
S012,51,Mannelijk,Links,5,101,left,no,150,leftarrow,583,true,focus,no,10672503,Chrome,109.0,Windows,10,undefined,undefined,1536 x 864,1707 x 828
S012,51,Mannelijk,Links,5,102,left,no,150,leftarrow,414,true,focus,no,10673699,Chrome,109.0,Windows,10,undefined,undefined,1536 x 864,1707 x 828
S012,51,Mannelijk,Links,5,103,left,yes,150,leftarrow,400,false,focus,no,10674884,Chrome,109.0,Windows,10,undefined,undefined,1536 x 864,1707 x 828
S012,51,Mannelijk,Links,5,104,right,no,100,rightarrow,432,true,focus,no,10676092,Chrome,109.0,Windows,10,undefined,undefined,1536 x 864,1707 x 828
S012,51,Mannelijk,Links,5,105,left,yes,100,undefined,null,true,focus,no,10678158,Chrome,109.0,Windows,10,undefined,undefined,1536 x 864,1707 x 828
S012,51,Mannelijk,Links,5,106,right,no,150,rightarrow,445,true,focus,no,10679379,Chrome,109.0,Windows,10,undefined,undefined,1536 x 864,1707 x 828
S012,51,Mannelijk,Links,5,107,right,no,150,rightarrow,415,true,focus,no,10680580,Chrome,109.0,Windows,10,undefined,undefined,1536 x 864,1707 x 828
S012,51,Mannelijk,Links,5,108,right,no,150,rightarrow,435,true,focus,no,10681803,Chrome,109.0,Windows,10,undefined,undefined,1536 x 864,1707 x 828
S012,51,Mannelijk,Links,5,109,left,no,150,leftarrow,472,true,focus,no,10683057,Chrome,109.0,Windows,10,undefined,undefined,1536 x 864,1707 x 828
S012,51,Mannelijk,Links,5,110,left,no,150,leftarrow,446,true,focus,no,10684279,Chrome,109.0,Windows,10,undefined,undefined,1536 x 864,1707 x 828
S012,51,Mannelijk,Links,5,111,right,yes,150,rightarrow,390,false,focus,no,10685443,Chrome,109.0,Windows,10,undefined,undefined,1536 x 864,1707 x 828
S012,51,Mannelijk,Links,5,112,left,no,100,leftarrow,402,true,focus,no,10686617,Chrome,109.0,Windows,10,undefined,undefined,1536 x 864,1707 x 828
S012,51,Mannelijk,Links,5,113,right,no,100,rightarrow,452,true,focus,no,10687858,Chrome,109.0,Windows,10,undefined,undefined,1536 x 864,1707 x 828
S012,51,Mannelijk,Links,5,114,left,no,100,leftarrow,404,true,focus,no,10689044,Chrome,109.0,Windows,10,undefined,undefined,1536 x 864,1707 x 828
S012,51,Mannelijk,Links,5,115,right,yes,100,undefined,null,true,focus,no,10691074,Chrome,109.0,Windows,10,undefined,undefined,1536 x 864,1707 x 828
S012,51,Mannelijk,Links,5,116,left,no,150,leftarrow,434,true,focus,no,10692296,Chrome,109.0,Windows,10,undefined,undefined,1536 x 864,1707 x 828
S012,51,Mannelijk,Links,5,117,left,yes,150,undefined,null,true,focus,no,10694326,Chrome,109.0,Windows,10,undefined,undefined,1536 x 864,1707 x 828
S012,51,Mannelijk,Links,5,118,right,no,200,rightarrow,512,true,focus,no,10695625,Chrome,109.0,Windows,10,undefined,undefined,1536 x 864,1707 x 828
S012,51,Mannelijk,Links,5,119,right,no,200,rightarrow,448,true,focus,no,10696866,Chrome,109.0,Windows,10,undefined,undefined,1536 x 864,1707 x 828
S012,51,Mannelijk,Links,5,120,left,no,200,leftarrow,460,true,focus,no,10698107,Chrome,109.0,Windows,10,undefined,undefined,1536 x 864,1707 x 828
S012,51,Mannelijk,Links,5,121,right,yes,200,undefined,null,true,focus,no,10700153,Chrome,109.0,Windows,10,undefined,undefined,1536 x 864,1707 x 828
S012,51,Mannelijk,Links,5,122,right,no,250,rightarrow,498,true,focus,no,10701442,Chrome,109.0,Windows,10,undefined,undefined,1536 x 864,1707 x 828
S012,51,Mannelijk,Links,5,123,left,no,250,leftarrow,673,true,focus,no,10702893,Chrome,109.0,Windows,10,undefined,undefined,1536 x 864,1707 x 828
S012,51,Mannelijk,Links,5,124,right,no,250,rightarrow,731,true,focus,no,10704414,Chrome,109.0,Windows,10,undefined,undefined,1536 x 864,1707 x 828
S012,51,Mannelijk,Links,5,125,left,no,250,leftarrow,633,true,focus,no,10705822,Chrome,109.0,Windows,10,undefined,undefined,1536 x 864,1707 x 828
S012,51,Mannelijk,Links,5,126,left,yes,250,leftarrow,448,false,focus,no,10707045,Chrome,109.0,Windows,10,undefined,undefined,1536 x 864,1707 x 828
S012,51,Mannelijk,Links,5,127,left,no,200,leftarrow,429,true,focus,no,10708252,Chrome,109.0,Windows,10,undefined,undefined,1536 x 864,1707 x 828
S012,51,Mannelijk,Links,5,128,right,no,200,rightarrow,582,true,focus,no,10709630,Chrome,109.0,Windows,10,undefined,undefined,1536 x 864,1707 x 828
S012,51,Mannelijk,Links,6,1,left,no,200,leftarrow,588,true,focus,no,10730419,Chrome,109.0,Windows,10,undefined,undefined,1536 x 864,1707 x 828
S012,51,Mannelijk,Links,6,2,left,no,200,leftarrow,377,true,focus,no,10731577,Chrome,109.0,Windows,10,undefined,undefined,1536 x 864,1707 x 828
S012,51,Mannelijk,Links,6,3,right,no,200,rightarrow,395,true,focus,no,10732757,Chrome,109.0,Windows,10,undefined,undefined,1536 x 864,1707 x 828
S012,51,Mannelijk,Links,6,4,left,no,200,leftarrow,444,true,focus,no,10733981,Chrome,109.0,Windows,10,undefined,undefined,1536 x 864,1707 x 828
S012,51,Mannelijk,Links,6,5,right,yes,200,undefined,null,true,focus,no,10736016,Chrome,109.0,Windows,10,undefined,undefined,1536 x 864,1707 x 828
S012,51,Mannelijk,Links,6,6,left,yes,250,leftarrow,381,false,focus,no,10737192,Chrome,109.0,Windows,10,undefined,undefined,1536 x 864,1707 x 828
S012,51,Mannelijk,Links,6,7,right,no,200,rightarrow,441,true,focus,no,10738416,Chrome,109.0,Windows,10,undefined,undefined,1536 x 864,1707 x 828
S012,51,Mannelijk,Links,6,8,right,no,200,rightarrow,396,true,focus,no,10739589,Chrome,109.0,Windows,10,undefined,undefined,1536 x 864,1707 x 828
S012,51,Mannelijk,Links,6,9,right,no,200,rightarrow,466,true,focus,no,10740843,Chrome,109.0,Windows,10,undefined,undefined,1536 x 864,1707 x 828
S012,51,Mannelijk,Links,6,10,right,yes,200,rightarrow,462,false,focus,no,10742091,Chrome,109.0,Windows,10,undefined,undefined,1536 x 864,1707 x 828
S012,51,Mannelijk,Links,6,11,right,no,150,rightarrow,419,true,focus,no,10743294,Chrome,109.0,Windows,10,undefined,undefined,1536 x 864,1707 x 828
S012,51,Mannelijk,Links,6,12,left,no,150,leftarrow,452,true,focus,no,10744536,Chrome,109.0,Windows,10,undefined,undefined,1536 x 864,1707 x 828
S012,51,Mannelijk,Links,6,13,left,no,150,leftarrow,408,true,focus,no,10745725,Chrome,109.0,Windows,10,undefined,undefined,1536 x 864,1707 x 828
S012,51,Mannelijk,Links,6,14,right,no,150,rightarrow,444,true,focus,no,10746957,Chrome,109.0,Windows,10,undefined,undefined,1536 x 864,1707 x 828
S012,51,Mannelijk,Links,6,15,left,yes,150,leftarrow,423,false,focus,no,10748166,Chrome,109.0,Windows,10,undefined,undefined,1536 x 864,1707 x 828
S012,51,Mannelijk,Links,6,16,left,no,100,leftarrow,412,true,focus,no,10749374,Chrome,109.0,Windows,10,undefined,undefined,1536 x 864,1707 x 828
S012,51,Mannelijk,Links,6,17,left,yes,100,undefined,null,true,focus,no,10751433,Chrome,109.0,Windows,10,undefined,undefined,1536 x 864,1707 x 828
S012,51,Mannelijk,Links,6,18,right,no,150,rightarrow,550,true,focus,no,10752777,Chrome,109.0,Windows,10,undefined,undefined,1536 x 864,1707 x 828
S012,51,Mannelijk,Links,6,19,left,no,150,leftarrow,400,true,focus,no,10753950,Chrome,109.0,Windows,10,undefined,undefined,1536 x 864,1707 x 828
S012,51,Mannelijk,Links,6,20,right,no,150,rightarrow,412,true,focus,no,10755134,Chrome,109.0,Windows,10,undefined,undefined,1536 x 864,1707 x 828
S012,51,Mannelijk,Links,6,21,left,no,150,leftarrow,338,true,focus,no,10756271,Chrome,109.0,Windows,10,undefined,undefined,1536 x 864,1707 x 828
S012,51,Mannelijk,Links,6,22,right,no,150,rightarrow,338,true,focus,no,10757405,Chrome,109.0,Windows,10,undefined,undefined,1536 x 864,1707 x 828
S012,51,Mannelijk,Links,6,23,right,yes,150,rightarrow,376,false,focus,no,10758577,Chrome,109.0,Windows,10,undefined,undefined,1536 x 864,1707 x 828
S012,51,Mannelijk,Links,6,24,left,no,100,leftarrow,353,true,focus,no,10759717,Chrome,109.0,Windows,10,undefined,undefined,1536 x 864,1707 x 828
S012,51,Mannelijk,Links,6,25,left,no,100,leftarrow,450,true,focus,no,10760934,Chrome,109.0,Windows,10,undefined,undefined,1536 x 864,1707 x 828
S012,51,Mannelijk,Links,6,26,right,yes,100,undefined,null,true,focus,no,10762972,Chrome,109.0,Windows,10,undefined,undefined,1536 x 864,1707 x 828
S012,51,Mannelijk,Links,6,27,right,no,150,rightarrow,361,true,focus,no,10764124,Chrome,109.0,Windows,10,undefined,undefined,1536 x 864,1707 x 828
S012,51,Mannelijk,Links,6,28,right,no,150,rightarrow,416,true,focus,no,10765333,Chrome,109.0,Windows,10,undefined,undefined,1536 x 864,1707 x 828
S012,51,Mannelijk,Links,6,29,left,yes,150,undefined,null,true,focus,no,10767372,Chrome,109.0,Windows,10,undefined,undefined,1536 x 864,1707 x 828
S012,51,Mannelijk,Links,6,30,right,no,200,rightarrow,435,true,focus,no,10768589,Chrome,109.0,Windows,10,undefined,undefined,1536 x 864,1707 x 828
S012,51,Mannelijk,Links,6,31,left,no,200,leftarrow,434,true,focus,no,10769800,Chrome,109.0,Windows,10,undefined,undefined,1536 x 864,1707 x 828
S012,51,Mannelijk,Links,6,32,left,no,200,leftarrow,470,true,focus,no,10771067,Chrome,109.0,Windows,10,undefined,undefined,1536 x 864,1707 x 828
S012,51,Mannelijk,Links,6,33,right,yes,200,rightarrow,368,false,focus,no,10772221,Chrome,109.0,Windows,10,undefined,undefined,1536 x 864,1707 x 828
S012,51,Mannelijk,Links,6,34,left,no,150,leftarrow,486,true,focus,no,10773489,Chrome,109.0,Windows,10,undefined,undefined,1536 x 864,1707 x 828
S012,51,Mannelijk,Links,6,35,right,no,150,rightarrow,413,true,focus,no,10774705,Chrome,109.0,Windows,10,undefined,undefined,1536 x 864,1707 x 828
S012,51,Mannelijk,Links,6,36,right,no,150,rightarrow,443,true,focus,no,10775939,Chrome,109.0,Windows,10,undefined,undefined,1536 x 864,1707 x 828
S012,51,Mannelijk,Links,6,37,left,no,150,leftarrow,429,true,focus,no,10777154,Chrome,109.0,Windows,10,undefined,undefined,1536 x 864,1707 x 828
S012,51,Mannelijk,Links,6,38,left,no,150,leftarrow,420,true,focus,no,10778357,Chrome,109.0,Windows,10,undefined,undefined,1536 x 864,1707 x 828
S012,51,Mannelijk,Links,6,39,left,yes,150,leftarrow,387,false,focus,no,10779530,Chrome,109.0,Windows,10,undefined,undefined,1536 x 864,1707 x 828
