participantID,age,gender,handedness,block_i,trial_i,stim,signal,SSD,response,rt,correct,focus,Fullscreen,time_elapsed,browser_name,browser_version,os_name,os_version,tablet,mobile,screen_resolution,window_resolution
S014,48,Mannelijk,Rechts,0,1,left,no,200,leftarrow,502,true,focus,yes,531624,Chrome,111.0,macOS,10.15.7,undefined,undefined,1440 x 900,1440 x 900
S014,48,Mannelijk,Rechts,0,2,right,yes,200,rightarrow,567,false,focus,yes,533723,Chrome,111.0,macOS,10.15.7,undefined,undefined,1440 x 900,1440 x 900
S014,48,Mannelijk,Rechts,0,3,right,no,150,rightarrow,632,true,focus,yes,535878,Chrome,111.0,macOS,10.15.7,undefined,undefined,1440 x 900,1440 x 900
S014,48,Mannelijk,Rechts,0,4,right,no,150,leftarrow,474,false,focus,yes,537872,Chrome,111.0,macOS,10.15.7,undefined,undefined,1440 x 900,1440 x 900
S014,48,Mannelijk,Rechts,0,5,left,no,150,leftarrow,874,true,focus,yes,540280,Chrome,111.0,macOS,10.15.7,undefined,undefined,1440 x 900,1440 x 900
S014,48,Mannelijk,Rechts,0,6,left,no,150,leftarrow,556,true,focus,yes,542371,Chrome,111.0,macOS,10.15.7,undefined,undefined,1440 x 900,1440 x 900
S014,48,Mannelijk,Rechts,0,7,right,no,150,rightarrow,543,true,focus,yes,544446,Chrome,111.0,macOS,10.15.7,undefined,undefined,1440 x 900,1440 x 900
S014,48,Mannelijk,Rechts,0,8,left,yes,150,undefined,null,true,focus,yes,547233,Chrome,111.0,macOS,10.15.7,undefined,undefined,1440 x 900,1440 x 900
S014,48,Mannelijk,Rechts,1,1,right,no,200,rightarrow,476,true,focus,yes,568157,Chrome,111.0,macOS,10.15.7,undefined,undefined,1440 x 900,1440 x 900
S014,48,Mannelijk,Rechts,1,2,right,no,200,rightarrow,559,true,focus,yes,569479,Chrome,111.0,macOS,10.15.7,undefined,undefined,1440 x 900,1440 x 900
S014,48,Mannelijk,Rechts,1,3,right,yes,200,rightarrow,495,false,focus,yes,570738,Chrome,111.0,macOS,10.15.7,undefined,undefined,1440 x 900,1440 x 900
S014,48,Mannelijk,Rechts,1,4,left,yes,150,undefined,null,true,focus,yes,572756,Chrome,111.0,macOS,10.15.7,undefined,undefined,1440 x 900,1440 x 900
S014,48,Mannelijk,Rechts,1,5,left,no,200,leftarrow,539,true,focus,yes,574064,Chrome,111.0,macOS,10.15.7,undefined,undefined,1440 x 900,1440 x 900
S014,48,Mannelijk,Rechts,1,6,left,no,200,leftarrow,548,true,focus,yes,575377,Chrome,111.0,macOS,10.15.7,undefined,undefined,1440 x 900,1440 x 900
S014,48,Mannelijk,Rechts,1,7,right,no,200,rightarrow,456,true,focus,yes,576596,Chrome,111.0,macOS,10.15.7,undefined,undefined,1440 x 900,1440 x 900
S014,48,Mannelijk,Rechts,1,8,left,no,200,leftarrow,727,true,focus,yes,578082,Chrome,111.0,macOS,10.15.7,undefined,undefined,1440 x 900,1440 x 900
S014,48,Mannelijk,Rechts,1,9,right,yes,200,undefined,null,true,focus,yes,580101,Chrome,111.0,macOS,10.15.7,undefined,undefined,1440 x 900,1440 x 900
S014,48,Mannelijk,Rechts,1,10,left,no,250,leftarrow,387,true,focus,yes,581256,Chrome,111.0,macOS,10.15.7,undefined,undefined,1440 x 900,1440 x 900
S014,48,Mannelijk,Rechts,1,11,right,no,250,rightarrow,511,true,focus,yes,582528,Chrome,111.0,macOS,10.15.7,undefined,undefined,1440 x 900,1440 x 900
S014,48,Mannelijk,Rechts,1,12,left,no,250,leftarrow,421,true,focus,yes,583713,Chrome,111.0,macOS,10.15.7,undefined,undefined,1440 x 900,1440 x 900
S014,48,Mannelijk,Rechts,1,13,right,no,250,rightarrow,659,true,focus,yes,585133,Chrome,111.0,macOS,10.15.7,undefined,undefined,1440 x 900,1440 x 900
S014,48,Mannelijk,Rechts,1,14,left,yes,250,undefined,null,true,focus,yes,587156,Chrome,111.0,macOS,10.15.7,undefined,undefined,1440 x 900,1440 x 900
S014,48,Mannelijk,Rechts,1,15,right,no,300,rightarrow,374,true,focus,yes,588300,Chrome,111.0,macOS,10.15.7,undefined,undefined,1440 x 900,1440 x 900
S014,48,Mannelijk,Rechts,1,16,left,no,300,leftarrow,428,true,focus,yes,589489,Chrome,111.0,macOS,10.15.7,undefined,undefined,1440 x 900,1440 x 900
S014,48,Mannelijk,Rechts,1,17,right,no,300,rightarrow,358,true,focus,yes,590607,Chrome,111.0,macOS,10.15.7,undefined,undefined,1440 x 900,1440 x 900
S014,48,Mannelijk,Rechts,1,18,right,yes,300,undefined,null,true,focus,yes,592629,Chrome,111.0,macOS,10.15.7,undefined,undefined,1440 x 900,1440 x 900
S014,48,Mannelijk,Rechts,1,19,left,yes,350,leftarrow,428,false,focus,yes,593827,Chrome,111.0,macOS,10.15.7,undefined,undefined,1440 x 900,1440 x 900
S014,48,Mannelijk,Rechts,1,20,right,no,300,rightarrow,459,true,focus,yes,595049,Chrome,111.0,macOS,10.15.7,undefined,undefined,1440 x 900,1440 x 900
S014,48,Mannelijk,Rechts,1,21,left,no,300,leftarrow,689,true,focus,yes,596500,Chrome,111.0,macOS,10.15.7,undefined,undefined,1440 x 900,1440 x 900
S014,48,Mannelijk,Rechts,1,22,right,no,300,rightarrow,377,true,focus,yes,597633,Chrome,111.0,macOS,10.15.7,undefined,undefined,1440 x 900,1440 x 900
S014,48,Mannelijk,Rechts,1,23,left,no,300,leftarrow,519,true,focus,yes,598917,Chrome,111.0,macOS,10.15.7,undefined,undefined,1440 x 900,1440 x 900
S014,48,Mannelijk,Rechts,1,24,left,no,300,leftarrow,718,true,focus,yes,600397,Chrome,111.0,macOS,10.15.7,undefined,undefined,1440 x 900,1440 x 900
S014,48,Mannelijk,Rechts,1,25,right,no,300,rightarrow,387,true,focus,yes,601552,Chrome,111.0,macOS,10.15.7,undefined,undefined,1440 x 900,1440 x 900
S014,48,Mannelijk,Rechts,1,26,left,no,300,leftarrow,661,true,focus,yes,602978,Chrome,111.0,macOS,10.15.7,undefined,undefined,1440 x 900,1440 x 900
S014,48,Mannelijk,Rechts,1,27,right,no,300,rightarrow,797,true,focus,yes,604539,Chrome,111.0,macOS,10.15.7,undefined,undefined,1440 x 900,1440 x 900
S014,48,Mannelijk,Rechts,1,28,left,no,300,leftarrow,422,true,focus,yes,605723,Chrome,111.0,macOS,10.15.7,undefined,undefined,1440 x 900,1440 x 900
S014,48,Mannelijk,Rechts,1,29,right,yes,300,rightarrow,461,false,focus,yes,606942,Chrome,111.0,macOS,10.15.7,undefined,undefined,1440 x 900,1440 x 900
S014,48,Mannelijk,Rechts,1,30,left,no,250,leftarrow,474,true,focus,yes,608182,Chrome,111.0,macOS,10.15.7,undefined,undefined,1440 x 900,1440 x 900
S014,48,Mannelijk,Rechts,1,31,left,yes,250,undefined,null,true,focus,yes,610205,Chrome,111.0,macOS,10.15.7,undefined,undefined,1440 x 900,1440 x 900
S014,48,Mannelijk,Rechts,1,32,right,no,300,rightarrow,337,true,focus,yes,611310,Chrome,111.0,macOS,10.15.7,undefined,undefined,1440 x 900,1440 x 900
S014,48,Mannelijk,Rechts,1,33,left,no,300,leftarrow,476,true,focus,yes,612553,Chrome,111.0,macOS,10.15.7,undefined,undefined,1440 x 900,1440 x 900
S014,48,Mannelijk,Rechts,1,34,right,no,300,rightarrow,403,true,focus,yes,613716,Chrome,111.0,macOS,10.15.7,undefined,undefined,1440 x 900,1440 x 900
S014,48,Mannelijk,Rechts,1,35,right,no,300,rightarrow,683,true,focus,yes,615159,Chrome,111.0,macOS,10.15.7,undefined,undefined,1440 x 900,1440 x 900
S014,48,Mannelijk,Rechts,1,36,left,yes,300,leftarrow,459,false,focus,yes,616385,Chrome,111.0,macOS,10.15.7,undefined,undefined,1440 x 900,1440 x 900
S014,48,Mannelijk,Rechts,1,37,right,no,250,rightarrow,544,true,focus,yes,617694,Chrome,111.0,macOS,10.15.7,undefined,undefined,1440 x 900,1440 x 900
S014,48,Mannelijk,Rechts,1,38,right,yes,250,undefined,null,true,focus,yes,619718,Chrome,111.0,macOS,10.15.7,undefined,undefined,1440 x 900,1440 x 900
S014,48,Mannelijk,Rechts,1,39,left,no,300,leftarrow,450,true,focus,yes,620939,Chrome,111.0,macOS,10.15.7,undefined,undefined,1440 x 900,1440 x 900
S014,48,Mannelijk,Rechts,1,40,left,no,300,leftarrow,529,true,focus,yes,622230,Chrome,111.0,macOS,10.15.7,undefined,undefined,1440 x 900,1440 x 900
S014,48,Mannelijk,Rechts,1,41,right,no,300,rightarrow,480,true,focus,yes,623477,Chrome,111.0,macOS,10.15.7,undefined,undefined,1440 x 900,1440 x 900
S014,48,Mannelijk,Rechts,1,42,right,no,300,rightarrow,451,true,focus,yes,624688,Chrome,111.0,macOS,10.15.7,undefined,undefined,1440 x 900,1440 x 900
S014,48,Mannelijk,Rechts,1,43,left,no,300,leftarrow,564,true,focus,yes,626017,Chrome,111.0,macOS,10.15.7,undefined,undefined,1440 x 900,1440 x 900
S014,48,Mannelijk,Rechts,1,44,left,no,300,leftarrow,600,true,focus,yes,627381,Chrome,111.0,macOS,10.15.7,undefined,undefined,1440 x 900,1440 x 900
S014,48,Mannelijk,Rechts,1,45,left,yes,300,leftarrow,487,false,focus,yes,628637,Chrome,111.0,macOS,10.15.7,undefined,undefined,1440 x 900,1440 x 900
S014,48,Mannelijk,Rechts,1,46,right,no,250,rightarrow,673,true,focus,yes,630070,Chrome,111.0,macOS,10.15.7,undefined,undefined,1440 x 900,1440 x 900
S014,48,Mannelijk,Rechts,1,47,left,no,250,leftarrow,534,true,focus,yes,631367,Chrome,111.0,macOS,10.15.7,undefined,undefined,1440 x 900,1440 x 900
S014,48,Mannelijk,Rechts,1,48,right,yes,250,undefined,null,true,focus,yes,633390,Chrome,111.0,macOS,10.15.7,undefined,undefined,1440 x 900,1440 x 900
S014,48,Mannelijk,Rechts,1,49,right,no,300,rightarrow,506,true,focus,yes,634664,Chrome,111.0,macOS,10.15.7,undefined,undefined,1440 x 900,1440 x 900
S014,48,Mannelijk,Rechts,1,50,left,no,300,leftarrow,408,true,focus,yes,635838,Chrome,111.0,macOS,10.15.7,undefined,undefined,1440 x 900,1440 x 900
S014,48,Mannelijk,Rechts,1,51,left,no,300,leftarrow,416,true,focus,yes,637022,Chrome,111.0,macOS,10.15.7,undefined,undefined,1440 x 900,1440 x 900
S014,48,Mannelijk,Rechts,1,52,right,yes,300,rightarrow,417,false,focus,yes,638207,Chrome,111.0,macOS,10.15.7,undefined,undefined,1440 x 900,1440 x 900
S014,48,Mannelijk,Rechts,1,53,left,no,250,leftarrow,696,true,focus,yes,639669,Chrome,111.0,macOS,10.15.7,undefined,undefined,1440 x 900,1440 x 900
S014,48,Mannelijk,Rechts,1,54,right,no,250,rightarrow,579,true,focus,yes,641009,Chrome,111.0,macOS,10.15.7,undefined,undefined,1440 x 900,1440 x 900
S014,48,Mannelijk,Rechts,1,55,left,yes,250,undefined,null,true,focus,yes,643026,Chrome,111.0,macOS,10.15.7,undefined,undefined,1440 x 900,1440 x 900
S014,48,Mannelijk,Rechts,1,56,right,no,300,rightarrow,457,true,focus,yes,644251,Chrome,111.0,macOS,10.15.7,undefined,undefined,1440 x 900,1440 x 900
S014,48,Mannelijk,Rechts,1,57,left,no,300,leftarrow,483,true,focus,yes,645497,Chrome,111.0,macOS,10.15.7,undefined,undefined,1440 x 900,1440 x 900
S014,48,Mannelijk,Rechts,1,58,right,no,300,rightarrow,505,true,focus,yes,646766,Chrome,111.0,macOS,10.15.7,undefined,undefined,1440 x 900,1440 x 900
S014,48,Mannelijk,Rechts,1,59,right,no,300,rightarrow,473,true,focus,yes,648008,Chrome,111.0,macOS,10.15.7,undefined,undefined,1440 x 900,1440 x 900
S014,48,Mannelijk,Rechts,1,60,right,no,300,rightarrow,486,true,focus,yes,649259,Chrome,111.0,macOS,10.15.7,undefined,undefined,1440 x 900,1440 x 900
S014,48,Mannelijk,Rechts,1,61,right,yes,300,undefined,null,true,focus,yes,651276,Chrome,111.0,macOS,10.15.7,undefined,undefined,1440 x 900,1440 x 900
S014,48,Mannelijk,Rechts,1,62,left,no,350,leftarrow,410,true,focus,yes,652452,Chrome,111.0,macOS,10.15.7,undefined,undefined,1440 x 900,1440 x 900
S014,48,Mannelijk,Rechts,1,63,left,no,350,leftarrow,407,true,focus,yes,653622,Chrome,111.0,macOS,10.15.7,undefined,undefined,1440 x 900,1440 x 900
S014,48,Mannelijk,Rechts,1,64,left,yes,350,undefined,null,true,focus,yes,655639,Chrome,111.0,macOS,10.15.7,undefined,undefined,1440 x 900,1440 x 900
S014,48,Mannelijk,Rechts,1,65,right,no,400,rightarrow,469,true,focus,yes,656878,Chrome,111.0,macOS,10.15.7,undefined,undefined,1440 x 900,1440 x 900
S014,48,Mannelijk,Rechts,1,66,left,no,400,leftarrow,302,true,focus,yes,657945,Chrome,111.0,macOS,10.15.7,undefined,undefined,1440 x 900,1440 x 900
S014,48,Mannelijk,Rechts,1,67,right,no,400,rightarrow,411,true,focus,yes,659121,Chrome,111.0,macOS,10.15.7,undefined,undefined,1440 x 900,1440 x 900
S014,48,Mannelijk,Rechts,1,68,left,no,400,leftarrow,502,true,focus,yes,660384,Chrome,111.0,macOS,10.15.7,undefined,undefined,1440 x 900,1440 x 900
S014,48,Mannelijk,Rechts,1,69,right,no,400,rightarrow,445,true,focus,yes,661595,Chrome,111.0,macOS,10.15.7,undefined,undefined,1440 x 900,1440 x 900
S014,48,Mannelijk,Rechts,1,70,left,no,400,leftarrow,716,true,focus,yes,663074,Chrome,111.0,macOS,10.15.7,undefined,undefined,1440 x 900,1440 x 900
S014,48,Mannelijk,Rechts,1,71,right,yes,400,rightarrow,552,false,focus,yes,664386,Chrome,111.0,macOS,10.15.7,undefined,undefined,1440 x 900,1440 x 900
S014,48,Mannelijk,Rechts,1,72,left,yes,350,undefined,null,true,focus,yes,666407,Chrome,111.0,macOS,10.15.7,undefined,undefined,1440 x 900,1440 x 900
S014,48,Mannelijk,Rechts,1,73,left,yes,400,leftarrow,463,false,focus,yes,667642,Chrome,111.0,macOS,10.15.7,undefined,undefined,1440 x 900,1440 x 900
S014,48,Mannelijk,Rechts,1,74,right,no,350,rightarrow,590,true,focus,yes,668992,Chrome,111.0,macOS,10.15.7,undefined,undefined,1440 x 900,1440 x 900
S014,48,Mannelijk,Rechts,1,75,right,no,350,rightarrow,456,true,focus,yes,670214,Chrome,111.0,macOS,10.15.7,undefined,undefined,1440 x 900,1440 x 900
S014,48,Mannelijk,Rechts,1,76,right,yes,350,undefined,null,true,focus,yes,672226,Chrome,111.0,macOS,10.15.7,undefined,undefined,1440 x 900,1440 x 900
S014,48,Mannelijk,Rechts,1,77,left,no,400,leftarrow,458,true,focus,yes,673449,Chrome,111.0,macOS,10.15.7,undefined,undefined,1440 x 900,1440 x 900
S014,48,Mannelijk,Rechts,1,78,left,no,400,leftarrow,571,true,focus,yes,674787,Chrome,111.0,macOS,10.15.7,undefined,undefined,1440 x 900,1440 x 900
S014,48,Mannelijk,Rechts,1,79,right,no,400,rightarrow,702,true,focus,yes,676253,Chrome,111.0,macOS,10.15.7,undefined,undefined,1440 x 900,1440 x 900
S014,48,Mannelijk,Rechts,1,80,left,no,400,leftarrow,533,true,focus,yes,677548,Chrome,111.0,macOS,10.15.7,undefined,undefined,1440 x 900,1440 x 900
S014,48,Mannelijk,Rechts,1,81,right,no,400,leftarrow,628,false,focus,yes,678939,Chrome,111.0,macOS,10.15.7,undefined,undefined,1440 x 900,1440 x 900
S014,48,Mannelijk,Rechts,1,82,right,no,400,rightarrow,479,true,focus,yes,680182,Chrome,111.0,macOS,10.15.7,undefined,undefined,1440 x 900,1440 x 900
S014,48,Mannelijk,Rechts,1,83,right,no,400,rightarrow,400,true,focus,yes,681344,Chrome,111.0,macOS,10.15.7,undefined,undefined,1440 x 900,1440 x 900
S014,48,Mannelijk,Rechts,1,84,left,no,400,leftarrow,579,true,focus,yes,682690,Chrome,111.0,macOS,10.15.7,undefined,undefined,1440 x 900,1440 x 900
S014,48,Mannelijk,Rechts,1,85,left,no,400,leftarrow,456,true,focus,yes,683907,Chrome,111.0,macOS,10.15.7,undefined,undefined,1440 x 900,1440 x 900
S014,48,Mannelijk,Rechts,1,86,left,yes,400,undefined,null,true,focus,yes,685928,Chrome,111.0,macOS,10.15.7,undefined,undefined,1440 x 900,1440 x 900
S014,48,Mannelijk,Rechts,1,87,right,yes,450,rightarrow,398,false,focus,yes,687097,Chrome,111.0,macOS,10.15.7,undefined,undefined,1440 x 900,1440 x 900
S014,48,Mannelijk,Rechts,1,88,left,no,400,leftarrow,502,true,focus,yes,688366,Chrome,111.0,macOS,10.15.7,undefined,undefined,1440 x 900,1440 x 900
S014,48,Mannelijk,Rechts,1,89,left,no,400,leftarrow,529,true,focus,yes,689656,Chrome,111.0,macOS,10.15.7,undefined,undefined,1440 x 900,1440 x 900
S014,48,Mannelijk,Rechts,1,90,right,yes,400,rightarrow,537,false,focus,yes,690959,Chrome,111.0,macOS,10.15.7,undefined,undefined,1440 x 900,1440 x 900
S014,48,Mannelijk,Rechts,1,91,left,no,350,leftarrow,582,true,focus,yes,692308,Chrome,111.0,macOS,10.15.7,undefined,undefined,1440 x 900,1440 x 900
S014,48,Mannelijk,Rechts,1,92,left,no,350,leftarrow,435,true,focus,yes,693506,Chrome,111.0,macOS,10.15.7,undefined,undefined,1440 x 900,1440 x 900
S014,48,Mannelijk,Rechts,1,93,right,no,350,rightarrow,490,true,focus,yes,694761,Chrome,111.0,macOS,10.15.7,undefined,undefined,1440 x 900,1440 x 900
S014,48,Mannelijk,Rechts,1,94,right,no,350,rightarrow,757,true,focus,yes,696280,Chrome,111.0,macOS,10.15.7,undefined,undefined,1440 x 900,1440 x 900
S014,48,Mannelijk,Rechts,1,95,left,yes,350,leftarrow,398,false,focus,yes,697441,Chrome,111.0,macOS,10.15.7,undefined,undefined,1440 x 900,1440 x 900
S014,48,Mannelijk,Rechts,1,96,right,no,300,rightarrow,721,true,focus,yes,698924,Chrome,111.0,macOS,10.15.7,undefined,undefined,1440 x 900,1440 x 900
S014,48,Mannelijk,Rechts,1,97,left,no,300,leftarrow,533,true,focus,yes,700216,Chrome,111.0,macOS,10.15.7,undefined,undefined,1440 x 900,1440 x 900
S014,48,Mannelijk,Rechts,1,98,right,no,300,rightarrow,524,true,focus,yes,701507,Chrome,111.0,macOS,10.15.7,undefined,undefined,1440 x 900,1440 x 900
S014,48,Mannelijk,Rechts,1,99,left,no,300,leftarrow,656,true,focus,yes,702927,Chrome,111.0,macOS,10.15.7,undefined,undefined,1440 x 900,1440 x 900
S014,48,Mannelijk,Rechts,1,100,right,no,300,rightarrow,443,true,focus,yes,704134,Chrome,111.0,macOS,10.15.7,undefined,undefined,1440 x 900,1440 x 900
S014,48,Mannelijk,Rechts,1,101,left,no,300,leftarrow,464,true,focus,yes,705360,Chrome,111.0,macOS,10.15.7,undefined,undefined,1440 x 900,1440 x 900
S014,48,Mannelijk,Rechts,1,102,right,no,300,rightarrow,649,true,focus,yes,706773,Chrome,111.0,macOS,10.15.7,undefined,undefined,1440 x 900,1440 x 900
S014,48,Mannelijk,Rechts,1,103,left,yes,300,undefined,null,true,focus,yes,708792,Chrome,111.0,macOS,10.15.7,undefined,undefined,1440 x 900,1440 x 900
S014,48,Mannelijk,Rechts,1,104,right,yes,350,rightarrow,434,false,focus,yes,709998,Chrome,111.0,macOS,10.15.7,undefined,undefined,1440 x 900,1440 x 900
S014,48,Mannelijk,Rechts,1,105,right,no,300,rightarrow,897,true,focus,yes,711656,Chrome,111.0,macOS,10.15.7,undefined,undefined,1440 x 900,1440 x 900
S014,48,Mannelijk,Rechts,1,106,right,yes,300,undefined,null,true,focus,yes,713679,Chrome,111.0,macOS,10.15.7,undefined,undefined,1440 x 900,1440 x 900
S014,48,Mannelijk,Rechts,1,107,left,no,350,leftarrow,421,true,focus,yes,714861,Chrome,111.0,macOS,10.15.7,undefined,undefined,1440 x 900,1440 x 900
S014,48,Mannelijk,Rechts,1,108,right,no,350,rightarrow,705,true,focus,yes,716330,Chrome,111.0,macOS,10.15.7,undefined,undefined,1440 x 900,1440 x 900
S014,48,Mannelijk,Rechts,1,109,left,yes,350,leftarrow,386,false,focus,yes,717483,Chrome,111.0,macOS,10.15.7,undefined,undefined,1440 x 900,1440 x 900
S014,48,Mannelijk,Rechts,1,110,left,no,300,leftarrow,755,true,focus,yes,719003,Chrome,111.0,macOS,10.15.7,undefined,undefined,1440 x 900,1440 x 900
S014,48,Mannelijk,Rechts,1,111,right,no,300,rightarrow,509,true,focus,yes,720277,Chrome,111.0,macOS,10.15.7,undefined,undefined,1440 x 900,1440 x 900
S014,48,Mannelijk,Rechts,1,112,left,no,300,leftarrow,573,true,focus,yes,721613,Chrome,111.0,macOS,10.15.7,undefined,undefined,1440 x 900,1440 x 900
S014,48,Mannelijk,Rechts,1,113,left,no,300,leftarrow,560,true,focus,yes,722946,Chrome,111.0,macOS,10.15.7,undefined,undefined,1440 x 900,1440 x 900
S014,48,Mannelijk,Rechts,1,114,left,no,300,leftarrow,517,true,focus,yes,724239,Chrome,111.0,macOS,10.15.7,undefined,undefined,1440 x 900,1440 x 900
S014,48,Mannelijk,Rechts,1,115,left,yes,300,undefined,null,true,focus,yes,726253,Chrome,111.0,macOS,10.15.7,undefined,undefined,1440 x 900,1440 x 900
S014,48,Mannelijk,Rechts,1,116,right,no,350,rightarrow,407,true,focus,yes,727426,Chrome,111.0,macOS,10.15.7,undefined,undefined,1440 x 900,1440 x 900
S014,48,Mannelijk,Rechts,1,117,right,yes,350,rightarrow,420,false,focus,yes,728609,Chrome,111.0,macOS,10.15.7,undefined,undefined,1440 x 900,1440 x 900
S014,48,Mannelijk,Rechts,1,118,right,no,300,rightarrow,766,true,focus,yes,730135,Chrome,111.0,macOS,10.15.7,undefined,undefined,1440 x 900,1440 x 900
S014,48,Mannelijk,Rechts,1,119,right,no,300,rightarrow,432,true,focus,yes,731328,Chrome,111.0,macOS,10.15.7,undefined,undefined,1440 x 900,1440 x 900
S014,48,Mannelijk,Rechts,1,120,left,no,300,leftarrow,434,true,focus,yes,732534,Chrome,111.0,macOS,10.15.7,undefined,undefined,1440 x 900,1440 x 900
S014,48,Mannelijk,Rechts,1,121,right,no,300,rightarrow,653,true,focus,yes,733950,Chrome,111.0,macOS,10.15.7,undefined,undefined,1440 x 900,1440 x 900
S014,48,Mannelijk,Rechts,1,122,left,no,300,leftarrow,619,true,focus,yes,735327,Chrome,111.0,macOS,10.15.7,undefined,undefined,1440 x 900,1440 x 900
S014,48,Mannelijk,Rechts,1,123,right,yes,300,undefined,null,true,focus,yes,737361,Chrome,111.0,macOS,10.15.7,undefined,undefined,1440 x 900,1440 x 900
S014,48,Mannelijk,Rechts,1,124,right,no,350,rightarrow,526,true,focus,yes,738667,Chrome,111.0,macOS,10.15.7,undefined,undefined,1440 x 900,1440 x 900
S014,48,Mannelijk,Rechts,1,125,left,yes,350,undefined,null,true,focus,yes,740689,Chrome,111.0,macOS,10.15.7,undefined,undefined,1440 x 900,1440 x 900
S014,48,Mannelijk,Rechts,1,126,right,no,400,rightarrow,391,true,focus,yes,741848,Chrome,111.0,macOS,10.15.7,undefined,undefined,1440 x 900,1440 x 900
S014,48,Mannelijk,Rechts,1,127,left,no,400,leftarrow,488,true,focus,yes,743096,Chrome,111.0,macOS,10.15.7,undefined,undefined,1440 x 900,1440 x 900
S014,48,Mannelijk,Rechts,1,128,left,no,400,leftarrow,515,true,focus,yes,744381,Chrome,111.0,macOS,10.15.7,undefined,undefined,1440 x 900,1440 x 900
S014,48,Mannelijk,Rechts,2,1,right,no,400,rightarrow,442,true,focus,yes,763544,Chrome,111.0,macOS,10.15.7,undefined,undefined,1440 x 900,1440 x 900
S014,48,Mannelijk,Rechts,2,2,right,no,400,rightarrow,520,true,focus,yes,764825,Chrome,111.0,macOS,10.15.7,undefined,undefined,1440 x 900,1440 x 900
S014,48,Mannelijk,Rechts,2,3,left,no,400,leftarrow,410,true,focus,yes,766006,Chrome,111.0,macOS,10.15.7,undefined,undefined,1440 x 900,1440 x 900
S014,48,Mannelijk,Rechts,2,4,left,no,400,leftarrow,461,true,focus,yes,767240,Chrome,111.0,macOS,10.15.7,undefined,undefined,1440 x 900,1440 x 900
S014,48,Mannelijk,Rechts,2,5,left,no,400,leftarrow,615,true,focus,yes,768613,Chrome,111.0,macOS,10.15.7,undefined,undefined,1440 x 900,1440 x 900
S014,48,Mannelijk,Rechts,2,6,left,yes,400,undefined,null,true,focus,yes,770634,Chrome,111.0,macOS,10.15.7,undefined,undefined,1440 x 900,1440 x 900
S014,48,Mannelijk,Rechts,2,7,right,no,450,rightarrow,376,true,focus,yes,771783,Chrome,111.0,macOS,10.15.7,undefined,undefined,1440 x 900,1440 x 900
S014,48,Mannelijk,Rechts,2,8,right,yes,450,rightarrow,510,false,focus,yes,773056,Chrome,111.0,macOS,10.15.7,undefined,undefined,1440 x 900,1440 x 900
S014,48,Mannelijk,Rechts,2,9,right,yes,400,undefined,null,true,focus,yes,775070,Chrome,111.0,macOS,10.15.7,undefined,undefined,1440 x 900,1440 x 900
S014,48,Mannelijk,Rechts,2,10,left,no,450,leftarrow,470,true,focus,yes,776316,Chrome,111.0,macOS,10.15.7,undefined,undefined,1440 x 900,1440 x 900
S014,48,Mannelijk,Rechts,2,11,left,no,450,leftarrow,654,true,focus,yes,777738,Chrome,111.0,macOS,10.15.7,undefined,undefined,1440 x 900,1440 x 900
S014,48,Mannelijk,Rechts,2,12,left,no,450,leftarrow,539,true,focus,yes,779052,Chrome,111.0,macOS,10.15.7,undefined,undefined,1440 x 900,1440 x 900
S014,48,Mannelijk,Rechts,2,13,right,no,450,rightarrow,684,true,focus,yes,780511,Chrome,111.0,macOS,10.15.7,undefined,undefined,1440 x 900,1440 x 900
S014,48,Mannelijk,Rechts,2,14,right,no,450,leftarrow,608,false,focus,yes,781878,Chrome,111.0,macOS,10.15.7,undefined,undefined,1440 x 900,1440 x 900
S014,48,Mannelijk,Rechts,2,15,left,yes,450,leftarrow,662,false,focus,yes,783300,Chrome,111.0,macOS,10.15.7,undefined,undefined,1440 x 900,1440 x 900
S014,48,Mannelijk,Rechts,2,16,right,no,400,rightarrow,710,true,focus,yes,784772,Chrome,111.0,macOS,10.15.7,undefined,undefined,1440 x 900,1440 x 900
S014,48,Mannelijk,Rechts,2,17,right,no,400,rightarrow,713,true,focus,yes,786250,Chrome,111.0,macOS,10.15.7,undefined,undefined,1440 x 900,1440 x 900
S014,48,Mannelijk,Rechts,2,18,left,yes,400,leftarrow,489,false,focus,yes,787519,Chrome,111.0,macOS,10.15.7,undefined,undefined,1440 x 900,1440 x 900
S014,48,Mannelijk,Rechts,2,19,left,no,350,leftarrow,790,true,focus,yes,789069,Chrome,111.0,macOS,10.15.7,undefined,undefined,1440 x 900,1440 x 900
S014,48,Mannelijk,Rechts,2,20,left,no,350,leftarrow,620,true,focus,yes,790455,Chrome,111.0,macOS,10.15.7,undefined,undefined,1440 x 900,1440 x 900
S014,48,Mannelijk,Rechts,2,21,right,no,350,rightarrow,533,true,focus,yes,791751,Chrome,111.0,macOS,10.15.7,undefined,undefined,1440 x 900,1440 x 900
S014,48,Mannelijk,Rechts,2,22,right,no,350,rightarrow,651,true,focus,yes,793166,Chrome,111.0,macOS,10.15.7,undefined,undefined,1440 x 900,1440 x 900
S014,48,Mannelijk,Rechts,2,23,right,yes,350,undefined,null,true,focus,yes,795187,Chrome,111.0,macOS,10.15.7,undefined,undefined,1440 x 900,1440 x 900
S014,48,Mannelijk,Rechts,2,24,left,no,400,leftarrow,464,true,focus,yes,796418,Chrome,111.0,macOS,10.15.7,undefined,undefined,1440 x 900,1440 x 900
S014,48,Mannelijk,Rechts,2,25,left,no,400,leftarrow,646,true,focus,yes,797835,Chrome,111.0,macOS,10.15.7,undefined,undefined,1440 x 900,1440 x 900
S014,48,Mannelijk,Rechts,2,26,right,no,400,rightarrow,550,true,focus,yes,799153,Chrome,111.0,macOS,10.15.7,undefined,undefined,1440 x 900,1440 x 900
S014,48,Mannelijk,Rechts,2,27,left,yes,400,leftarrow,576,false,focus,yes,800491,Chrome,111.0,macOS,10.15.7,undefined,undefined,1440 x 900,1440 x 900
S014,48,Mannelijk,Rechts,2,28,right,no,350,rightarrow,744,true,focus,yes,801995,Chrome,111.0,macOS,10.15.7,undefined,undefined,1440 x 900,1440 x 900
S014,48,Mannelijk,Rechts,2,29,left,no,350,leftarrow,474,true,focus,yes,803236,Chrome,111.0,macOS,10.15.7,undefined,undefined,1440 x 900,1440 x 900
S014,48,Mannelijk,Rechts,2,30,left,no,350,leftarrow,486,true,focus,yes,804482,Chrome,111.0,macOS,10.15.7,undefined,undefined,1440 x 900,1440 x 900
S014,48,Mannelijk,Rechts,2,31,right,no,350,rightarrow,487,true,focus,yes,805739,Chrome,111.0,macOS,10.15.7,undefined,undefined,1440 x 900,1440 x 900
S014,48,Mannelijk,Rechts,2,32,right,yes,350,undefined,null,true,focus,yes,807779,Chrome,111.0,macOS,10.15.7,undefined,undefined,1440 x 900,1440 x 900
S014,48,Mannelijk,Rechts,2,33,left,yes,400,leftarrow,492,false,focus,yes,809043,Chrome,111.0,macOS,10.15.7,undefined,undefined,1440 x 900,1440 x 900
S014,48,Mannelijk,Rechts,2,34,right,no,350,rightarrow,631,true,focus,yes,810438,Chrome,111.0,macOS,10.15.7,undefined,undefined,1440 x 900,1440 x 900
S014,48,Mannelijk,Rechts,2,35,right,no,350,rightarrow,749,true,focus,yes,811948,Chrome,111.0,macOS,10.15.7,undefined,undefined,1440 x 900,1440 x 900
S014,48,Mannelijk,Rechts,2,36,left,no,350,leftarrow,788,true,focus,yes,813513,Chrome,111.0,macOS,10.15.7,undefined,undefined,1440 x 900,1440 x 900
S014,48,Mannelijk,Rechts,2,37,left,no,350,leftarrow,621,true,focus,yes,814895,Chrome,111.0,macOS,10.15.7,undefined,undefined,1440 x 900,1440 x 900
S014,48,Mannelijk,Rechts,2,38,right,no,350,rightarrow,963,true,focus,yes,816622,Chrome,111.0,macOS,10.15.7,undefined,undefined,1440 x 900,1440 x 900
S014,48,Mannelijk,Rechts,2,39,right,yes,350,rightarrow,491,false,focus,yes,817878,Chrome,111.0,macOS,10.15.7,undefined,undefined,1440 x 900,1440 x 900
S014,48,Mannelijk,Rechts,2,40,left,no,300,leftarrow,431,true,focus,yes,819074,Chrome,111.0,macOS,10.15.7,undefined,undefined,1440 x 900,1440 x 900
S014,48,Mannelijk,Rechts,2,41,right,no,300,rightarrow,625,true,focus,yes,820470,Chrome,111.0,macOS,10.15.7,undefined,undefined,1440 x 900,1440 x 900
S014,48,Mannelijk,Rechts,2,42,left,no,300,leftarrow,519,true,focus,yes,821754,Chrome,111.0,macOS,10.15.7,undefined,undefined,1440 x 900,1440 x 900
S014,48,Mannelijk,Rechts,2,43,right,yes,300,undefined,null,true,focus,yes,823768,Chrome,111.0,macOS,10.15.7,undefined,undefined,1440 x 900,1440 x 900
S014,48,Mannelijk,Rechts,2,44,right,no,350,rightarrow,582,true,focus,yes,825115,Chrome,111.0,macOS,10.15.7,undefined,undefined,1440 x 900,1440 x 900
S014,48,Mannelijk,Rechts,2,45,left,no,350,leftarrow,644,true,focus,yes,826527,Chrome,111.0,macOS,10.15.7,undefined,undefined,1440 x 900,1440 x 900
S014,48,Mannelijk,Rechts,2,46,left,yes,350,leftarrow,465,false,focus,yes,827756,Chrome,111.0,macOS,10.15.7,undefined,undefined,1440 x 900,1440 x 900
S014,48,Mannelijk,Rechts,2,47,right,no,300,rightarrow,520,true,focus,yes,829045,Chrome,111.0,macOS,10.15.7,undefined,undefined,1440 x 900,1440 x 900
S014,48,Mannelijk,Rechts,2,48,left,no,300,leftarrow,513,true,focus,yes,830325,Chrome,111.0,macOS,10.15.7,undefined,undefined,1440 x 900,1440 x 900
S014,48,Mannelijk,Rechts,2,49,left,no,300,leftarrow,552,true,focus,yes,831639,Chrome,111.0,macOS,10.15.7,undefined,undefined,1440 x 900,1440 x 900
S014,48,Mannelijk,Rechts,2,50,right,no,300,rightarrow,644,true,focus,yes,833058,Chrome,111.0,macOS,10.15.7,undefined,undefined,1440 x 900,1440 x 900
S014,48,Mannelijk,Rechts,2,51,left,yes,300,leftarrow,519,false,focus,yes,834335,Chrome,111.0,macOS,10.15.7,undefined,undefined,1440 x 900,1440 x 900
S014,48,Mannelijk,Rechts,2,52,left,no,250,leftarrow,723,true,focus,yes,835822,Chrome,111.0,macOS,10.15.7,undefined,undefined,1440 x 900,1440 x 900
S014,48,Mannelijk,Rechts,2,53,right,no,250,rightarrow,451,true,focus,yes,837038,Chrome,111.0,macOS,10.15.7,undefined,undefined,1440 x 900,1440 x 900
S014,48,Mannelijk,Rechts,2,54,right,no,250,rightarrow,446,true,focus,yes,838250,Chrome,111.0,macOS,10.15.7,undefined,undefined,1440 x 900,1440 x 900
S014,48,Mannelijk,Rechts,2,55,left,no,250,leftarrow,542,true,focus,yes,839564,Chrome,111.0,macOS,10.15.7,undefined,undefined,1440 x 900,1440 x 900
S014,48,Mannelijk,Rechts,2,56,right,yes,250,undefined,null,true,focus,yes,841585,Chrome,111.0,macOS,10.15.7,undefined,undefined,1440 x 900,1440 x 900
S014,48,Mannelijk,Rechts,2,57,right,no,300,rightarrow,586,true,focus,yes,842947,Chrome,111.0,macOS,10.15.7,undefined,undefined,1440 x 900,1440 x 900
S014,48,Mannelijk,Rechts,2,58,left,yes,300,undefined,null,true,focus,yes,844980,Chrome,111.0,macOS,10.15.7,undefined,undefined,1440 x 900,1440 x 900
S014,48,Mannelijk,Rechts,2,59,left,no,350,leftarrow,554,true,focus,yes,846303,Chrome,111.0,macOS,10.15.7,undefined,undefined,1440 x 900,1440 x 900
S014,48,Mannelijk,Rechts,2,60,left,no,350,leftarrow,616,true,focus,yes,847680,Chrome,111.0,macOS,10.15.7,undefined,undefined,1440 x 900,1440 x 900
S014,48,Mannelijk,Rechts,2,61,right,yes,350,rightarrow,498,false,focus,yes,848952,Chrome,111.0,macOS,10.15.7,undefined,undefined,1440 x 900,1440 x 900
S014,48,Mannelijk,Rechts,2,62,right,no,300,rightarrow,683,true,focus,yes,850400,Chrome,111.0,macOS,10.15.7,undefined,undefined,1440 x 900,1440 x 900
S014,48,Mannelijk,Rechts,2,63,left,no,300,leftarrow,713,true,focus,yes,851877,Chrome,111.0,macOS,10.15.7,undefined,undefined,1440 x 900,1440 x 900
S014,48,Mannelijk,Rechts,2,64,right,no,300,rightarrow,444,true,focus,yes,853089,Chrome,111.0,macOS,10.15.7,undefined,undefined,1440 x 900,1440 x 900
S014,48,Mannelijk,Rechts,2,65,left,no,300,leftarrow,677,true,focus,yes,854525,Chrome,111.0,macOS,10.15.7,undefined,undefined,1440 x 900,1440 x 900
S014,48,Mannelijk,Rechts,2,66,right,no,300,rightarrow,537,true,focus,yes,855830,Chrome,111.0,macOS,10.15.7,undefined,undefined,1440 x 900,1440 x 900
S014,48,Mannelijk,Rechts,2,67,right,yes,300,undefined,null,true,focus,yes,857861,Chrome,111.0,macOS,10.15.7,undefined,undefined,1440 x 900,1440 x 900
S014,48,Mannelijk,Rechts,2,68,right,no,350,rightarrow,543,true,focus,yes,859171,Chrome,111.0,macOS,10.15.7,undefined,undefined,1440 x 900,1440 x 900
S014,48,Mannelijk,Rechts,2,69,left,no,350,leftarrow,544,true,focus,yes,860484,Chrome,111.0,macOS,10.15.7,undefined,undefined,1440 x 900,1440 x 900
S014,48,Mannelijk,Rechts,2,70,left,no,350,leftarrow,442,true,focus,yes,861695,Chrome,111.0,macOS,10.15.7,undefined,undefined,1440 x 900,1440 x 900
S014,48,Mannelijk,Rechts,2,71,left,yes,350,undefined,null,true,focus,yes,863713,Chrome,111.0,macOS,10.15.7,undefined,undefined,1440 x 900,1440 x 900
S014,48,Mannelijk,Rechts,2,72,right,no,400,rightarrow,419,true,focus,yes,864904,Chrome,111.0,macOS,10.15.7,undefined,undefined,1440 x 900,1440 x 900
S014,48,Mannelijk,Rechts,2,73,left,no,400,leftarrow,658,true,focus,yes,866323,Chrome,111.0,macOS,10.15.7,undefined,undefined,1440 x 900,1440 x 900
S014,48,Mannelijk,Rechts,2,74,left,no,400,leftarrow,523,true,focus,yes,867615,Chrome,111.0,macOS,10.15.7,undefined,undefined,1440 x 900,1440 x 900
S014,48,Mannelijk,Rechts,2,75,left,yes,400,leftarrow,622,false,focus,yes,869002,Chrome,111.0,macOS,10.15.7,undefined,undefined,1440 x 900,1440 x 900
S014,48,Mannelijk,Rechts,2,76,left,no,350,leftarrow,739,true,focus,yes,870503,Chrome,111.0,macOS,10.15.7,undefined,undefined,1440 x 900,1440 x 900
S014,48,Mannelijk,Rechts,2,77,right,no,350,rightarrow,595,true,focus,yes,871860,Chrome,111.0,macOS,10.15.7,undefined,undefined,1440 x 900,1440 x 900
S014,48,Mannelijk,Rechts,2,78,right,no,350,rightarrow,503,true,focus,yes,873123,Chrome,111.0,macOS,10.15.7,undefined,undefined,1440 x 900,1440 x 900
S014,48,Mannelijk,Rechts,2,79,right,yes,350,rightarrow,537,false,focus,yes,874434,Chrome,111.0,macOS,10.15.7,undefined,undefined,1440 x 900,1440 x 900
S014,48,Mannelijk,Rechts,2,80,right,no,300,rightarrow,709,true,focus,yes,875907,Chrome,111.0,macOS,10.15.7,undefined,undefined,1440 x 900,1440 x 900
S014,48,Mannelijk,Rechts,2,81,right,no,300,rightarrow,741,true,focus,yes,877410,Chrome,111.0,macOS,10.15.7,undefined,undefined,1440 x 900,1440 x 900
S014,48,Mannelijk,Rechts,2,82,left,no,300,leftarrow,675,true,focus,yes,878849,Chrome,111.0,macOS,10.15.7,undefined,undefined,1440 x 900,1440 x 900
S014,48,Mannelijk,Rechts,2,83,left,yes,300,leftarrow,476,false,focus,yes,880090,Chrome,111.0,macOS,10.15.7,undefined,undefined,1440 x 900,1440 x 900
S014,48,Mannelijk,Rechts,2,84,left,no,250,leftarrow,811,true,focus,yes,881664,Chrome,111.0,macOS,10.15.7,undefined,undefined,1440 x 900,1440 x 900
S014,48,Mannelijk,Rechts,2,85,left,no,250,leftarrow,682,true,focus,yes,883110,Chrome,111.0,macOS,10.15.7,undefined,undefined,1440 x 900,1440 x 900
S014,48,Mannelijk,Rechts,2,86,right,no,250,rightarrow,550,true,focus,yes,884427,Chrome,111.0,macOS,10.15.7,undefined,undefined,1440 x 900,1440 x 900
S014,48,Mannelijk,Rechts,2,87,right,yes,250,undefined,null,true,focus,yes,886462,Chrome,111.0,macOS,10.15.7,undefined,undefined,1440 x 900,1440 x 900
S014,48,Mannelijk,Rechts,2,88,right,no,300,rightarrow,508,true,focus,yes,887741,Chrome,111.0,macOS,10.15.7,undefined,undefined,1440 x 900,1440 x 900
S014,48,Mannelijk,Rechts,2,89,right,no,300,rightarrow,684,true,focus,yes,889192,Chrome,111.0,macOS,10.15.7,undefined,undefined,1440 x 900,1440 x 900
S014,48,Mannelijk,Rechts,2,90,left,no,300,leftarrow,503,true,focus,yes,890470,Chrome,111.0,macOS,10.15.7,undefined,undefined,1440 x 900,1440 x 900
S014,48,Mannelijk,Rechts,2,91,right,yes,300,rightarrow,552,false,focus,yes,891791,Chrome,111.0,macOS,10.15.7,undefined,undefined,1440 x 900,1440 x 900
S014,48,Mannelijk,Rechts,2,92,left,no,250,leftarrow,547,true,focus,yes,893104,Chrome,111.0,macOS,10.15.7,undefined,undefined,1440 x 900,1440 x 900
S014,48,Mannelijk,Rechts,2,93,right,no,250,rightarrow,610,true,focus,yes,894480,Chrome,111.0,macOS,10.15.7,undefined,undefined,1440 x 900,1440 x 900
S014,48,Mannelijk,Rechts,2,94,left,yes,250,undefined,null,true,focus,yes,896502,Chrome,111.0,macOS,10.15.7,undefined,undefined,1440 x 900,1440 x 900
S014,48,Mannelijk,Rechts,2,95,left,no,300,leftarrow,588,true,focus,yes,897868,Chrome,111.0,macOS,10.15.7,undefined,undefined,1440 x 900,1440 x 900
S014,48,Mannelijk,Rechts,2,96,right,no,300,rightarrow,432,true,focus,yes,899061,Chrome,111.0,macOS,10.15.7,undefined,undefined,1440 x 900,1440 x 900
S014,48,Mannelijk,Rechts,2,97,right,no,300,rightarrow,661,true,focus,yes,900498,Chrome,111.0,macOS,10.15.7,undefined,undefined,1440 x 900,1440 x 900
S014,48,Mannelijk,Rechts,2,98,left,no,300,leftarrow,503,true,focus,yes,901766,Chrome,111.0,macOS,10.15.7,undefined,undefined,1440 x 900,1440 x 900
S014,48,Mannelijk,Rechts,2,99,right,no,300,rightarrow,369,true,focus,yes,902903,Chrome,111.0,macOS,10.15.7,undefined,undefined,1440 x 900,1440 x 900
S014,48,Mannelijk,Rechts,2,100,left,yes,300,leftarrow,546,false,focus,yes,904216,Chrome,111.0,macOS,10.15.7,undefined,undefined,1440 x 900,1440 x 900
S014,48,Mannelijk,Rechts,2,101,left,no,250,leftarrow,791,true,focus,yes,905774,Chrome,111.0,macOS,10.15.7,undefined,undefined,1440 x 900,1440 x 900
S014,48,Mannelijk,Rechts,2,102,right,no,250,rightarrow,758,true,focus,yes,907294,Chrome,111.0,macOS,10.15.7,undefined,undefined,1440 x 900,1440 x 900
S014,48,Mannelijk,Rechts,2,103,right,yes,250,undefined,null,true,focus,yes,909318,Chrome,111.0,macOS,10.15.7,undefined,undefined,1440 x 900,1440 x 900
S014,48,Mannelijk,Rechts,2,104,left,no,300,leftarrow,448,true,focus,yes,910539,Chrome,111.0,macOS,10.15.7,undefined,undefined,1440 x 900,1440 x 900
S014,48,Mannelijk,Rechts,2,105,right,no,300,rightarrow,544,true,focus,yes,911857,Chrome,111.0,macOS,10.15.7,undefined,undefined,1440 x 900,1440 x 900
S014,48,Mannelijk,Rechts,2,106,right,no,300,rightarrow,550,true,focus,yes,913180,Chrome,111.0,macOS,10.15.7,undefined,undefined,1440 x 900,1440 x 900
S014,48,Mannelijk,Rechts,2,107,left,no,300,leftarrow,807,true,focus,yes,914758,Chrome,111.0,macOS,10.15.7,undefined,undefined,1440 x 900,1440 x 900
S014,48,Mannelijk,Rechts,2,108,left,no,300,leftarrow,752,true,focus,yes,916278,Chrome,111.0,macOS,10.15.7,undefined,undefined,1440 x 900,1440 x 900
S014,48,Mannelijk,Rechts,2,109,right,yes,300,undefined,null,true,focus,yes,918303,Chrome,111.0,macOS,10.15.7,undefined,undefined,1440 x 900,1440 x 900
S014,48,Mannelijk,Rechts,2,110,right,no,350,rightarrow,630,true,focus,yes,919704,Chrome,111.0,macOS,10.15.7,undefined,undefined,1440 x 900,1440 x 900
S014,48,Mannelijk,Rechts,2,111,left,no,350,leftarrow,703,true,focus,yes,921173,Chrome,111.0,macOS,10.15.7,undefined,undefined,1440 x 900,1440 x 900
S014,48,Mannelijk,Rechts,2,112,left,yes,350,undefined,null,true,focus,yes,923187,Chrome,111.0,macOS,10.15.7,undefined,undefined,1440 x 900,1440 x 900
S014,48,Mannelijk,Rechts,2,113,left,no,400,leftarrow,518,true,focus,yes,924480,Chrome,111.0,macOS,10.15.7,undefined,undefined,1440 x 900,1440 x 900
S014,48,Mannelijk,Rechts,2,114,right,yes,400,rightarrow,507,false,focus,yes,925754,Chrome,111.0,macOS,10.15.7,undefined,undefined,1440 x 900,1440 x 900
S014,48,Mannelijk,Rechts,2,115,left,no,350,leftarrow,424,true,focus,yes,926942,Chrome,111.0,macOS,10.15.7,undefined,undefined,1440 x 900,1440 x 900
S014,48,Mannelijk,Rechts,2,116,right,no,350,rightarrow,648,true,focus,yes,928354,Chrome,111.0,macOS,10.15.7,undefined,undefined,1440 x 900,1440 x 900
S014,48,Mannelijk,Rechts,2,117,left,yes,350,undefined,null,true,focus,yes,930370,Chrome,111.0,macOS,10.15.7,undefined,undefined,1440 x 900,1440 x 900
S014,48,Mannelijk,Rechts,2,118,right,no,400,rightarrow,426,true,focus,yes,931564,Chrome,111.0,macOS,10.15.7,undefined,undefined,1440 x 900,1440 x 900
S014,48,Mannelijk,Rechts,2,119,right,no,400,rightarrow,704,true,focus,yes,933031,Chrome,111.0,macOS,10.15.7,undefined,undefined,1440 x 900,1440 x 900
S014,48,Mannelijk,Rechts,2,120,left,no,400,leftarrow,702,true,focus,yes,934512,Chrome,111.0,macOS,10.15.7,undefined,undefined,1440 x 900,1440 x 900
S014,48,Mannelijk,Rechts,2,121,right,yes,400,rightarrow,465,false,focus,yes,935743,Chrome,111.0,macOS,10.15.7,undefined,undefined,1440 x 900,1440 x 900
S014,48,Mannelijk,Rechts,2,122,right,no,350,rightarrow,567,true,focus,yes,937079,Chrome,111.0,macOS,10.15.7,undefined,undefined,1440 x 900,1440 x 900
S014,48,Mannelijk,Rechts,2,123,left,yes,350,undefined,null,true,focus,yes,939103,Chrome,111.0,macOS,10.15.7,undefined,undefined,1440 x 900,1440 x 900
S014,48,Mannelijk,Rechts,2,124,right,no,400,rightarrow,387,true,focus,yes,940270,Chrome,111.0,macOS,10.15.7,undefined,undefined,1440 x 900,1440 x 900
S014,48,Mannelijk,Rechts,2,125,left,no,400,leftarrow,583,true,focus,yes,941622,Chrome,111.0,macOS,10.15.7,undefined,undefined,1440 x 900,1440 x 900
S014,48,Mannelijk,Rechts,2,126,right,no,400,rightarrow,495,true,focus,yes,942874,Chrome,111.0,macOS,10.15.7,undefined,undefined,1440 x 900,1440 x 900
S014,48,Mannelijk,Rechts,2,127,left,no,400,leftarrow,695,true,focus,yes,944326,Chrome,111.0,macOS,10.15.7,undefined,undefined,1440 x 900,1440 x 900
S014,48,Mannelijk,Rechts,2,128,left,no,400,leftarrow,702,true,focus,yes,945800,Chrome,111.0,macOS,10.15.7,undefined,undefined,1440 x 900,1440 x 900
S014,48,Mannelijk,Rechts,3,1,right,no,400,rightarrow,541,true,focus,yes,964737,Chrome,111.0,macOS,10.15.7,undefined,undefined,1440 x 900,1440 x 900
S014,48,Mannelijk,Rechts,3,2,right,no,400,rightarrow,618,true,focus,yes,966123,Chrome,111.0,macOS,10.15.7,undefined,undefined,1440 x 900,1440 x 900
S014,48,Mannelijk,Rechts,3,3,right,yes,400,rightarrow,470,false,focus,yes,967368,Chrome,111.0,macOS,10.15.7,undefined,undefined,1440 x 900,1440 x 900
S014,48,Mannelijk,Rechts,3,4,left,no,350,leftarrow,713,true,focus,yes,968849,Chrome,111.0,macOS,10.15.7,undefined,undefined,1440 x 900,1440 x 900
S014,48,Mannelijk,Rechts,3,5,left,no,350,leftarrow,754,true,focus,yes,970379,Chrome,111.0,macOS,10.15.7,undefined,undefined,1440 x 900,1440 x 900
S014,48,Mannelijk,Rechts,3,6,right,no,350,rightarrow,441,true,focus,yes,971584,Chrome,111.0,macOS,10.15.7,undefined,undefined,1440 x 900,1440 x 900
S014,48,Mannelijk,Rechts,3,7,left,no,350,leftarrow,599,true,focus,yes,972947,Chrome,111.0,macOS,10.15.7,undefined,undefined,1440 x 900,1440 x 900
S014,48,Mannelijk,Rechts,3,8,left,yes,350,leftarrow,520,false,focus,yes,974242,Chrome,111.0,macOS,10.15.7,undefined,undefined,1440 x 900,1440 x 900
S014,48,Mannelijk,Rechts,3,9,left,no,300,leftarrow,645,true,focus,yes,975647,Chrome,111.0,macOS,10.15.7,undefined,undefined,1440 x 900,1440 x 900
S014,48,Mannelijk,Rechts,3,10,right,no,300,rightarrow,643,true,focus,yes,977060,Chrome,111.0,macOS,10.15.7,undefined,undefined,1440 x 900,1440 x 900
S014,48,Mannelijk,Rechts,3,11,left,no,300,leftarrow,587,true,focus,yes,978407,Chrome,111.0,macOS,10.15.7,undefined,undefined,1440 x 900,1440 x 900
S014,48,Mannelijk,Rechts,3,12,right,no,300,rightarrow,601,true,focus,yes,979770,Chrome,111.0,macOS,10.15.7,undefined,undefined,1440 x 900,1440 x 900
S014,48,Mannelijk,Rechts,3,13,right,yes,300,undefined,null,true,focus,yes,981792,Chrome,111.0,macOS,10.15.7,undefined,undefined,1440 x 900,1440 x 900
S014,48,Mannelijk,Rechts,3,14,left,yes,350,leftarrow,448,false,focus,yes,983009,Chrome,111.0,macOS,10.15.7,undefined,undefined,1440 x 900,1440 x 900
S014,48,Mannelijk,Rechts,3,15,right,no,300,rightarrow,422,true,focus,yes,984194,Chrome,111.0,macOS,10.15.7,undefined,undefined,1440 x 900,1440 x 900
S014,48,Mannelijk,Rechts,3,16,left,no,300,leftarrow,750,true,focus,yes,985710,Chrome,111.0,macOS,10.15.7,undefined,undefined,1440 x 900,1440 x 900
S014,48,Mannelijk,Rechts,3,17,left,no,300,leftarrow,700,true,focus,yes,987173,Chrome,111.0,macOS,10.15.7,undefined,undefined,1440 x 900,1440 x 900
S014,48,Mannelijk,Rechts,3,18,left,no,300,leftarrow,731,true,focus,yes,988675,Chrome,111.0,macOS,10.15.7,undefined,undefined,1440 x 900,1440 x 900
S014,48,Mannelijk,Rechts,3,19,right,no,300,rightarrow,557,true,focus,yes,989998,Chrome,111.0,macOS,10.15.7,undefined,undefined,1440 x 900,1440 x 900
S014,48,Mannelijk,Rechts,3,20,right,yes,300,undefined,null,true,focus,yes,992017,Chrome,111.0,macOS,10.15.7,undefined,undefined,1440 x 900,1440 x 900
S014,48,Mannelijk,Rechts,3,21,right,no,350,rightarrow,480,true,focus,yes,993268,Chrome,111.0,macOS,10.15.7,undefined,undefined,1440 x 900,1440 x 900
S014,48,Mannelijk,Rechts,3,22,left,no,350,leftarrow,645,true,focus,yes,994677,Chrome,111.0,macOS,10.15.7,undefined,undefined,1440 x 900,1440 x 900
S014,48,Mannelijk,Rechts,3,23,right,no,350,rightarrow,408,true,focus,yes,995849,Chrome,111.0,macOS,10.15.7,undefined,undefined,1440 x 900,1440 x 900
S014,48,Mannelijk,Rechts,3,24,left,yes,350,undefined,null,true,focus,yes,997873,Chrome,111.0,macOS,10.15.7,undefined,undefined,1440 x 900,1440 x 900
S014,48,Mannelijk,Rechts,3,25,left,no,400,leftarrow,576,true,focus,yes,999221,Chrome,111.0,macOS,10.15.7,undefined,undefined,1440 x 900,1440 x 900
S014,48,Mannelijk,Rechts,3,26,right,no,400,rightarrow,664,true,focus,yes,1000645,Chrome,111.0,macOS,10.15.7,undefined,undefined,1440 x 900,1440 x 900
S014,48,Mannelijk,Rechts,3,27,right,no,400,rightarrow,567,true,focus,yes,1001986,Chrome,111.0,macOS,10.15.7,undefined,undefined,1440 x 900,1440 x 900
S014,48,Mannelijk,Rechts,3,28,left,yes,400,undefined,null,true,focus,yes,1004009,Chrome,111.0,macOS,10.15.7,undefined,undefined,1440 x 900,1440 x 900
S014,48,Mannelijk,Rechts,3,29,right,yes,450,rightarrow,406,false,focus,yes,1005184,Chrome,111.0,macOS,10.15.7,undefined,undefined,1440 x 900,1440 x 900
S014,48,Mannelijk,Rechts,3,30,left,no,400,leftarrow,815,true,focus,yes,1006760,Chrome,111.0,macOS,10.15.7,undefined,undefined,1440 x 900,1440 x 900
S014,48,Mannelijk,Rechts,3,31,left,no,400,leftarrow,622,true,focus,yes,1008160,Chrome,111.0,macOS,10.15.7,undefined,undefined,1440 x 900,1440 x 900
S014,48,Mannelijk,Rechts,3,32,right,no,400,rightarrow,606,true,focus,yes,1009547,Chrome,111.0,macOS,10.15.7,undefined,undefined,1440 x 900,1440 x 900
S014,48,Mannelijk,Rechts,3,33,right,no,400,rightarrow,682,true,focus,yes,1010991,Chrome,111.0,macOS,10.15.7,undefined,undefined,1440 x 900,1440 x 900
S014,48,Mannelijk,Rechts,3,34,left,yes,400,undefined,null,true,focus,yes,1013008,Chrome,111.0,macOS,10.15.7,undefined,undefined,1440 x 900,1440 x 900
S014,48,Mannelijk,Rechts,3,35,right,no,450,rightarrow,542,true,focus,yes,1014320,Chrome,111.0,macOS,10.15.7,undefined,undefined,1440 x 900,1440 x 900
S014,48,Mannelijk,Rechts,3,36,left,no,450,leftarrow,705,true,focus,yes,1015786,Chrome,111.0,macOS,10.15.7,undefined,undefined,1440 x 900,1440 x 900
S014,48,Mannelijk,Rechts,3,37,right,yes,450,undefined,null,true,focus,yes,1017807,Chrome,111.0,macOS,10.15.7,undefined,undefined,1440 x 900,1440 x 900
S014,48,Mannelijk,Rechts,3,38,left,no,500,leftarrow,767,true,focus,yes,1019349,Chrome,111.0,macOS,10.15.7,undefined,undefined,1440 x 900,1440 x 900
S014,48,Mannelijk,Rechts,3,39,right,no,500,rightarrow,700,true,focus,yes,1020814,Chrome,111.0,macOS,10.15.7,undefined,undefined,1440 x 900,1440 x 900
S014,48,Mannelijk,Rechts,3,40,left,no,500,leftarrow,753,true,focus,yes,1022331,Chrome,111.0,macOS,10.15.7,undefined,undefined,1440 x 900,1440 x 900
S014,48,Mannelijk,Rechts,3,41,right,no,500,rightarrow,522,true,focus,yes,1023630,Chrome,111.0,macOS,10.15.7,undefined,undefined,1440 x 900,1440 x 900
S014,48,Mannelijk,Rechts,3,42,left,no,500,leftarrow,774,true,focus,yes,1025169,Chrome,111.0,macOS,10.15.7,undefined,undefined,1440 x 900,1440 x 900
S014,48,Mannelijk,Rechts,3,43,left,no,500,leftarrow,869,true,focus,yes,1026809,Chrome,111.0,macOS,10.15.7,undefined,undefined,1440 x 900,1440 x 900
S014,48,Mannelijk,Rechts,3,44,right,yes,500,rightarrow,617,false,focus,yes,1028203,Chrome,111.0,macOS,10.15.7,undefined,undefined,1440 x 900,1440 x 900
S014,48,Mannelijk,Rechts,3,45,left,yes,450,leftarrow,462,false,focus,yes,1029428,Chrome,111.0,macOS,10.15.7,undefined,undefined,1440 x 900,1440 x 900
S014,48,Mannelijk,Rechts,3,46,left,no,400,leftarrow,900,true,focus,yes,1031091,Chrome,111.0,macOS,10.15.7,undefined,undefined,1440 x 900,1440 x 900
S014,48,Mannelijk,Rechts,3,47,right,no,400,rightarrow,560,true,focus,yes,1032417,Chrome,111.0,macOS,10.15.7,undefined,undefined,1440 x 900,1440 x 900
S014,48,Mannelijk,Rechts,3,48,right,no,400,rightarrow,703,true,focus,yes,1033880,Chrome,111.0,macOS,10.15.7,undefined,undefined,1440 x 900,1440 x 900
S014,48,Mannelijk,Rechts,3,49,right,no,400,rightarrow,762,true,focus,yes,1035404,Chrome,111.0,macOS,10.15.7,undefined,undefined,1440 x 900,1440 x 900
S014,48,Mannelijk,Rechts,3,50,left,no,400,leftarrow,835,true,focus,yes,1037005,Chrome,111.0,macOS,10.15.7,undefined,undefined,1440 x 900,1440 x 900
S014,48,Mannelijk,Rechts,3,51,right,no,400,rightarrow,564,true,focus,yes,1038335,Chrome,111.0,macOS,10.15.7,undefined,undefined,1440 x 900,1440 x 900
S014,48,Mannelijk,Rechts,3,52,left,no,400,leftarrow,643,true,focus,yes,1039742,Chrome,111.0,macOS,10.15.7,undefined,undefined,1440 x 900,1440 x 900
S014,48,Mannelijk,Rechts,3,53,right,yes,400,rightarrow,529,false,focus,yes,1041035,Chrome,111.0,macOS,10.15.7,undefined,undefined,1440 x 900,1440 x 900
S014,48,Mannelijk,Rechts,3,54,left,yes,350,leftarrow,473,false,focus,yes,1042276,Chrome,111.0,macOS,10.15.7,undefined,undefined,1440 x 900,1440 x 900
S014,48,Mannelijk,Rechts,3,55,left,no,300,leftarrow,624,true,focus,yes,1043666,Chrome,111.0,macOS,10.15.7,undefined,undefined,1440 x 900,1440 x 900
S014,48,Mannelijk,Rechts,3,56,right,no,300,rightarrow,559,true,focus,yes,1045005,Chrome,111.0,macOS,10.15.7,undefined,undefined,1440 x 900,1440 x 900
S014,48,Mannelijk,Rechts,3,57,left,no,300,leftarrow,551,true,focus,yes,1046321,Chrome,111.0,macOS,10.15.7,undefined,undefined,1440 x 900,1440 x 900
S014,48,Mannelijk,Rechts,3,58,right,yes,300,undefined,null,true,focus,yes,1048355,Chrome,111.0,macOS,10.15.7,undefined,undefined,1440 x 900,1440 x 900
S014,48,Mannelijk,Rechts,3,59,left,yes,350,leftarrow,420,false,focus,yes,1049546,Chrome,111.0,macOS,10.15.7,undefined,undefined,1440 x 900,1440 x 900
S014,48,Mannelijk,Rechts,3,60,right,no,300,rightarrow,494,true,focus,yes,1050818,Chrome,111.0,macOS,10.15.7,undefined,undefined,1440 x 900,1440 x 900
S014,48,Mannelijk,Rechts,3,61,right,no,300,rightarrow,847,true,focus,yes,1052430,Chrome,111.0,macOS,10.15.7,undefined,undefined,1440 x 900,1440 x 900
S014,48,Mannelijk,Rechts,3,62,left,no,300,leftarrow,568,true,focus,yes,1053763,Chrome,111.0,macOS,10.15.7,undefined,undefined,1440 x 900,1440 x 900
S014,48,Mannelijk,Rechts,3,63,right,no,300,rightarrow,406,true,focus,yes,1054936,Chrome,111.0,macOS,10.15.7,undefined,undefined,1440 x 900,1440 x 900
S014,48,Mannelijk,Rechts,3,64,left,no,300,leftarrow,639,true,focus,yes,1056333,Chrome,111.0,macOS,10.15.7,undefined,undefined,1440 x 900,1440 x 900
S014,48,Mannelijk,Rechts,3,65,right,no,300,rightarrow,794,true,focus,yes,1057890,Chrome,111.0,macOS,10.15.7,undefined,undefined,1440 x 900,1440 x 900
S014,48,Mannelijk,Rechts,3,66,left,no,300,leftarrow,654,true,focus,yes,1059313,Chrome,111.0,macOS,10.15.7,undefined,undefined,1440 x 900,1440 x 900
S014,48,Mannelijk,Rechts,3,67,left,no,300,leftarrow,759,true,focus,yes,1060835,Chrome,111.0,macOS,10.15.7,undefined,undefined,1440 x 900,1440 x 900
S014,48,Mannelijk,Rechts,3,68,right,no,300,rightarrow,842,true,focus,yes,1062441,Chrome,111.0,macOS,10.15.7,undefined,undefined,1440 x 900,1440 x 900
S014,48,Mannelijk,Rechts,3,69,left,no,300,leftarrow,602,true,focus,yes,1063801,Chrome,111.0,macOS,10.15.7,undefined,undefined,1440 x 900,1440 x 900
S014,48,Mannelijk,Rechts,3,70,left,yes,300,undefined,null,true,focus,yes,1065816,Chrome,111.0,macOS,10.15.7,undefined,undefined,1440 x 900,1440 x 900
S014,48,Mannelijk,Rechts,3,71,right,no,350,rightarrow,658,true,focus,yes,1067246,Chrome,111.0,macOS,10.15.7,undefined,undefined,1440 x 900,1440 x 900
S014,48,Mannelijk,Rechts,3,72,right,yes,350,undefined,null,true,focus,yes,1069267,Chrome,111.0,macOS,10.15.7,undefined,undefined,1440 x 900,1440 x 900
S014,48,Mannelijk,Rechts,3,73,right,yes,400,rightarrow,571,false,focus,yes,1070611,Chrome,111.0,macOS,10.15.7,undefined,undefined,1440 x 900,1440 x 900
S014,48,Mannelijk,Rechts,3,74,right,no,350,rightarrow,701,true,focus,yes,1072074,Chrome,111.0,macOS,10.15.7,undefined,undefined,1440 x 900,1440 x 900
S014,48,Mannelijk,Rechts,3,75,right,no,350,rightarrow,737,true,focus,yes,1073582,Chrome,111.0,macOS,10.15.7,undefined,undefined,1440 x 900,1440 x 900
S014,48,Mannelijk,Rechts,3,76,right,no,350,rightarrow,569,true,focus,yes,1074916,Chrome,111.0,macOS,10.15.7,undefined,undefined,1440 x 900,1440 x 900
S014,48,Mannelijk,Rechts,3,77,left,yes,350,leftarrow,529,false,focus,yes,1076208,Chrome,111.0,macOS,10.15.7,undefined,undefined,1440 x 900,1440 x 900
S014,48,Mannelijk,Rechts,3,78,left,no,300,leftarrow,622,true,focus,yes,1077601,Chrome,111.0,macOS,10.15.7,undefined,undefined,1440 x 900,1440 x 900
S014,48,Mannelijk,Rechts,3,79,left,no,300,leftarrow,758,true,focus,yes,1079132,Chrome,111.0,macOS,10.15.7,undefined,undefined,1440 x 900,1440 x 900
S014,48,Mannelijk,Rechts,3,80,left,no,300,leftarrow,993,true,focus,yes,1080884,Chrome,111.0,macOS,10.15.7,undefined,undefined,1440 x 900,1440 x 900
S014,48,Mannelijk,Rechts,3,81,right,no,300,undefined,null,false,focus,yes,1082900,Chrome,111.0,macOS,10.15.7,undefined,undefined,1440 x 900,1440 x 900
S014,48,Mannelijk,Rechts,3,82,right,yes,300,undefined,null,true,focus,yes,1084932,Chrome,111.0,macOS,10.15.7,undefined,undefined,1440 x 900,1440 x 900
S014,48,Mannelijk,Rechts,3,83,right,no,350,rightarrow,731,true,focus,yes,1086431,Chrome,111.0,macOS,10.15.7,undefined,undefined,1440 x 900,1440 x 900
S014,48,Mannelijk,Rechts,3,84,right,no,350,rightarrow,813,true,focus,yes,1088016,Chrome,111.0,macOS,10.15.7,undefined,undefined,1440 x 900,1440 x 900
S014,48,Mannelijk,Rechts,3,85,left,no,350,leftarrow,816,true,focus,yes,1089595,Chrome,111.0,macOS,10.15.7,undefined,undefined,1440 x 900,1440 x 900
S014,48,Mannelijk,Rechts,3,86,left,no,350,leftarrow,707,true,focus,yes,1091067,Chrome,111.0,macOS,10.15.7,undefined,undefined,1440 x 900,1440 x 900
S014,48,Mannelijk,Rechts,3,87,left,yes,350,undefined,null,true,focus,yes,1093092,Chrome,111.0,macOS,10.15.7,undefined,undefined,1440 x 900,1440 x 900
S014,48,Mannelijk,Rechts,3,88,left,no,400,leftarrow,646,true,focus,yes,1094501,Chrome,111.0,macOS,10.15.7,undefined,undefined,1440 x 900,1440 x 900
S014,48,Mannelijk,Rechts,3,89,right,yes,400,undefined,null,true,focus,yes,1096524,Chrome,111.0,macOS,10.15.7,undefined,undefined,1440 x 900,1440 x 900
S014,48,Mannelijk,Rechts,3,90,right,no,450,rightarrow,548,true,focus,yes,1097839,Chrome,111.0,macOS,10.15.7,undefined,undefined,1440 x 900,1440 x 900
S014,48,Mannelijk,Rechts,3,91,left,no,450,leftarrow,760,true,focus,yes,1099363,Chrome,111.0,macOS,10.15.7,undefined,undefined,1440 x 900,1440 x 900
S014,48,Mannelijk,Rechts,3,92,right,no,450,rightarrow,614,true,focus,yes,1100758,Chrome,111.0,macOS,10.15.7,undefined,undefined,1440 x 900,1440 x 900
S014,48,Mannelijk,Rechts,3,93,left,no,450,leftarrow,614,true,focus,yes,1102138,Chrome,111.0,macOS,10.15.7,undefined,undefined,1440 x 900,1440 x 900
S014,48,Mannelijk,Rechts,3,94,right,no,450,rightarrow,562,true,focus,yes,1103474,Chrome,111.0,macOS,10.15.7,undefined,undefined,1440 x 900,1440 x 900
S014,48,Mannelijk,Rechts,3,95,left,yes,450,leftarrow,669,false,focus,yes,1104916,Chrome,111.0,macOS,10.15.7,undefined,undefined,1440 x 900,1440 x 900
S014,48,Mannelijk,Rechts,3,96,left,no,400,leftarrow,709,true,focus,yes,1106393,Chrome,111.0,macOS,10.15.7,undefined,undefined,1440 x 900,1440 x 900
S014,48,Mannelijk,Rechts,3,97,right,no,400,rightarrow,989,true,focus,yes,1108145,Chrome,111.0,macOS,10.15.7,undefined,undefined,1440 x 900,1440 x 900
S014,48,Mannelijk,Rechts,3,98,right,no,400,rightarrow,684,true,focus,yes,1109588,Chrome,111.0,macOS,10.15.7,undefined,undefined,1440 x 900,1440 x 900
S014,48,Mannelijk,Rechts,3,99,left,no,400,leftarrow,784,true,focus,yes,1111148,Chrome,111.0,macOS,10.15.7,undefined,undefined,1440 x 900,1440 x 900
S014,48,Mannelijk,Rechts,3,100,left,no,400,leftarrow,714,true,focus,yes,1112627,Chrome,111.0,macOS,10.15.7,undefined,undefined,1440 x 900,1440 x 900
S014,48,Mannelijk,Rechts,3,101,right,yes,400,rightarrow,584,false,focus,yes,1113980,Chrome,111.0,macOS,10.15.7,undefined,undefined,1440 x 900,1440 x 900
S014,48,Mannelijk,Rechts,3,102,right,no,350,rightarrow,604,true,focus,yes,1115362,Chrome,111.0,macOS,10.15.7,undefined,undefined,1440 x 900,1440 x 900
S014,48,Mannelijk,Rechts,3,103,left,no,350,leftarrow,715,true,focus,yes,1116839,Chrome,111.0,macOS,10.15.7,undefined,undefined,1440 x 900,1440 x 900
S014,48,Mannelijk,Rechts,3,104,left,yes,350,undefined,null,true,focus,yes,1118858,Chrome,111.0,macOS,10.15.7,undefined,undefined,1440 x 900,1440 x 900
S014,48,Mannelijk,Rechts,3,105,left,no,400,leftarrow,646,true,focus,yes,1120267,Chrome,111.0,macOS,10.15.7,undefined,undefined,1440 x 900,1440 x 900
S014,48,Mannelijk,Rechts,3,106,right,no,400,rightarrow,764,true,focus,yes,1121803,Chrome,111.0,macOS,10.15.7,undefined,undefined,1440 x 900,1440 x 900
S014,48,Mannelijk,Rechts,3,107,left,no,400,leftarrow,899,true,focus,yes,1123483,Chrome,111.0,macOS,10.15.7,undefined,undefined,1440 x 900,1440 x 900
S014,48,Mannelijk,Rechts,3,108,right,no,400,rightarrow,716,true,focus,yes,1124957,Chrome,111.0,macOS,10.15.7,undefined,undefined,1440 x 900,1440 x 900
S014,48,Mannelijk,Rechts,3,109,right,yes,400,rightarrow,613,false,focus,yes,1126338,Chrome,111.0,macOS,10.15.7,undefined,undefined,1440 x 900,1440 x 900
S014,48,Mannelijk,Rechts,3,110,right,no,350,rightarrow,635,true,focus,yes,1127735,Chrome,111.0,macOS,10.15.7,undefined,undefined,1440 x 900,1440 x 900
S014,48,Mannelijk,Rechts,3,111,left,no,350,leftarrow,675,true,focus,yes,1129177,Chrome,111.0,macOS,10.15.7,undefined,undefined,1440 x 900,1440 x 900
S014,48,Mannelijk,Rechts,3,112,left,yes,350,undefined,null,true,focus,yes,1131197,Chrome,111.0,macOS,10.15.7,undefined,undefined,1440 x 900,1440 x 900
S014,48,Mannelijk,Rechts,3,113,right,no,400,rightarrow,450,true,focus,yes,1132427,Chrome,111.0,macOS,10.15.7,undefined,undefined,1440 x 900,1440 x 900
S014,48,Mannelijk,Rechts,3,114,right,yes,400,undefined,null,true,focus,yes,1134461,Chrome,111.0,macOS,10.15.7,undefined,undefined,1440 x 900,1440 x 900
S014,48,Mannelijk,Rechts,3,115,left,no,450,leftarrow,703,true,focus,yes,1135936,Chrome,111.0,macOS,10.15.7,undefined,undefined,1440 x 900,1440 x 900
S014,48,Mannelijk,Rechts,3,116,left,yes,450,leftarrow,668,false,focus,yes,1137365,Chrome,111.0,macOS,10.15.7,undefined,undefined,1440 x 900,1440 x 900
S014,48,Mannelijk,Rechts,3,117,left,no,400,leftarrow,777,true,focus,yes,1138911,Chrome,111.0,macOS,10.15.7,undefined,undefined,1440 x 900,1440 x 900
S014,48,Mannelijk,Rechts,3,118,right,no,400,rightarrow,741,true,focus,yes,1140419,Chrome,111.0,macOS,10.15.7,undefined,undefined,1440 x 900,1440 x 900
S014,48,Mannelijk,Rechts,3,119,right,no,400,rightarrow,777,true,focus,yes,1141962,Chrome,111.0,macOS,10.15.7,undefined,undefined,1440 x 900,1440 x 900
S014,48,Mannelijk,Rechts,3,120,left,no,400,leftarrow,830,true,focus,yes,1143555,Chrome,111.0,macOS,10.15.7,undefined,undefined,1440 x 900,1440 x 900
S014,48,Mannelijk,Rechts,3,121,left,no,400,leftarrow,728,true,focus,yes,1145048,Chrome,111.0,macOS,10.15.7,undefined,undefined,1440 x 900,1440 x 900
S014,48,Mannelijk,Rechts,3,122,left,yes,400,undefined,null,true,focus,yes,1147069,Chrome,111.0,macOS,10.15.7,undefined,undefined,1440 x 900,1440 x 900
S014,48,Mannelijk,Rechts,3,123,right,no,450,rightarrow,527,true,focus,yes,1148365,Chrome,111.0,macOS,10.15.7,undefined,undefined,1440 x 900,1440 x 900
S014,48,Mannelijk,Rechts,3,124,right,no,450,rightarrow,740,true,focus,yes,1149868,Chrome,111.0,macOS,10.15.7,undefined,undefined,1440 x 900,1440 x 900
S014,48,Mannelijk,Rechts,3,125,right,no,450,rightarrow,668,true,focus,yes,1151297,Chrome,111.0,macOS,10.15.7,undefined,undefined,1440 x 900,1440 x 900
S014,48,Mannelijk,Rechts,3,126,left,no,450,leftarrow,693,true,focus,yes,1152762,Chrome,111.0,macOS,10.15.7,undefined,undefined,1440 x 900,1440 x 900
S014,48,Mannelijk,Rechts,3,127,right,yes,450,rightarrow,584,false,focus,yes,1154108,Chrome,111.0,macOS,10.15.7,undefined,undefined,1440 x 900,1440 x 900
S014,48,Mannelijk,Rechts,3,128,left,no,400,leftarrow,653,true,focus,yes,1155532,Chrome,111.0,macOS,10.15.7,undefined,undefined,1440 x 900,1440 x 900
S014,48,Mannelijk,Rechts,4,1,left,no,400,leftarrow,521,true,focus,yes,1174863,Chrome,111.0,macOS,10.15.7,undefined,undefined,1440 x 900,1440 x 900
S014,48,Mannelijk,Rechts,4,2,right,no,400,rightarrow,531,true,focus,yes,1176157,Chrome,111.0,macOS,10.15.7,undefined,undefined,1440 x 900,1440 x 900
S014,48,Mannelijk,Rechts,4,3,right,no,400,rightarrow,640,true,focus,yes,1177571,Chrome,111.0,macOS,10.15.7,undefined,undefined,1440 x 900,1440 x 900
S014,48,Mannelijk,Rechts,4,4,left,yes,400,undefined,null,true,focus,yes,1179608,Chrome,111.0,macOS,10.15.7,undefined,undefined,1440 x 900,1440 x 900
S014,48,Mannelijk,Rechts,4,5,right,no,450,rightarrow,425,true,focus,yes,1180806,Chrome,111.0,macOS,10.15.7,undefined,undefined,1440 x 900,1440 x 900
S014,48,Mannelijk,Rechts,4,6,left,no,450,leftarrow,596,true,focus,yes,1182176,Chrome,111.0,macOS,10.15.7,undefined,undefined,1440 x 900,1440 x 900
S014,48,Mannelijk,Rechts,4,7,left,no,450,leftarrow,693,true,focus,yes,1183631,Chrome,111.0,macOS,10.15.7,undefined,undefined,1440 x 900,1440 x 900
S014,48,Mannelijk,Rechts,4,8,right,yes,450,rightarrow,479,false,focus,yes,1184885,Chrome,111.0,macOS,10.15.7,undefined,undefined,1440 x 900,1440 x 900
S014,48,Mannelijk,Rechts,4,9,left,no,400,leftarrow,671,true,focus,yes,1186318,Chrome,111.0,macOS,10.15.7,undefined,undefined,1440 x 900,1440 x 900
S014,48,Mannelijk,Rechts,4,10,right,yes,400,rightarrow,523,false,focus,yes,1187606,Chrome,111.0,macOS,10.15.7,undefined,undefined,1440 x 900,1440 x 900
S014,48,Mannelijk,Rechts,4,11,left,yes,350,leftarrow,533,false,focus,yes,1188905,Chrome,111.0,macOS,10.15.7,undefined,undefined,1440 x 900,1440 x 900
S014,48,Mannelijk,Rechts,4,12,left,no,300,leftarrow,582,true,focus,yes,1190251,Chrome,111.0,macOS,10.15.7,undefined,undefined,1440 x 900,1440 x 900
S014,48,Mannelijk,Rechts,4,13,right,no,300,rightarrow,657,true,focus,yes,1191669,Chrome,111.0,macOS,10.15.7,undefined,undefined,1440 x 900,1440 x 900
S014,48,Mannelijk,Rechts,4,14,right,no,300,rightarrow,619,true,focus,yes,1193055,Chrome,111.0,macOS,10.15.7,undefined,undefined,1440 x 900,1440 x 900
S014,48,Mannelijk,Rechts,4,15,right,no,300,rightarrow,665,true,focus,yes,1194485,Chrome,111.0,macOS,10.15.7,undefined,undefined,1440 x 900,1440 x 900
S014,48,Mannelijk,Rechts,4,16,left,no,300,leftarrow,772,true,focus,yes,1196024,Chrome,111.0,macOS,10.15.7,undefined,undefined,1440 x 900,1440 x 900
S014,48,Mannelijk,Rechts,4,17,right,yes,300,undefined,null,true,focus,yes,1198041,Chrome,111.0,macOS,10.15.7,undefined,undefined,1440 x 900,1440 x 900
S014,48,Mannelijk,Rechts,4,18,right,no,350,rightarrow,577,true,focus,yes,1199381,Chrome,111.0,macOS,10.15.7,undefined,undefined,1440 x 900,1440 x 900
S014,48,Mannelijk,Rechts,4,19,right,no,350,rightarrow,584,true,focus,yes,1200729,Chrome,111.0,macOS,10.15.7,undefined,undefined,1440 x 900,1440 x 900
S014,48,Mannelijk,Rechts,4,20,left,no,350,leftarrow,649,true,focus,yes,1202153,Chrome,111.0,macOS,10.15.7,undefined,undefined,1440 x 900,1440 x 900
S014,48,Mannelijk,Rechts,4,21,left,no,350,leftarrow,721,true,focus,yes,1203639,Chrome,111.0,macOS,10.15.7,undefined,undefined,1440 x 900,1440 x 900
S014,48,Mannelijk,Rechts,4,22,left,no,350,leftarrow,676,true,focus,yes,1205077,Chrome,111.0,macOS,10.15.7,undefined,undefined,1440 x 900,1440 x 900
S014,48,Mannelijk,Rechts,4,23,right,no,350,rightarrow,560,true,focus,yes,1206406,Chrome,111.0,macOS,10.15.7,undefined,undefined,1440 x 900,1440 x 900
S014,48,Mannelijk,Rechts,4,24,left,yes,350,leftarrow,643,false,focus,yes,1207815,Chrome,111.0,macOS,10.15.7,undefined,undefined,1440 x 900,1440 x 900
S014,48,Mannelijk,Rechts,4,25,left,no,300,leftarrow,705,true,focus,yes,1209286,Chrome,111.0,macOS,10.15.7,undefined,undefined,1440 x 900,1440 x 900
S014,48,Mannelijk,Rechts,4,26,right,no,300,rightarrow,620,true,focus,yes,1210681,Chrome,111.0,macOS,10.15.7,undefined,undefined,1440 x 900,1440 x 900
S014,48,Mannelijk,Rechts,4,27,right,yes,300,rightarrow,482,false,focus,yes,1211923,Chrome,111.0,macOS,10.15.7,undefined,undefined,1440 x 900,1440 x 900
S014,48,Mannelijk,Rechts,4,28,right,no,250,rightarrow,795,true,focus,yes,1213482,Chrome,111.0,macOS,10.15.7,undefined,undefined,1440 x 900,1440 x 900
S014,48,Mannelijk,Rechts,4,29,right,no,250,rightarrow,943,true,focus,yes,1215189,Chrome,111.0,macOS,10.15.7,undefined,undefined,1440 x 900,1440 x 900
S014,48,Mannelijk,Rechts,4,30,left,no,250,leftarrow,748,true,focus,yes,1216717,Chrome,111.0,macOS,10.15.7,undefined,undefined,1440 x 900,1440 x 900
S014,48,Mannelijk,Rechts,4,31,left,no,250,leftarrow,664,true,focus,yes,1218149,Chrome,111.0,macOS,10.15.7,undefined,undefined,1440 x 900,1440 x 900
S014,48,Mannelijk,Rechts,4,32,left,yes,250,undefined,null,true,focus,yes,1220182,Chrome,111.0,macOS,10.15.7,undefined,undefined,1440 x 900,1440 x 900
S014,48,Mannelijk,Rechts,4,33,left,yes,300,undefined,null,true,focus,yes,1222213,Chrome,111.0,macOS,10.15.7,undefined,undefined,1440 x 900,1440 x 900
S014,48,Mannelijk,Rechts,4,34,right,no,350,rightarrow,640,true,focus,yes,1223623,Chrome,111.0,macOS,10.15.7,undefined,undefined,1440 x 900,1440 x 900
S014,48,Mannelijk,Rechts,4,35,left,no,350,leftarrow,717,true,focus,yes,1225117,Chrome,111.0,macOS,10.15.7,undefined,undefined,1440 x 900,1440 x 900
S014,48,Mannelijk,Rechts,4,36,right,no,350,rightarrow,760,true,focus,yes,1226648,Chrome,111.0,macOS,10.15.7,undefined,undefined,1440 x 900,1440 x 900
S014,48,Mannelijk,Rechts,4,37,left,no,350,leftarrow,475,true,focus,yes,1227884,Chrome,111.0,macOS,10.15.7,undefined,undefined,1440 x 900,1440 x 900
S014,48,Mannelijk,Rechts,4,38,right,no,350,rightarrow,736,true,focus,yes,1229382,Chrome,111.0,macOS,10.15.7,undefined,undefined,1440 x 900,1440 x 900
S014,48,Mannelijk,Rechts,4,39,right,yes,350,undefined,null,true,focus,yes,1231423,Chrome,111.0,macOS,10.15.7,undefined,undefined,1440 x 900,1440 x 900
S014,48,Mannelijk,Rechts,4,40,left,no,400,leftarrow,470,true,focus,yes,1232663,Chrome,111.0,macOS,10.15.7,undefined,undefined,1440 x 900,1440 x 900
S014,48,Mannelijk,Rechts,4,41,left,yes,400,undefined,null,true,focus,yes,1234687,Chrome,111.0,macOS,10.15.7,undefined,undefined,1440 x 900,1440 x 900
S014,48,Mannelijk,Rechts,4,42,right,yes,450,undefined,null,true,focus,yes,1236714,Chrome,111.0,macOS,10.15.7,undefined,undefined,1440 x 900,1440 x 900
S014,48,Mannelijk,Rechts,4,43,right,no,500,rightarrow,716,true,focus,yes,1238196,Chrome,111.0,macOS,10.15.7,undefined,undefined,1440 x 900,1440 x 900
S014,48,Mannelijk,Rechts,4,44,left,no,500,leftarrow,625,true,focus,yes,1239600,Chrome,111.0,macOS,10.15.7,undefined,undefined,1440 x 900,1440 x 900
S014,48,Mannelijk,Rechts,4,45,left,no,500,leftarrow,797,true,focus,yes,1241160,Chrome,111.0,macOS,10.15.7,undefined,undefined,1440 x 900,1440 x 900
S014,48,Mannelijk,Rechts,4,46,right,no,500,rightarrow,663,true,focus,yes,1242591,Chrome,111.0,macOS,10.15.7,undefined,undefined,1440 x 900,1440 x 900
S014,48,Mannelijk,Rechts,4,47,right,no,500,rightarrow,609,true,focus,yes,1243967,Chrome,111.0,macOS,10.15.7,undefined,undefined,1440 x 900,1440 x 900
S014,48,Mannelijk,Rechts,4,48,left,no,500,leftarrow,665,true,focus,yes,1245401,Chrome,111.0,macOS,10.15.7,undefined,undefined,1440 x 900,1440 x 900
S014,48,Mannelijk,Rechts,4,49,right,yes,500,rightarrow,536,false,focus,yes,1246704,Chrome,111.0,macOS,10.15.7,undefined,undefined,1440 x 900,1440 x 900
S014,48,Mannelijk,Rechts,4,50,left,no,450,leftarrow,814,true,focus,yes,1248285,Chrome,111.0,macOS,10.15.7,undefined,undefined,1440 x 900,1440 x 900
S014,48,Mannelijk,Rechts,4,51,right,no,450,rightarrow,811,true,focus,yes,1249858,Chrome,111.0,macOS,10.15.7,undefined,undefined,1440 x 900,1440 x 900
S014,48,Mannelijk,Rechts,4,52,left,no,450,leftarrow,624,true,focus,yes,1251243,Chrome,111.0,macOS,10.15.7,undefined,undefined,1440 x 900,1440 x 900
S014,48,Mannelijk,Rechts,4,53,left,no,450,leftarrow,614,true,focus,yes,1252622,Chrome,111.0,macOS,10.15.7,undefined,undefined,1440 x 900,1440 x 900
S014,48,Mannelijk,Rechts,4,54,left,yes,450,undefined,null,true,focus,yes,1254645,Chrome,111.0,macOS,10.15.7,undefined,undefined,1440 x 900,1440 x 900
S014,48,Mannelijk,Rechts,4,55,right,no,500,rightarrow,755,true,focus,yes,1256177,Chrome,111.0,macOS,10.15.7,undefined,undefined,1440 x 900,1440 x 900
S014,48,Mannelijk,Rechts,4,56,right,no,500,rightarrow,644,true,focus,yes,1257586,Chrome,111.0,macOS,10.15.7,undefined,undefined,1440 x 900,1440 x 900
S014,48,Mannelijk,Rechts,4,57,left,no,500,leftarrow,597,true,focus,yes,1258947,Chrome,111.0,macOS,10.15.7,undefined,undefined,1440 x 900,1440 x 900
S014,48,Mannelijk,Rechts,4,58,left,no,500,leftarrow,748,true,focus,yes,1260457,Chrome,111.0,macOS,10.15.7,undefined,undefined,1440 x 900,1440 x 900
S014,48,Mannelijk,Rechts,4,59,right,no,500,rightarrow,740,true,focus,yes,1261963,Chrome,111.0,macOS,10.15.7,undefined,undefined,1440 x 900,1440 x 900
S014,48,Mannelijk,Rechts,4,60,right,no,500,rightarrow,637,true,focus,yes,1263358,Chrome,111.0,macOS,10.15.7,undefined,undefined,1440 x 900,1440 x 900
S014,48,Mannelijk,Rechts,4,61,right,yes,500,undefined,null,true,focus,yes,1265373,Chrome,111.0,macOS,10.15.7,undefined,undefined,1440 x 900,1440 x 900
S014,48,Mannelijk,Rechts,4,62,left,yes,550,leftarrow,662,false,focus,yes,1266807,Chrome,111.0,macOS,10.15.7,undefined,undefined,1440 x 900,1440 x 900
S014,48,Mannelijk,Rechts,4,63,right,no,500,rightarrow,1055,true,focus,yes,1268640,Chrome,111.0,macOS,10.15.7,undefined,undefined,1440 x 900,1440 x 900
S014,48,Mannelijk,Rechts,4,64,left,no,500,leftarrow,673,true,focus,yes,1270078,Chrome,111.0,macOS,10.15.7,undefined,undefined,1440 x 900,1440 x 900
S014,48,Mannelijk,Rechts,4,65,right,yes,500,rightarrow,521,false,focus,yes,1271360,Chrome,111.0,macOS,10.15.7,undefined,undefined,1440 x 900,1440 x 900
S014,48,Mannelijk,Rechts,4,66,right,no,450,rightarrow,773,true,focus,yes,1272897,Chrome,111.0,macOS,10.15.7,undefined,undefined,1440 x 900,1440 x 900
S014,48,Mannelijk,Rechts,4,67,left,no,450,leftarrow,635,true,focus,yes,1274299,Chrome,111.0,macOS,10.15.7,undefined,undefined,1440 x 900,1440 x 900
S014,48,Mannelijk,Rechts,4,68,right,no,450,rightarrow,653,true,focus,yes,1275727,Chrome,111.0,macOS,10.15.7,undefined,undefined,1440 x 900,1440 x 900
S014,48,Mannelijk,Rechts,4,69,left,no,450,leftarrow,830,true,focus,yes,1277337,Chrome,111.0,macOS,10.15.7,undefined,undefined,1440 x 900,1440 x 900
S014,48,Mannelijk,Rechts,4,70,left,yes,450,undefined,null,true,focus,yes,1279358,Chrome,111.0,macOS,10.15.7,undefined,undefined,1440 x 900,1440 x 900
S014,48,Mannelijk,Rechts,4,71,left,no,500,leftarrow,1151,true,focus,yes,1281290,Chrome,111.0,macOS,10.15.7,undefined,undefined,1440 x 900,1440 x 900
S014,48,Mannelijk,Rechts,4,72,right,no,500,rightarrow,749,true,focus,yes,1282805,Chrome,111.0,macOS,10.15.7,undefined,undefined,1440 x 900,1440 x 900
S014,48,Mannelijk,Rechts,4,73,right,no,500,rightarrow,783,true,focus,yes,1284361,Chrome,111.0,macOS,10.15.7,undefined,undefined,1440 x 900,1440 x 900
S014,48,Mannelijk,Rechts,4,74,left,yes,500,undefined,null,true,focus,yes,1286379,Chrome,111.0,macOS,10.15.7,undefined,undefined,1440 x 900,1440 x 900
S014,48,Mannelijk,Rechts,4,75,left,no,550,leftarrow,632,true,focus,yes,1287788,Chrome,111.0,macOS,10.15.7,undefined,undefined,1440 x 900,1440 x 900
S014,48,Mannelijk,Rechts,4,76,left,no,550,leftarrow,766,true,focus,yes,1289314,Chrome,111.0,macOS,10.15.7,undefined,undefined,1440 x 900,1440 x 900
S014,48,Mannelijk,Rechts,4,77,right,no,550,rightarrow,452,true,focus,yes,1290528,Chrome,111.0,macOS,10.15.7,undefined,undefined,1440 x 900,1440 x 900
S014,48,Mannelijk,Rechts,4,78,left,no,550,leftarrow,573,true,focus,yes,1291870,Chrome,111.0,macOS,10.15.7,undefined,undefined,1440 x 900,1440 x 900
S014,48,Mannelijk,Rechts,4,79,right,yes,550,rightarrow,532,false,focus,yes,1293173,Chrome,111.0,macOS,10.15.7,undefined,undefined,1440 x 900,1440 x 900
S014,48,Mannelijk,Rechts,4,80,right,no,500,rightarrow,775,true,focus,yes,1294708,Chrome,111.0,macOS,10.15.7,undefined,undefined,1440 x 900,1440 x 900
S014,48,Mannelijk,Rechts,4,81,right,no,500,rightarrow,822,true,focus,yes,1296294,Chrome,111.0,macOS,10.15.7,undefined,undefined,1440 x 900,1440 x 900
S014,48,Mannelijk,Rechts,4,82,right,no,500,rightarrow,522,true,focus,yes,1297575,Chrome,111.0,macOS,10.15.7,undefined,undefined,1440 x 900,1440 x 900
S014,48,Mannelijk,Rechts,4,83,left,no,500,leftarrow,511,true,focus,yes,1298867,Chrome,111.0,macOS,10.15.7,undefined,undefined,1440 x 900,1440 x 900
S014,48,Mannelijk,Rechts,4,84,left,yes,500,leftarrow,494,false,focus,yes,1300122,Chrome,111.0,macOS,10.15.7,undefined,undefined,1440 x 900,1440 x 900
S014,48,Mannelijk,Rechts,4,85,right,no,450,rightarrow,473,true,focus,yes,1301370,Chrome,111.0,macOS,10.15.7,undefined,undefined,1440 x 900,1440 x 900
S014,48,Mannelijk,Rechts,4,86,left,no,450,leftarrow,690,true,focus,yes,1302829,Chrome,111.0,macOS,10.15.7,undefined,undefined,1440 x 900,1440 x 900
S014,48,Mannelijk,Rechts,4,87,left,no,450,leftarrow,660,true,focus,yes,1304253,Chrome,111.0,macOS,10.15.7,undefined,undefined,1440 x 900,1440 x 900
S014,48,Mannelijk,Rechts,4,88,right,yes,450,rightarrow,479,false,focus,yes,1305505,Chrome,111.0,macOS,10.15.7,undefined,undefined,1440 x 900,1440 x 900
S014,48,Mannelijk,Rechts,4,89,left,no,400,leftarrow,676,true,focus,yes,1306941,Chrome,111.0,macOS,10.15.7,undefined,undefined,1440 x 900,1440 x 900
S014,48,Mannelijk,Rechts,4,90,right,yes,400,rightarrow,497,false,focus,yes,1308212,Chrome,111.0,macOS,10.15.7,undefined,undefined,1440 x 900,1440 x 900
S014,48,Mannelijk,Rechts,4,91,left,no,350,leftarrow,445,true,focus,yes,1309424,Chrome,111.0,macOS,10.15.7,undefined,undefined,1440 x 900,1440 x 900
S014,48,Mannelijk,Rechts,4,92,left,no,350,leftarrow,667,true,focus,yes,1310873,Chrome,111.0,macOS,10.15.7,undefined,undefined,1440 x 900,1440 x 900
S014,48,Mannelijk,Rechts,4,93,left,yes,350,undefined,null,true,focus,yes,1312897,Chrome,111.0,macOS,10.15.7,undefined,undefined,1440 x 900,1440 x 900
S014,48,Mannelijk,Rechts,4,94,right,no,400,rightarrow,425,true,focus,yes,1314102,Chrome,111.0,macOS,10.15.7,undefined,undefined,1440 x 900,1440 x 900
S014,48,Mannelijk,Rechts,4,95,right,no,400,rightarrow,656,true,focus,yes,1315517,Chrome,111.0,macOS,10.15.7,undefined,undefined,1440 x 900,1440 x 900
S014,48,Mannelijk,Rechts,4,96,right,no,400,rightarrow,751,true,focus,yes,1317028,Chrome,111.0,macOS,10.15.7,undefined,undefined,1440 x 900,1440 x 900
S014,48,Mannelijk,Rechts,4,97,left,no,400,leftarrow,801,true,focus,yes,1318591,Chrome,111.0,macOS,10.15.7,undefined,undefined,1440 x 900,1440 x 900
S014,48,Mannelijk,Rechts,4,98,left,no,400,leftarrow,520,true,focus,yes,1319884,Chrome,111.0,macOS,10.15.7,undefined,undefined,1440 x 900,1440 x 900
S014,48,Mannelijk,Rechts,4,99,right,yes,400,undefined,null,true,focus,yes,1321905,Chrome,111.0,macOS,10.15.7,undefined,undefined,1440 x 900,1440 x 900
S014,48,Mannelijk,Rechts,4,100,left,no,450,leftarrow,451,true,focus,yes,1323128,Chrome,111.0,macOS,10.15.7,undefined,undefined,1440 x 900,1440 x 900
S014,48,Mannelijk,Rechts,4,101,right,no,450,rightarrow,548,true,focus,yes,1324433,Chrome,111.0,macOS,10.15.7,undefined,undefined,1440 x 900,1440 x 900
S014,48,Mannelijk,Rechts,4,102,right,no,450,rightarrow,640,true,focus,yes,1325852,Chrome,111.0,macOS,10.15.7,undefined,undefined,1440 x 900,1440 x 900
S014,48,Mannelijk,Rechts,4,103,right,no,450,rightarrow,720,true,focus,yes,1327348,Chrome,111.0,macOS,10.15.7,undefined,undefined,1440 x 900,1440 x 900
S014,48,Mannelijk,Rechts,4,104,left,yes,450,leftarrow,666,false,focus,yes,1328790,Chrome,111.0,macOS,10.15.7,undefined,undefined,1440 x 900,1440 x 900
S014,48,Mannelijk,Rechts,4,105,left,no,400,leftarrow,653,true,focus,yes,1330204,Chrome,111.0,macOS,10.15.7,undefined,undefined,1440 x 900,1440 x 900
S014,48,Mannelijk,Rechts,4,106,right,no,400,rightarrow,556,true,focus,yes,1331526,Chrome,111.0,macOS,10.15.7,undefined,undefined,1440 x 900,1440 x 900
S014,48,Mannelijk,Rechts,4,107,right,no,400,rightarrow,638,true,focus,yes,1332928,Chrome,111.0,macOS,10.15.7,undefined,undefined,1440 x 900,1440 x 900
S014,48,Mannelijk,Rechts,4,108,right,yes,400,rightarrow,460,false,focus,yes,1334169,Chrome,111.0,macOS,10.15.7,undefined,undefined,1440 x 900,1440 x 900
S014,48,Mannelijk,Rechts,4,109,left,yes,350,leftarrow,477,false,focus,yes,1335417,Chrome,111.0,macOS,10.15.7,undefined,undefined,1440 x 900,1440 x 900
S014,48,Mannelijk,Rechts,4,110,left,no,300,leftarrow,601,true,focus,yes,1336787,Chrome,111.0,macOS,10.15.7,undefined,undefined,1440 x 900,1440 x 900
S014,48,Mannelijk,Rechts,4,111,right,no,300,rightarrow,464,true,focus,yes,1338011,Chrome,111.0,macOS,10.15.7,undefined,undefined,1440 x 900,1440 x 900
S014,48,Mannelijk,Rechts,4,112,left,no,300,leftarrow,572,true,focus,yes,1339358,Chrome,111.0,macOS,10.15.7,undefined,undefined,1440 x 900,1440 x 900
S014,48,Mannelijk,Rechts,4,113,right,no,300,rightarrow,445,true,focus,yes,1340577,Chrome,111.0,macOS,10.15.7,undefined,undefined,1440 x 900,1440 x 900
S014,48,Mannelijk,Rechts,4,114,left,yes,300,undefined,null,true,focus,yes,1342592,Chrome,111.0,macOS,10.15.7,undefined,undefined,1440 x 900,1440 x 900
S014,48,Mannelijk,Rechts,4,115,left,no,350,leftarrow,597,true,focus,yes,1343971,Chrome,111.0,macOS,10.15.7,undefined,undefined,1440 x 900,1440 x 900
S014,48,Mannelijk,Rechts,4,116,left,no,350,leftarrow,534,true,focus,yes,1345267,Chrome,111.0,macOS,10.15.7,undefined,undefined,1440 x 900,1440 x 900
S014,48,Mannelijk,Rechts,4,117,left,no,350,leftarrow,592,true,focus,yes,1346636,Chrome,111.0,macOS,10.15.7,undefined,undefined,1440 x 900,1440 x 900
S014,48,Mannelijk,Rechts,4,118,right,yes,350,rightarrow,562,false,focus,yes,1347965,Chrome,111.0,macOS,10.15.7,undefined,undefined,1440 x 900,1440 x 900
S014,48,Mannelijk,Rechts,4,119,right,no,300,rightarrow,826,true,focus,yes,1349552,Chrome,111.0,macOS,10.15.7,undefined,undefined,1440 x 900,1440 x 900
S014,48,Mannelijk,Rechts,4,120,right,no,300,rightarrow,786,true,focus,yes,1351096,Chrome,111.0,macOS,10.15.7,undefined,undefined,1440 x 900,1440 x 900
S014,48,Mannelijk,Rechts,4,121,right,yes,300,undefined,null,true,focus,yes,1353138,Chrome,111.0,macOS,10.15.7,undefined,undefined,1440 x 900,1440 x 900
S014,48,Mannelijk,Rechts,4,122,left,yes,350,undefined,null,true,focus,yes,1355170,Chrome,111.0,macOS,10.15.7,undefined,undefined,1440 x 900,1440 x 900
S014,48,Mannelijk,Rechts,4,123,left,no,400,leftarrow,602,true,focus,yes,1356544,Chrome,111.0,macOS,10.15.7,undefined,undefined,1440 x 900,1440 x 900
S014,48,Mannelijk,Rechts,4,124,right,no,400,rightarrow,487,true,focus,yes,1357794,Chrome,111.0,macOS,10.15.7,undefined,undefined,1440 x 900,1440 x 900
S014,48,Mannelijk,Rechts,4,125,right,no,400,rightarrow,650,true,focus,yes,1359206,Chrome,111.0,macOS,10.15.7,undefined,undefined,1440 x 900,1440 x 900
S014,48,Mannelijk,Rechts,4,126,right,no,400,rightarrow,703,true,focus,yes,1360683,Chrome,111.0,macOS,10.15.7,undefined,undefined,1440 x 900,1440 x 900
S014,48,Mannelijk,Rechts,4,127,left,no,400,leftarrow,675,true,focus,yes,1362122,Chrome,111.0,macOS,10.15.7,undefined,undefined,1440 x 900,1440 x 900
S014,48,Mannelijk,Rechts,4,128,left,no,400,leftarrow,729,true,focus,yes,1363612,Chrome,111.0,macOS,10.15.7,undefined,undefined,1440 x 900,1440 x 900
S014,48,Mannelijk,Rechts,5,1,left,no,400,leftarrow,509,true,focus,yes,1383785,Chrome,111.0,macOS,10.15.7,undefined,undefined,1440 x 900,1440 x 900
S014,48,Mannelijk,Rechts,5,2,right,no,400,rightarrow,747,true,focus,yes,1385294,Chrome,111.0,macOS,10.15.7,undefined,undefined,1440 x 900,1440 x 900
S014,48,Mannelijk,Rechts,5,3,left,no,400,leftarrow,657,true,focus,yes,1386725,Chrome,111.0,macOS,10.15.7,undefined,undefined,1440 x 900,1440 x 900
S014,48,Mannelijk,Rechts,5,4,right,no,400,rightarrow,506,true,focus,yes,1388006,Chrome,111.0,macOS,10.15.7,undefined,undefined,1440 x 900,1440 x 900
S014,48,Mannelijk,Rechts,5,5,right,no,400,rightarrow,500,true,focus,yes,1389271,Chrome,111.0,macOS,10.15.7,undefined,undefined,1440 x 900,1440 x 900
S014,48,Mannelijk,Rechts,5,6,left,no,400,leftarrow,552,true,focus,yes,1390597,Chrome,111.0,macOS,10.15.7,undefined,undefined,1440 x 900,1440 x 900
S014,48,Mannelijk,Rechts,5,7,right,yes,400,rightarrow,539,false,focus,yes,1391903,Chrome,111.0,macOS,10.15.7,undefined,undefined,1440 x 900,1440 x 900
S014,48,Mannelijk,Rechts,5,8,left,yes,350,undefined,null,true,focus,yes,1393923,Chrome,111.0,macOS,10.15.7,undefined,undefined,1440 x 900,1440 x 900
S014,48,Mannelijk,Rechts,5,9,right,yes,400,rightarrow,517,false,focus,yes,1395213,Chrome,111.0,macOS,10.15.7,undefined,undefined,1440 x 900,1440 x 900
S014,48,Mannelijk,Rechts,5,10,right,no,350,rightarrow,771,true,focus,yes,1396750,Chrome,111.0,macOS,10.15.7,undefined,undefined,1440 x 900,1440 x 900
S014,48,Mannelijk,Rechts,5,11,left,no,350,leftarrow,745,true,focus,yes,1398260,Chrome,111.0,macOS,10.15.7,undefined,undefined,1440 x 900,1440 x 900
S014,48,Mannelijk,Rechts,5,12,right,no,350,rightarrow,764,true,focus,yes,1399789,Chrome,111.0,macOS,10.15.7,undefined,undefined,1440 x 900,1440 x 900
S014,48,Mannelijk,Rechts,5,13,right,no,350,rightarrow,734,true,focus,yes,1401286,Chrome,111.0,macOS,10.15.7,undefined,undefined,1440 x 900,1440 x 900
S014,48,Mannelijk,Rechts,5,14,left,no,350,leftarrow,792,true,focus,yes,1402844,Chrome,111.0,macOS,10.15.7,undefined,undefined,1440 x 900,1440 x 900
S014,48,Mannelijk,Rechts,5,15,left,yes,350,undefined,null,true,focus,yes,1404868,Chrome,111.0,macOS,10.15.7,undefined,undefined,1440 x 900,1440 x 900
S014,48,Mannelijk,Rechts,5,16,left,no,400,leftarrow,806,true,focus,yes,1406447,Chrome,111.0,macOS,10.15.7,undefined,undefined,1440 x 900,1440 x 900
S014,48,Mannelijk,Rechts,5,17,right,no,400,rightarrow,784,true,focus,yes,1407996,Chrome,111.0,macOS,10.15.7,undefined,undefined,1440 x 900,1440 x 900
S014,48,Mannelijk,Rechts,5,18,right,no,400,rightarrow,887,true,focus,yes,1409651,Chrome,111.0,macOS,10.15.7,undefined,undefined,1440 x 900,1440 x 900
S014,48,Mannelijk,Rechts,5,19,right,no,400,rightarrow,681,true,focus,yes,1411111,Chrome,111.0,macOS,10.15.7,undefined,undefined,1440 x 900,1440 x 900
S014,48,Mannelijk,Rechts,5,20,right,yes,400,undefined,null,true,focus,yes,1413132,Chrome,111.0,macOS,10.15.7,undefined,undefined,1440 x 900,1440 x 900
S014,48,Mannelijk,Rechts,5,21,left,no,450,leftarrow,793,true,focus,yes,1414689,Chrome,111.0,macOS,10.15.7,undefined,undefined,1440 x 900,1440 x 900
S014,48,Mannelijk,Rechts,5,22,left,no,450,leftarrow,659,true,focus,yes,1416112,Chrome,111.0,macOS,10.15.7,undefined,undefined,1440 x 900,1440 x 900
S014,48,Mannelijk,Rechts,5,23,left,yes,450,undefined,null,true,focus,yes,1418129,Chrome,111.0,macOS,10.15.7,undefined,undefined,1440 x 900,1440 x 900
S014,48,Mannelijk,Rechts,5,24,left,no,500,leftarrow,780,true,focus,yes,1419672,Chrome,111.0,macOS,10.15.7,undefined,undefined,1440 x 900,1440 x 900
S014,48,Mannelijk,Rechts,5,25,left,yes,500,undefined,null,true,focus,yes,1421690,Chrome,111.0,macOS,10.15.7,undefined,undefined,1440 x 900,1440 x 900
S014,48,Mannelijk,Rechts,5,26,left,no,550,leftarrow,763,true,focus,yes,1423227,Chrome,111.0,macOS,10.15.7,undefined,undefined,1440 x 900,1440 x 900
S014,48,Mannelijk,Rechts,5,27,right,no,550,rightarrow,659,true,focus,yes,1424668,Chrome,111.0,macOS,10.15.7,undefined,undefined,1440 x 900,1440 x 900
S014,48,Mannelijk,Rechts,5,28,left,no,550,leftarrow,788,true,focus,yes,1426221,Chrome,111.0,macOS,10.15.7,undefined,undefined,1440 x 900,1440 x 900
S014,48,Mannelijk,Rechts,5,29,left,no,550,leftarrow,1073,true,focus,yes,1428072,Chrome,111.0,macOS,10.15.7,undefined,undefined,1440 x 900,1440 x 900
S014,48,Mannelijk,Rechts,5,30,right,no,550,rightarrow,957,true,focus,yes,1429794,Chrome,111.0,macOS,10.15.7,undefined,undefined,1440 x 900,1440 x 900
S014,48,Mannelijk,Rechts,5,31,right,yes,550,undefined,null,true,focus,yes,1431829,Chrome,111.0,macOS,10.15.7,undefined,undefined,1440 x 900,1440 x 900
S014,48,Mannelijk,Rechts,5,32,right,no,600,rightarrow,609,true,focus,yes,1433206,Chrome,111.0,macOS,10.15.7,undefined,undefined,1440 x 900,1440 x 900
S014,48,Mannelijk,Rechts,5,33,left,yes,600,leftarrow,643,false,focus,yes,1434623,Chrome,111.0,macOS,10.15.7,undefined,undefined,1440 x 900,1440 x 900
S014,48,Mannelijk,Rechts,5,34,right,yes,550,rightarrow,695,false,focus,yes,1436084,Chrome,111.0,macOS,10.15.7,undefined,undefined,1440 x 900,1440 x 900
S014,48,Mannelijk,Rechts,5,35,left,no,500,leftarrow,776,true,focus,yes,1437621,Chrome,111.0,macOS,10.15.7,undefined,undefined,1440 x 900,1440 x 900
S014,48,Mannelijk,Rechts,5,36,right,no,500,rightarrow,802,true,focus,yes,1439192,Chrome,111.0,macOS,10.15.7,undefined,undefined,1440 x 900,1440 x 900
S014,48,Mannelijk,Rechts,5,37,right,no,500,rightarrow,582,true,focus,yes,1440539,Chrome,111.0,macOS,10.15.7,undefined,undefined,1440 x 900,1440 x 900
S014,48,Mannelijk,Rechts,5,38,left,no,500,leftarrow,619,true,focus,yes,1441927,Chrome,111.0,macOS,10.15.7,undefined,undefined,1440 x 900,1440 x 900
S014,48,Mannelijk,Rechts,5,39,right,no,500,rightarrow,502,true,focus,yes,1443195,Chrome,111.0,macOS,10.15.7,undefined,undefined,1440 x 900,1440 x 900
S014,48,Mannelijk,Rechts,5,40,left,no,500,leftarrow,786,true,focus,yes,1444763,Chrome,111.0,macOS,10.15.7,undefined,undefined,1440 x 900,1440 x 900
S014,48,Mannelijk,Rechts,5,41,left,no,500,leftarrow,720,true,focus,yes,1446255,Chrome,111.0,macOS,10.15.7,undefined,undefined,1440 x 900,1440 x 900
S014,48,Mannelijk,Rechts,5,42,left,yes,500,undefined,null,true,focus,yes,1448277,Chrome,111.0,macOS,10.15.7,undefined,undefined,1440 x 900,1440 x 900
S014,48,Mannelijk,Rechts,5,43,right,no,550,rightarrow,614,true,focus,yes,1449661,Chrome,111.0,macOS,10.15.7,undefined,undefined,1440 x 900,1440 x 900
S014,48,Mannelijk,Rechts,5,44,right,no,550,rightarrow,604,true,focus,yes,1451034,Chrome,111.0,macOS,10.15.7,undefined,undefined,1440 x 900,1440 x 900
S014,48,Mannelijk,Rechts,5,45,left,no,550,leftarrow,665,true,focus,yes,1452473,Chrome,111.0,macOS,10.15.7,undefined,undefined,1440 x 900,1440 x 900
S014,48,Mannelijk,Rechts,5,46,left,no,550,leftarrow,692,true,focus,yes,1453938,Chrome,111.0,macOS,10.15.7,undefined,undefined,1440 x 900,1440 x 900
S014,48,Mannelijk,Rechts,5,47,right,no,550,rightarrow,611,true,focus,yes,1455312,Chrome,111.0,macOS,10.15.7,undefined,undefined,1440 x 900,1440 x 900
S014,48,Mannelijk,Rechts,5,48,right,yes,550,rightarrow,591,false,focus,yes,1456668,Chrome,111.0,macOS,10.15.7,undefined,undefined,1440 x 900,1440 x 900
S014,48,Mannelijk,Rechts,5,49,left,no,500,leftarrow,615,true,focus,yes,1458053,Chrome,111.0,macOS,10.15.7,undefined,undefined,1440 x 900,1440 x 900
S014,48,Mannelijk,Rechts,5,50,left,yes,500,leftarrow,665,false,focus,yes,1459486,Chrome,111.0,macOS,10.15.7,undefined,undefined,1440 x 900,1440 x 900
S014,48,Mannelijk,Rechts,5,51,right,no,450,rightarrow,530,true,focus,yes,1460785,Chrome,111.0,macOS,10.15.7,undefined,undefined,1440 x 900,1440 x 900
S014,48,Mannelijk,Rechts,5,52,left,no,450,leftarrow,559,true,focus,yes,1462110,Chrome,111.0,macOS,10.15.7,undefined,undefined,1440 x 900,1440 x 900
S014,48,Mannelijk,Rechts,5,53,right,yes,450,rightarrow,496,false,focus,yes,1463374,Chrome,111.0,macOS,10.15.7,undefined,undefined,1440 x 900,1440 x 900
S014,48,Mannelijk,Rechts,5,54,right,no,400,rightarrow,914,true,focus,yes,1465056,Chrome,111.0,macOS,10.15.7,undefined,undefined,1440 x 900,1440 x 900
S014,48,Mannelijk,Rechts,5,55,right,no,400,rightarrow,783,true,focus,yes,1466604,Chrome,111.0,macOS,10.15.7,undefined,undefined,1440 x 900,1440 x 900
S014,48,Mannelijk,Rechts,5,56,left,no,400,leftarrow,626,true,focus,yes,1468003,Chrome,111.0,macOS,10.15.7,undefined,undefined,1440 x 900,1440 x 900
S014,48,Mannelijk,Rechts,5,57,right,no,400,rightarrow,753,true,focus,yes,1469519,Chrome,111.0,macOS,10.15.7,undefined,undefined,1440 x 900,1440 x 900
S014,48,Mannelijk,Rechts,5,58,left,no,400,leftarrow,658,true,focus,yes,1470944,Chrome,111.0,macOS,10.15.7,undefined,undefined,1440 x 900,1440 x 900
S014,48,Mannelijk,Rechts,5,59,left,no,400,leftarrow,855,true,focus,yes,1472566,Chrome,111.0,macOS,10.15.7,undefined,undefined,1440 x 900,1440 x 900
S014,48,Mannelijk,Rechts,5,60,right,yes,400,undefined,null,true,focus,yes,1474589,Chrome,111.0,macOS,10.15.7,undefined,undefined,1440 x 900,1440 x 900
S014,48,Mannelijk,Rechts,5,61,right,no,450,rightarrow,577,true,focus,yes,1475939,Chrome,111.0,macOS,10.15.7,undefined,undefined,1440 x 900,1440 x 900
S014,48,Mannelijk,Rechts,5,62,right,no,450,rightarrow,482,true,focus,yes,1477184,Chrome,111.0,macOS,10.15.7,undefined,undefined,1440 x 900,1440 x 900
S014,48,Mannelijk,Rechts,5,63,left,yes,450,leftarrow,538,false,focus,yes,1478485,Chrome,111.0,macOS,10.15.7,undefined,undefined,1440 x 900,1440 x 900
S014,48,Mannelijk,Rechts,5,64,left,no,400,leftarrow,670,true,focus,yes,1479936,Chrome,111.0,macOS,10.15.7,undefined,undefined,1440 x 900,1440 x 900
S014,48,Mannelijk,Rechts,5,65,right,no,400,rightarrow,666,true,focus,yes,1481368,Chrome,111.0,macOS,10.15.7,undefined,undefined,1440 x 900,1440 x 900
S014,48,Mannelijk,Rechts,5,66,left,yes,400,leftarrow,526,false,focus,yes,1482668,Chrome,111.0,macOS,10.15.7,undefined,undefined,1440 x 900,1440 x 900
S014,48,Mannelijk,Rechts,5,67,left,no,350,leftarrow,901,true,focus,yes,1484341,Chrome,111.0,macOS,10.15.7,undefined,undefined,1440 x 900,1440 x 900
S014,48,Mannelijk,Rechts,5,68,right,yes,350,undefined,null,true,focus,yes,1486373,Chrome,111.0,macOS,10.15.7,undefined,undefined,1440 x 900,1440 x 900
S014,48,Mannelijk,Rechts,5,69,right,no,400,rightarrow,666,true,focus,yes,1487813,Chrome,111.0,macOS,10.15.7,undefined,undefined,1440 x 900,1440 x 900
S014,48,Mannelijk,Rechts,5,70,left,no,400,leftarrow,370,true,focus,yes,1488951,Chrome,111.0,macOS,10.15.7,undefined,undefined,1440 x 900,1440 x 900
S014,48,Mannelijk,Rechts,5,71,right,no,400,rightarrow,533,true,focus,yes,1490252,Chrome,111.0,macOS,10.15.7,undefined,undefined,1440 x 900,1440 x 900
S014,48,Mannelijk,Rechts,5,72,left,no,400,leftarrow,470,true,focus,yes,1491486,Chrome,111.0,macOS,10.15.7,undefined,undefined,1440 x 900,1440 x 900
S014,48,Mannelijk,Rechts,5,73,right,yes,400,rightarrow,495,false,focus,yes,1492752,Chrome,111.0,macOS,10.15.7,undefined,undefined,1440 x 900,1440 x 900
S014,48,Mannelijk,Rechts,5,74,right,no,350,rightarrow,767,true,focus,yes,1494282,Chrome,111.0,macOS,10.15.7,undefined,undefined,1440 x 900,1440 x 900
S014,48,Mannelijk,Rechts,5,75,left,no,350,leftarrow,730,true,focus,yes,1495785,Chrome,111.0,macOS,10.15.7,undefined,undefined,1440 x 900,1440 x 900
S014,48,Mannelijk,Rechts,5,76,right,no,350,rightarrow,430,true,focus,yes,1496977,Chrome,111.0,macOS,10.15.7,undefined,undefined,1440 x 900,1440 x 900
S014,48,Mannelijk,Rechts,5,77,left,no,350,leftarrow,534,true,focus,yes,1498277,Chrome,111.0,macOS,10.15.7,undefined,undefined,1440 x 900,1440 x 900
S014,48,Mannelijk,Rechts,5,78,left,yes,350,undefined,null,true,focus,yes,1500308,Chrome,111.0,macOS,10.15.7,undefined,undefined,1440 x 900,1440 x 900
S014,48,Mannelijk,Rechts,5,79,left,no,400,leftarrow,648,true,focus,yes,1501719,Chrome,111.0,macOS,10.15.7,undefined,undefined,1440 x 900,1440 x 900
S014,48,Mannelijk,Rechts,5,80,right,no,400,rightarrow,638,true,focus,yes,1503125,Chrome,111.0,macOS,10.15.7,undefined,undefined,1440 x 900,1440 x 900
S014,48,Mannelijk,Rechts,5,81,left,yes,400,leftarrow,568,false,focus,yes,1504475,Chrome,111.0,macOS,10.15.7,undefined,undefined,1440 x 900,1440 x 900
S014,48,Mannelijk,Rechts,5,82,right,no,350,rightarrow,413,true,focus,yes,1505648,Chrome,111.0,macOS,10.15.7,undefined,undefined,1440 x 900,1440 x 900
S014,48,Mannelijk,Rechts,5,83,left,no,350,leftarrow,775,true,focus,yes,1507190,Chrome,111.0,macOS,10.15.7,undefined,undefined,1440 x 900,1440 x 900
S014,48,Mannelijk,Rechts,5,84,right,no,350,rightarrow,722,true,focus,yes,1508693,Chrome,111.0,macOS,10.15.7,undefined,undefined,1440 x 900,1440 x 900
S014,48,Mannelijk,Rechts,5,85,right,yes,350,undefined,null,true,focus,yes,1510722,Chrome,111.0,macOS,10.15.7,undefined,undefined,1440 x 900,1440 x 900
S014,48,Mannelijk,Rechts,5,86,left,no,400,leftarrow,442,true,focus,yes,1511929,Chrome,111.0,macOS,10.15.7,undefined,undefined,1440 x 900,1440 x 900
S014,48,Mannelijk,Rechts,5,87,right,no,400,rightarrow,615,true,focus,yes,1513310,Chrome,111.0,macOS,10.15.7,undefined,undefined,1440 x 900,1440 x 900
S014,48,Mannelijk,Rechts,5,88,left,no,400,leftarrow,628,true,focus,yes,1514715,Chrome,111.0,macOS,10.15.7,undefined,undefined,1440 x 900,1440 x 900
S014,48,Mannelijk,Rechts,5,89,left,yes,400,undefined,null,true,focus,yes,1516735,Chrome,111.0,macOS,10.15.7,undefined,undefined,1440 x 900,1440 x 900
S014,48,Mannelijk,Rechts,5,90,right,yes,450,rightarrow,404,false,focus,yes,1517915,Chrome,111.0,macOS,10.15.7,undefined,undefined,1440 x 900,1440 x 900
S014,48,Mannelijk,Rechts,5,91,right,no,400,rightarrow,616,true,focus,yes,1519296,Chrome,111.0,macOS,10.15.7,undefined,undefined,1440 x 900,1440 x 900
S014,48,Mannelijk,Rechts,5,92,left,no,400,leftarrow,478,true,focus,yes,1520552,Chrome,111.0,macOS,10.15.7,undefined,undefined,1440 x 900,1440 x 900
S014,48,Mannelijk,Rechts,5,93,right,no,400,rightarrow,774,true,focus,yes,1522090,Chrome,111.0,macOS,10.15.7,undefined,undefined,1440 x 900,1440 x 900
S014,48,Mannelijk,Rechts,5,94,left,no,400,leftarrow,671,true,focus,yes,1523527,Chrome,111.0,macOS,10.15.7,undefined,undefined,1440 x 900,1440 x 900
S014,48,Mannelijk,Rechts,5,95,right,no,400,rightarrow,503,true,focus,yes,1524798,Chrome,111.0,macOS,10.15.7,undefined,undefined,1440 x 900,1440 x 900
S014,48,Mannelijk,Rechts,5,96,left,no,400,leftarrow,724,true,focus,yes,1526303,Chrome,111.0,macOS,10.15.7,undefined,undefined,1440 x 900,1440 x 900
S014,48,Mannelijk,Rechts,5,97,right,no,400,rightarrow,523,true,focus,yes,1527595,Chrome,111.0,macOS,10.15.7,undefined,undefined,1440 x 900,1440 x 900
S014,48,Mannelijk,Rechts,5,98,right,yes,400,undefined,null,true,focus,yes,1529630,Chrome,111.0,macOS,10.15.7,undefined,undefined,1440 x 900,1440 x 900
S014,48,Mannelijk,Rechts,5,99,left,no,450,leftarrow,580,true,focus,yes,1530988,Chrome,111.0,macOS,10.15.7,undefined,undefined,1440 x 900,1440 x 900
S014,48,Mannelijk,Rechts,5,100,left,no,450,leftarrow,545,true,focus,yes,1532304,Chrome,111.0,macOS,10.15.7,undefined,undefined,1440 x 900,1440 x 900
S014,48,Mannelijk,Rechts,5,101,left,no,450,leftarrow,737,true,focus,yes,1533810,Chrome,111.0,macOS,10.15.7,undefined,undefined,1440 x 900,1440 x 900
S014,48,Mannelijk,Rechts,5,102,right,no,450,rightarrow,562,true,focus,yes,1535132,Chrome,111.0,macOS,10.15.7,undefined,undefined,1440 x 900,1440 x 900
S014,48,Mannelijk,Rechts,5,103,left,yes,450,leftarrow,638,false,focus,yes,1536544,Chrome,111.0,macOS,10.15.7,undefined,undefined,1440 x 900,1440 x 900
S014,48,Mannelijk,Rechts,5,104,right,no,400,rightarrow,636,true,focus,yes,1537944,Chrome,111.0,macOS,10.15.7,undefined,undefined,1440 x 900,1440 x 900
S014,48,Mannelijk,Rechts,5,105,left,no,400,leftarrow,674,true,focus,yes,1539394,Chrome,111.0,macOS,10.15.7,undefined,undefined,1440 x 900,1440 x 900
S014,48,Mannelijk,Rechts,5,106,right,no,400,rightarrow,531,true,focus,yes,1540692,Chrome,111.0,macOS,10.15.7,undefined,undefined,1440 x 900,1440 x 900
S014,48,Mannelijk,Rechts,5,107,right,no,400,rightarrow,553,true,focus,yes,1542009,Chrome,111.0,macOS,10.15.7,undefined,undefined,1440 x 900,1440 x 900
S014,48,Mannelijk,Rechts,5,108,right,yes,400,undefined,null,true,focus,yes,1544032,Chrome,111.0,macOS,10.15.7,undefined,undefined,1440 x 900,1440 x 900
S014,48,Mannelijk,Rechts,5,109,left,no,450,leftarrow,727,true,focus,yes,1545523,Chrome,111.0,macOS,10.15.7,undefined,undefined,1440 x 900,1440 x 900
S014,48,Mannelijk,Rechts,5,110,left,no,450,leftarrow,746,true,focus,yes,1547030,Chrome,111.0,macOS,10.15.7,undefined,undefined,1440 x 900,1440 x 900
S014,48,Mannelijk,Rechts,5,111,left,yes,450,leftarrow,575,false,focus,yes,1548375,Chrome,111.0,macOS,10.15.7,undefined,undefined,1440 x 900,1440 x 900
S014,48,Mannelijk,Rechts,5,112,right,no,400,rightarrow,391,true,focus,yes,1549539,Chrome,111.0,macOS,10.15.7,undefined,undefined,1440 x 900,1440 x 900
S014,48,Mannelijk,Rechts,5,113,right,no,400,rightarrow,448,true,focus,yes,1550752,Chrome,111.0,macOS,10.15.7,undefined,undefined,1440 x 900,1440 x 900
S014,48,Mannelijk,Rechts,5,114,left,no,400,leftarrow,646,true,focus,yes,1552178,Chrome,111.0,macOS,10.15.7,undefined,undefined,1440 x 900,1440 x 900
S014,48,Mannelijk,Rechts,5,115,left,yes,400,undefined,null,true,focus,yes,1554200,Chrome,111.0,macOS,10.15.7,undefined,undefined,1440 x 900,1440 x 900
S014,48,Mannelijk,Rechts,5,116,left,no,450,leftarrow,576,true,focus,yes,1555547,Chrome,111.0,macOS,10.15.7,undefined,undefined,1440 x 900,1440 x 900
S014,48,Mannelijk,Rechts,5,117,right,no,450,rightarrow,534,true,focus,yes,1556856,Chrome,111.0,macOS,10.15.7,undefined,undefined,1440 x 900,1440 x 900
S014,48,Mannelijk,Rechts,5,118,left,no,450,leftarrow,798,true,focus,yes,1558423,Chrome,111.0,macOS,10.15.7,undefined,undefined,1440 x 900,1440 x 900
S014,48,Mannelijk,Rechts,5,119,right,no,450,rightarrow,837,true,focus,yes,1560042,Chrome,111.0,macOS,10.15.7,undefined,undefined,1440 x 900,1440 x 900
S014,48,Mannelijk,Rechts,5,120,right,yes,450,rightarrow,623,false,focus,yes,1561428,Chrome,111.0,macOS,10.15.7,undefined,undefined,1440 x 900,1440 x 900
S014,48,Mannelijk,Rechts,5,121,right,no,400,leftarrow,504,false,focus,yes,1562697,Chrome,111.0,macOS,10.15.7,undefined,undefined,1440 x 900,1440 x 900
S014,48,Mannelijk,Rechts,5,122,left,yes,400,leftarrow,644,false,focus,yes,1564109,Chrome,111.0,macOS,10.15.7,undefined,undefined,1440 x 900,1440 x 900
S014,48,Mannelijk,Rechts,5,123,left,no,350,leftarrow,972,true,focus,yes,1565845,Chrome,111.0,macOS,10.15.7,undefined,undefined,1440 x 900,1440 x 900
S014,48,Mannelijk,Rechts,5,124,right,no,350,rightarrow,783,true,focus,yes,1567393,Chrome,111.0,macOS,10.15.7,undefined,undefined,1440 x 900,1440 x 900
S014,48,Mannelijk,Rechts,5,125,left,no,350,leftarrow,718,true,focus,yes,1568879,Chrome,111.0,macOS,10.15.7,undefined,undefined,1440 x 900,1440 x 900
S014,48,Mannelijk,Rechts,5,126,right,yes,350,rightarrow,487,false,focus,yes,1570138,Chrome,111.0,macOS,10.15.7,undefined,undefined,1440 x 900,1440 x 900
S014,48,Mannelijk,Rechts,5,127,right,no,300,rightarrow,669,true,focus,yes,1571584,Chrome,111.0,macOS,10.15.7,undefined,undefined,1440 x 900,1440 x 900
S014,48,Mannelijk,Rechts,5,128,left,no,300,leftarrow,842,true,focus,yes,1573203,Chrome,111.0,macOS,10.15.7,undefined,undefined,1440 x 900,1440 x 900
S014,48,Mannelijk,Rechts,6,1,left,no,300,leftarrow,529,true,focus,yes,1592239,Chrome,111.0,macOS,10.15.7,undefined,undefined,1440 x 900,1440 x 900
S014,48,Mannelijk,Rechts,6,2,right,no,300,rightarrow,406,true,focus,yes,1593416,Chrome,111.0,macOS,10.15.7,undefined,undefined,1440 x 900,1440 x 900
S014,48,Mannelijk,Rechts,6,3,right,no,300,rightarrow,555,true,focus,yes,1594743,Chrome,111.0,macOS,10.15.7,undefined,undefined,1440 x 900,1440 x 900
S014,48,Mannelijk,Rechts,6,4,left,no,300,leftarrow,513,true,focus,yes,1596030,Chrome,111.0,macOS,10.15.7,undefined,undefined,1440 x 900,1440 x 900
S014,48,Mannelijk,Rechts,6,5,right,yes,300,rightarrow,456,false,focus,yes,1597260,Chrome,111.0,macOS,10.15.7,undefined,undefined,1440 x 900,1440 x 900
S014,48,Mannelijk,Rechts,6,6,left,no,250,leftarrow,515,true,focus,yes,1598537,Chrome,111.0,macOS,10.15.7,undefined,undefined,1440 x 900,1440 x 900
S014,48,Mannelijk,Rechts,6,7,right,no,250,rightarrow,799,true,focus,yes,1600100,Chrome,111.0,macOS,10.15.7,undefined,undefined,1440 x 900,1440 x 900
S014,48,Mannelijk,Rechts,6,8,left,yes,250,undefined,null,true,focus,yes,1602127,Chrome,111.0,macOS,10.15.7,undefined,undefined,1440 x 900,1440 x 900
S014,48,Mannelijk,Rechts,6,9,right,no,300,rightarrow,417,true,focus,yes,1603316,Chrome,111.0,macOS,10.15.7,undefined,undefined,1440 x 900,1440 x 900
S014,48,Mannelijk,Rechts,6,10,left,no,300,leftarrow,638,true,focus,yes,1604721,Chrome,111.0,macOS,10.15.7,undefined,undefined,1440 x 900,1440 x 900
S014,48,Mannelijk,Rechts,6,11,right,yes,300,undefined,null,true,focus,yes,1606745,Chrome,111.0,macOS,10.15.7,undefined,undefined,1440 x 900,1440 x 900
S014,48,Mannelijk,Rechts,6,12,right,no,350,rightarrow,555,true,focus,yes,1608069,Chrome,111.0,macOS,10.15.7,undefined,undefined,1440 x 900,1440 x 900
S014,48,Mannelijk,Rechts,6,13,left,no,350,leftarrow,619,true,focus,yes,1609453,Chrome,111.0,macOS,10.15.7,undefined,undefined,1440 x 900,1440 x 900
S014,48,Mannelijk,Rechts,6,14,left,yes,350,undefined,null,true,focus,yes,1611482,Chrome,111.0,macOS,10.15.7,undefined,undefined,1440 x 900,1440 x 900
S014,48,Mannelijk,Rechts,6,15,right,no,400,rightarrow,693,true,focus,yes,1612947,Chrome,111.0,macOS,10.15.7,undefined,undefined,1440 x 900,1440 x 900
S014,48,Mannelijk,Rechts,6,16,left,no,400,leftarrow,661,true,focus,yes,1614375,Chrome,111.0,macOS,10.15.7,undefined,undefined,1440 x 900,1440 x 900
S014,48,Mannelijk,Rechts,6,17,left,yes,400,leftarrow,614,false,focus,yes,1615752,Chrome,111.0,macOS,10.15.7,undefined,undefined,1440 x 900,1440 x 900
S014,48,Mannelijk,Rechts,6,18,left,no,350,leftarrow,776,true,focus,yes,1617310,Chrome,111.0,macOS,10.15.7,undefined,undefined,1440 x 900,1440 x 900
S014,48,Mannelijk,Rechts,6,19,right,no,350,rightarrow,633,true,focus,yes,1618707,Chrome,111.0,macOS,10.15.7,undefined,undefined,1440 x 900,1440 x 900
S014,48,Mannelijk,Rechts,6,20,left,no,350,leftarrow,650,true,focus,yes,1620135,Chrome,111.0,macOS,10.15.7,undefined,undefined,1440 x 900,1440 x 900
S014,48,Mannelijk,Rechts,6,21,right,yes,350,undefined,null,true,focus,yes,1622170,Chrome,111.0,macOS,10.15.7,undefined,undefined,1440 x 900,1440 x 900
