participantID;age;gender;handedness;block_i;trial_i;stim;signal;SSD;response;rt;correct;focus;Fullscreen;time_elapsed;browser_name;browser_version;os_name;os_version;tablet;mobile;screen_resolution;window_resolution
S006;53;Vrouwelijk;Links;0;1;left;no;200;undefined;null;false;focus;yes;96339;Chrome;109.0;macOS;10.15.7;undefined;undefined;2560 x 1440;2560 x 1440
S006;53;Vrouwelijk;Links;0;2;right;no;200;rightarrow;755;true;focus;yes;98621;Chrome;109.0;macOS;10.15.7;undefined;undefined;2560 x 1440;2560 x 1440
S006;53;Vrouwelijk;Links;0;3;right;no;200;rightarrow;640;true;focus;yes;100781;Chrome;109.0;macOS;10.15.7;undefined;undefined;2560 x 1440;2560 x 1440
S006;53;Vrouwelijk;Links;0;4;left;yes;200;leftarrow;943;false;focus;yes;103244;Chrome;109.0;macOS;10.15.7;undefined;undefined;2560 x 1440;2560 x 1440
S006;53;Vrouwelijk;Links;0;5;left;no;150;leftarrow;795;true;focus;yes;105562;Chrome;109.0;macOS;10.15.7;undefined;undefined;2560 x 1440;2560 x 1440
S006;53;Vrouwelijk;Links;0;6;left;no;150;leftarrow;500;true;focus;yes;107576;Chrome;109.0;macOS;10.15.7;undefined;undefined;2560 x 1440;2560 x 1440
S006;53;Vrouwelijk;Links;0;7;right;no;150;rightarrow;779;true;focus;yes;109871;Chrome;109.0;macOS;10.15.7;undefined;undefined;2560 x 1440;2560 x 1440
S006;53;Vrouwelijk;Links;0;8;right;yes;150;rightarrow;462;false;focus;yes;111851;Chrome;109.0;macOS;10.15.7;undefined;undefined;2560 x 1440;2560 x 1440
S006;53;Vrouwelijk;Links;1;1;left;no;100;leftarrow;955;true;focus;yes;133351;Chrome;109.0;macOS;10.15.7;undefined;undefined;2560 x 1440;2560 x 1440
S006;53;Vrouwelijk;Links;1;2;left;no;100;leftarrow;562;true;focus;yes;134678;Chrome;109.0;macOS;10.15.7;undefined;undefined;2560 x 1440;2560 x 1440
S006;53;Vrouwelijk;Links;1;3;right;no;100;rightarrow;629;true;focus;yes;136073;Chrome;109.0;macOS;10.15.7;undefined;undefined;2560 x 1440;2560 x 1440
S006;53;Vrouwelijk;Links;1;4;right;no;100;rightarrow;542;true;focus;yes;137378;Chrome;109.0;macOS;10.15.7;undefined;undefined;2560 x 1440;2560 x 1440
S006;53;Vrouwelijk;Links;1;5;left;yes;100;undefined;null;true;focus;yes;139393;Chrome;109.0;macOS;10.15.7;undefined;undefined;2560 x 1440;2560 x 1440
S006;53;Vrouwelijk;Links;1;6;left;no;150;leftarrow;665;true;focus;yes;140821;Chrome;109.0;macOS;10.15.7;undefined;undefined;2560 x 1440;2560 x 1440
S006;53;Vrouwelijk;Links;1;7;right;yes;150;rightarrow;445;false;focus;yes;142025;Chrome;109.0;macOS;10.15.7;undefined;undefined;2560 x 1440;2560 x 1440
S006;53;Vrouwelijk;Links;1;8;right;no;100;rightarrow;609;true;focus;yes;143397;Chrome;109.0;macOS;10.15.7;undefined;undefined;2560 x 1440;2560 x 1440
S006;53;Vrouwelijk;Links;1;9;right;no;100;rightarrow;524;true;focus;yes;144680;Chrome;109.0;macOS;10.15.7;undefined;undefined;2560 x 1440;2560 x 1440
S006;53;Vrouwelijk;Links;1;10;right;no;100;rightarrow;530;true;focus;yes;145974;Chrome;109.0;macOS;10.15.7;undefined;undefined;2560 x 1440;2560 x 1440
S006;53;Vrouwelijk;Links;1;11;left;no;100;leftarrow;772;true;focus;yes;147504;Chrome;109.0;macOS;10.15.7;undefined;undefined;2560 x 1440;2560 x 1440
S006;53;Vrouwelijk;Links;1;12;left;yes;100;undefined;null;true;focus;yes;149522;Chrome;109.0;macOS;10.15.7;undefined;undefined;2560 x 1440;2560 x 1440
S006;53;Vrouwelijk;Links;1;13;right;yes;150;undefined;null;true;focus;yes;151537;Chrome;109.0;macOS;10.15.7;undefined;undefined;2560 x 1440;2560 x 1440
S006;53;Vrouwelijk;Links;1;14;right;no;200;rightarrow;583;true;focus;yes;152882;Chrome;109.0;macOS;10.15.7;undefined;undefined;2560 x 1440;2560 x 1440
S006;53;Vrouwelijk;Links;1;15;left;no;200;leftarrow;485;true;focus;yes;154130;Chrome;109.0;macOS;10.15.7;undefined;undefined;2560 x 1440;2560 x 1440
S006;53;Vrouwelijk;Links;1;16;left;no;200;leftarrow;542;true;focus;yes;155435;Chrome;109.0;macOS;10.15.7;undefined;undefined;2560 x 1440;2560 x 1440
S006;53;Vrouwelijk;Links;1;17;left;yes;200;undefined;null;true;focus;yes;157452;Chrome;109.0;macOS;10.15.7;undefined;undefined;2560 x 1440;2560 x 1440
S006;53;Vrouwelijk;Links;1;18;left;no;250;leftarrow;610;true;focus;yes;158822;Chrome;109.0;macOS;10.15.7;undefined;undefined;2560 x 1440;2560 x 1440
S006;53;Vrouwelijk;Links;1;19;right;yes;250;undefined;null;true;focus;yes;160843;Chrome;109.0;macOS;10.15.7;undefined;undefined;2560 x 1440;2560 x 1440
S006;53;Vrouwelijk;Links;1;20;right;no;300;rightarrow;470;true;focus;yes;162073;Chrome;109.0;macOS;10.15.7;undefined;undefined;2560 x 1440;2560 x 1440
S006;53;Vrouwelijk;Links;1;21;left;no;300;leftarrow;555;true;focus;yes;163390;Chrome;109.0;macOS;10.15.7;undefined;undefined;2560 x 1440;2560 x 1440
S006;53;Vrouwelijk;Links;1;22;left;no;300;leftarrow;538;true;focus;yes;164695;Chrome;109.0;macOS;10.15.7;undefined;undefined;2560 x 1440;2560 x 1440
S006;53;Vrouwelijk;Links;1;23;right;no;300;rightarrow;709;true;focus;yes;166168;Chrome;109.0;macOS;10.15.7;undefined;undefined;2560 x 1440;2560 x 1440
S006;53;Vrouwelijk;Links;1;24;right;no;300;rightarrow;576;true;focus;yes;167507;Chrome;109.0;macOS;10.15.7;undefined;undefined;2560 x 1440;2560 x 1440
S006;53;Vrouwelijk;Links;1;25;right;no;300;rightarrow;478;true;focus;yes;168745;Chrome;109.0;macOS;10.15.7;undefined;undefined;2560 x 1440;2560 x 1440
S006;53;Vrouwelijk;Links;1;26;right;no;300;rightarrow;588;true;focus;yes;170095;Chrome;109.0;macOS;10.15.7;undefined;undefined;2560 x 1440;2560 x 1440
S006;53;Vrouwelijk;Links;1;27;right;no;300;rightarrow;484;true;focus;yes;171344;Chrome;109.0;macOS;10.15.7;undefined;undefined;2560 x 1440;2560 x 1440
S006;53;Vrouwelijk;Links;1;28;left;yes;300;undefined;null;true;focus;yes;173361;Chrome;109.0;macOS;10.15.7;undefined;undefined;2560 x 1440;2560 x 1440
S006;53;Vrouwelijk;Links;1;29;left;no;350;leftarrow;675;true;focus;yes;174798;Chrome;109.0;macOS;10.15.7;undefined;undefined;2560 x 1440;2560 x 1440
S006;53;Vrouwelijk;Links;1;30;left;no;350;leftarrow;601;true;focus;yes;176159;Chrome;109.0;macOS;10.15.7;undefined;undefined;2560 x 1440;2560 x 1440
S006;53;Vrouwelijk;Links;1;31;right;yes;350;rightarrow;597;false;focus;yes;177520;Chrome;109.0;macOS;10.15.7;undefined;undefined;2560 x 1440;2560 x 1440
S006;53;Vrouwelijk;Links;1;32;left;no;300;leftarrow;867;true;focus;yes;179152;Chrome;109.0;macOS;10.15.7;undefined;undefined;2560 x 1440;2560 x 1440
S006;53;Vrouwelijk;Links;1;33;right;yes;300;undefined;null;true;focus;yes;181168;Chrome;109.0;macOS;10.15.7;undefined;undefined;2560 x 1440;2560 x 1440
S006;53;Vrouwelijk;Links;1;34;left;no;350;leftarrow;862;true;focus;yes;182797;Chrome;109.0;macOS;10.15.7;undefined;undefined;2560 x 1440;2560 x 1440
S006;53;Vrouwelijk;Links;1;35;right;no;350;rightarrow;871;true;focus;yes;184428;Chrome;109.0;macOS;10.15.7;undefined;undefined;2560 x 1440;2560 x 1440
S006;53;Vrouwelijk;Links;1;36;left;no;350;leftarrow;906;true;focus;yes;186093;Chrome;109.0;macOS;10.15.7;undefined;undefined;2560 x 1440;2560 x 1440
S006;53;Vrouwelijk;Links;1;37;right;no;350;rightarrow;607;true;focus;yes;187466;Chrome;109.0;macOS;10.15.7;undefined;undefined;2560 x 1440;2560 x 1440
S006;53;Vrouwelijk;Links;1;38;right;no;350;rightarrow;802;true;focus;yes;189030;Chrome;109.0;macOS;10.15.7;undefined;undefined;2560 x 1440;2560 x 1440
S006;53;Vrouwelijk;Links;1;39;left;no;350;leftarrow;715;true;focus;yes;190503;Chrome;109.0;macOS;10.15.7;undefined;undefined;2560 x 1440;2560 x 1440
S006;53;Vrouwelijk;Links;1;40;left;yes;350;leftarrow;654;false;focus;yes;191921;Chrome;109.0;macOS;10.15.7;undefined;undefined;2560 x 1440;2560 x 1440
S006;53;Vrouwelijk;Links;1;41;right;no;300;rightarrow;723;true;focus;yes;193406;Chrome;109.0;macOS;10.15.7;undefined;undefined;2560 x 1440;2560 x 1440
S006;53;Vrouwelijk;Links;1;42;left;yes;300;undefined;null;true;focus;yes;195424;Chrome;109.0;macOS;10.15.7;undefined;undefined;2560 x 1440;2560 x 1440
S006;53;Vrouwelijk;Links;1;43;left;no;350;leftarrow;748;true;focus;yes;196939;Chrome;109.0;macOS;10.15.7;undefined;undefined;2560 x 1440;2560 x 1440
S006;53;Vrouwelijk;Links;1;44;right;yes;350;undefined;null;true;focus;yes;198952;Chrome;109.0;macOS;10.15.7;undefined;undefined;2560 x 1440;2560 x 1440
S006;53;Vrouwelijk;Links;1;45;right;no;400;rightarrow;767;true;focus;yes;200483;Chrome;109.0;macOS;10.15.7;undefined;undefined;2560 x 1440;2560 x 1440
S006;53;Vrouwelijk;Links;1;46;left;no;400;leftarrow;861;true;focus;yes;202103;Chrome;109.0;macOS;10.15.7;undefined;undefined;2560 x 1440;2560 x 1440
S006;53;Vrouwelijk;Links;1;47;left;no;400;leftarrow;872;true;focus;yes;203734;Chrome;109.0;macOS;10.15.7;undefined;undefined;2560 x 1440;2560 x 1440
S006;53;Vrouwelijk;Links;1;48;right;no;400;rightarrow;697;true;focus;yes;205197;Chrome;109.0;macOS;10.15.7;undefined;undefined;2560 x 1440;2560 x 1440
S006;53;Vrouwelijk;Links;1;49;left;no;400;leftarrow;650;true;focus;yes;206614;Chrome;109.0;macOS;10.15.7;undefined;undefined;2560 x 1440;2560 x 1440
S006;53;Vrouwelijk;Links;1;50;right;yes;400;undefined;null;true;focus;yes;208632;Chrome;109.0;macOS;10.15.7;undefined;undefined;2560 x 1440;2560 x 1440
S006;53;Vrouwelijk;Links;1;51;right;no;450;rightarrow;652;true;focus;yes;210046;Chrome;109.0;macOS;10.15.7;undefined;undefined;2560 x 1440;2560 x 1440
S006;53;Vrouwelijk;Links;1;52;left;no;450;leftarrow;579;true;focus;yes;211384;Chrome;109.0;macOS;10.15.7;undefined;undefined;2560 x 1440;2560 x 1440
S006;53;Vrouwelijk;Links;1;53;right;no;450;rightarrow;858;true;focus;yes;213005;Chrome;109.0;macOS;10.15.7;undefined;undefined;2560 x 1440;2560 x 1440
S006;53;Vrouwelijk;Links;1;54;left;yes;450;leftarrow;663;false;focus;yes;214433;Chrome;109.0;macOS;10.15.7;undefined;undefined;2560 x 1440;2560 x 1440
S006;53;Vrouwelijk;Links;1;55;right;no;400;rightarrow;733;true;focus;yes;215929;Chrome;109.0;macOS;10.15.7;undefined;undefined;2560 x 1440;2560 x 1440
S006;53;Vrouwelijk;Links;1;56;left;no;400;leftarrow;837;true;focus;yes;217527;Chrome;109.0;macOS;10.15.7;undefined;undefined;2560 x 1440;2560 x 1440
S006;53;Vrouwelijk;Links;1;57;right;no;400;rightarrow;823;true;focus;yes;219113;Chrome;109.0;macOS;10.15.7;undefined;undefined;2560 x 1440;2560 x 1440
S006;53;Vrouwelijk;Links;1;58;left;no;400;leftarrow;801;true;focus;yes;220678;Chrome;109.0;macOS;10.15.7;undefined;undefined;2560 x 1440;2560 x 1440
S006;53;Vrouwelijk;Links;1;59;left;yes;400;undefined;null;true;focus;yes;222696;Chrome;109.0;macOS;10.15.7;undefined;undefined;2560 x 1440;2560 x 1440
S006;53;Vrouwelijk;Links;1;60;right;yes;450;rightarrow;762;false;focus;yes;224221;Chrome;109.0;macOS;10.15.7;undefined;undefined;2560 x 1440;2560 x 1440
S006;53;Vrouwelijk;Links;1;61;right;no;400;rightarrow;664;true;focus;yes;225650;Chrome;109.0;macOS;10.15.7;undefined;undefined;2560 x 1440;2560 x 1440
S006;53;Vrouwelijk;Links;1;62;left;no;400;leftarrow;882;true;focus;yes;227293;Chrome;109.0;macOS;10.15.7;undefined;undefined;2560 x 1440;2560 x 1440
S006;53;Vrouwelijk;Links;1;63;right;no;400;rightarrow;832;true;focus;yes;228890;Chrome;109.0;macOS;10.15.7;undefined;undefined;2560 x 1440;2560 x 1440
S006;53;Vrouwelijk;Links;1;64;left;no;400;leftarrow;793;true;focus;yes;230443;Chrome;109.0;macOS;10.15.7;undefined;undefined;2560 x 1440;2560 x 1440
S006;53;Vrouwelijk;Links;1;65;left;no;400;leftarrow;826;true;focus;yes;232029;Chrome;109.0;macOS;10.15.7;undefined;undefined;2560 x 1440;2560 x 1440
S006;53;Vrouwelijk;Links;1;66;left;no;400;leftarrow;905;true;focus;yes;233694;Chrome;109.0;macOS;10.15.7;undefined;undefined;2560 x 1440;2560 x 1440
S006;53;Vrouwelijk;Links;1;67;right;no;400;rightarrow;901;true;focus;yes;235359;Chrome;109.0;macOS;10.15.7;undefined;undefined;2560 x 1440;2560 x 1440
S006;53;Vrouwelijk;Links;1;68;left;yes;400;undefined;null;true;focus;yes;237376;Chrome;109.0;macOS;10.15.7;undefined;undefined;2560 x 1440;2560 x 1440
S006;53;Vrouwelijk;Links;1;69;right;no;450;rightarrow;539;true;focus;yes;238678;Chrome;109.0;macOS;10.15.7;undefined;undefined;2560 x 1440;2560 x 1440
S006;53;Vrouwelijk;Links;1;70;right;yes;450;rightarrow;597;false;focus;yes;240039;Chrome;109.0;macOS;10.15.7;undefined;undefined;2560 x 1440;2560 x 1440
S006;53;Vrouwelijk;Links;1;71;right;no;400;rightarrow;733;true;focus;yes;241536;Chrome;109.0;macOS;10.15.7;undefined;undefined;2560 x 1440;2560 x 1440
S006;53;Vrouwelijk;Links;1;72;left;no;400;leftarrow;802;true;focus;yes;243100;Chrome;109.0;macOS;10.15.7;undefined;undefined;2560 x 1440;2560 x 1440
S006;53;Vrouwelijk;Links;1;73;right;no;400;rightarrow;793;true;focus;yes;244652;Chrome;109.0;macOS;10.15.7;undefined;undefined;2560 x 1440;2560 x 1440
S006;53;Vrouwelijk;Links;1;74;right;no;400;rightarrow;821;true;focus;yes;246239;Chrome;109.0;macOS;10.15.7;undefined;undefined;2560 x 1440;2560 x 1440
S006;53;Vrouwelijk;Links;1;75;right;yes;400;undefined;null;true;focus;yes;248255;Chrome;109.0;macOS;10.15.7;undefined;undefined;2560 x 1440;2560 x 1440
S006;53;Vrouwelijk;Links;1;76;left;no;450;leftarrow;720;true;focus;yes;249737;Chrome;109.0;macOS;10.15.7;undefined;undefined;2560 x 1440;2560 x 1440
S006;53;Vrouwelijk;Links;1;77;left;no;450;leftarrow;859;true;focus;yes;251357;Chrome;109.0;macOS;10.15.7;undefined;undefined;2560 x 1440;2560 x 1440
S006;53;Vrouwelijk;Links;1;78;left;no;450;leftarrow;900;true;focus;yes;253023;Chrome;109.0;macOS;10.15.7;undefined;undefined;2560 x 1440;2560 x 1440
S006;53;Vrouwelijk;Links;1;79;right;no;450;rightarrow;1026;true;focus;yes;254812;Chrome;109.0;macOS;10.15.7;undefined;undefined;2560 x 1440;2560 x 1440
S006;53;Vrouwelijk;Links;1;80;left;yes;450;undefined;null;true;focus;yes;256831;Chrome;109.0;macOS;10.15.7;undefined;undefined;2560 x 1440;2560 x 1440
S006;53;Vrouwelijk;Links;1;81;right;no;500;rightarrow;784;true;focus;yes;258378;Chrome;109.0;macOS;10.15.7;undefined;undefined;2560 x 1440;2560 x 1440
S006;53;Vrouwelijk;Links;1;82;right;yes;500;undefined;null;true;focus;yes;260395;Chrome;109.0;macOS;10.15.7;undefined;undefined;2560 x 1440;2560 x 1440
S006;53;Vrouwelijk;Links;1;83;left;no;550;leftarrow;545;true;focus;yes;261708;Chrome;109.0;macOS;10.15.7;undefined;undefined;2560 x 1440;2560 x 1440
S006;53;Vrouwelijk;Links;1;84;right;no;550;rightarrow;933;true;focus;yes;263407;Chrome;109.0;macOS;10.15.7;undefined;undefined;2560 x 1440;2560 x 1440
S006;53;Vrouwelijk;Links;1;85;left;no;550;leftarrow;1015;true;focus;yes;265185;Chrome;109.0;macOS;10.15.7;undefined;undefined;2560 x 1440;2560 x 1440
S006;53;Vrouwelijk;Links;1;86;left;no;550;leftarrow;972;true;focus;yes;266917;Chrome;109.0;macOS;10.15.7;undefined;undefined;2560 x 1440;2560 x 1440
S006;53;Vrouwelijk;Links;1;87;right;no;550;rightarrow;923;true;focus;yes;268604;Chrome;109.0;macOS;10.15.7;undefined;undefined;2560 x 1440;2560 x 1440
S006;53;Vrouwelijk;Links;1;88;left;yes;550;leftarrow;867;false;focus;yes;270236;Chrome;109.0;macOS;10.15.7;undefined;undefined;2560 x 1440;2560 x 1440
S006;53;Vrouwelijk;Links;1;89;left;no;500;leftarrow;887;true;focus;yes;271890;Chrome;109.0;macOS;10.15.7;undefined;undefined;2560 x 1440;2560 x 1440
S006;53;Vrouwelijk;Links;1;90;right;no;500;rightarrow;876;true;focus;yes;273521;Chrome;109.0;macOS;10.15.7;undefined;undefined;2560 x 1440;2560 x 1440
S006;53;Vrouwelijk;Links;1;91;right;no;500;rightarrow;984;true;focus;yes;275265;Chrome;109.0;macOS;10.15.7;undefined;undefined;2560 x 1440;2560 x 1440
S006;53;Vrouwelijk;Links;1;92;left;no;500;leftarrow;961;true;focus;yes;276986;Chrome;109.0;macOS;10.15.7;undefined;undefined;2560 x 1440;2560 x 1440
S006;53;Vrouwelijk;Links;1;93;right;no;500;rightarrow;916;true;focus;yes;278662;Chrome;109.0;macOS;10.15.7;undefined;undefined;2560 x 1440;2560 x 1440
S006;53;Vrouwelijk;Links;1;94;right;yes;500;rightarrow;711;false;focus;yes;280136;Chrome;109.0;macOS;10.15.7;undefined;undefined;2560 x 1440;2560 x 1440
S006;53;Vrouwelijk;Links;1;95;left;yes;450;undefined;null;true;focus;yes;282150;Chrome;109.0;macOS;10.15.7;undefined;undefined;2560 x 1440;2560 x 1440
S006;53;Vrouwelijk;Links;1;96;left;no;500;leftarrow;913;true;focus;yes;283826;Chrome;109.0;macOS;10.15.7;undefined;undefined;2560 x 1440;2560 x 1440
S006;53;Vrouwelijk;Links;1;97;left;yes;500;undefined;null;true;focus;yes;285839;Chrome;109.0;macOS;10.15.7;undefined;undefined;2560 x 1440;2560 x 1440
S006;53;Vrouwelijk;Links;1;98;right;no;550;rightarrow;893;true;focus;yes;287494;Chrome;109.0;macOS;10.15.7;undefined;undefined;2560 x 1440;2560 x 1440
S006;53;Vrouwelijk;Links;1;99;right;no;550;rightarrow;925;true;focus;yes;289182;Chrome;109.0;macOS;10.15.7;undefined;undefined;2560 x 1440;2560 x 1440
S006;53;Vrouwelijk;Links;1;100;left;no;550;leftarrow;1160;true;focus;yes;291105;Chrome;109.0;macOS;10.15.7;undefined;undefined;2560 x 1440;2560 x 1440
S006;53;Vrouwelijk;Links;1;101;right;yes;550;undefined;null;true;focus;yes;293118;Chrome;109.0;macOS;10.15.7;undefined;undefined;2560 x 1440;2560 x 1440
S006;53;Vrouwelijk;Links;1;102;left;no;600;leftarrow;679;true;focus;yes;294560;Chrome;109.0;macOS;10.15.7;undefined;undefined;2560 x 1440;2560 x 1440
S006;53;Vrouwelijk;Links;1;103;left;no;600;leftarrow;801;true;focus;yes;296123;Chrome;109.0;macOS;10.15.7;undefined;undefined;2560 x 1440;2560 x 1440
S006;53;Vrouwelijk;Links;1;104;right;no;600;rightarrow;1046;true;focus;yes;297935;Chrome;109.0;macOS;10.15.7;undefined;undefined;2560 x 1440;2560 x 1440
S006;53;Vrouwelijk;Links;1;105;left;yes;600;undefined;null;true;focus;yes;299951;Chrome;109.0;macOS;10.15.7;undefined;undefined;2560 x 1440;2560 x 1440
S006;53;Vrouwelijk;Links;1;106;left;no;650;leftarrow;944;true;focus;yes;301659;Chrome;109.0;macOS;10.15.7;undefined;undefined;2560 x 1440;2560 x 1440
S006;53;Vrouwelijk;Links;1;107;right;no;650;rightarrow;967;true;focus;yes;303391;Chrome;109.0;macOS;10.15.7;undefined;undefined;2560 x 1440;2560 x 1440
S006;53;Vrouwelijk;Links;1;108;right;yes;650;rightarrow;873;false;focus;yes;305022;Chrome;109.0;macOS;10.15.7;undefined;undefined;2560 x 1440;2560 x 1440
S006;53;Vrouwelijk;Links;1;109;left;no;600;leftarrow;949;true;focus;yes;306733;Chrome;109.0;macOS;10.15.7;undefined;undefined;2560 x 1440;2560 x 1440
S006;53;Vrouwelijk;Links;1;110;left;no;600;leftarrow;1070;true;focus;yes;308567;Chrome;109.0;macOS;10.15.7;undefined;undefined;2560 x 1440;2560 x 1440
S006;53;Vrouwelijk;Links;1;111;right;no;600;rightarrow;1185;true;focus;yes;310513;Chrome;109.0;macOS;10.15.7;undefined;undefined;2560 x 1440;2560 x 1440
S006;53;Vrouwelijk;Links;1;112;right;no;600;rightarrow;939;true;focus;yes;312212;Chrome;109.0;macOS;10.15.7;undefined;undefined;2560 x 1440;2560 x 1440
S006;53;Vrouwelijk;Links;1;113;right;yes;600;rightarrow;844;false;focus;yes;313820;Chrome;109.0;macOS;10.15.7;undefined;undefined;2560 x 1440;2560 x 1440
S006;53;Vrouwelijk;Links;1;114;left;yes;550;undefined;null;true;focus;yes;315839;Chrome;109.0;macOS;10.15.7;undefined;undefined;2560 x 1440;2560 x 1440
S006;53;Vrouwelijk;Links;1;115;right;no;600;rightarrow;1045;true;focus;yes;317646;Chrome;109.0;macOS;10.15.7;undefined;undefined;2560 x 1440;2560 x 1440
S006;53;Vrouwelijk;Links;1;116;left;no;600;leftarrow;1063;true;focus;yes;319468;Chrome;109.0;macOS;10.15.7;undefined;undefined;2560 x 1440;2560 x 1440
S006;53;Vrouwelijk;Links;1;117;right;no;600;rightarrow;1047;true;focus;yes;321279;Chrome;109.0;macOS;10.15.7;undefined;undefined;2560 x 1440;2560 x 1440
S006;53;Vrouwelijk;Links;1;118;left;no;600;leftarrow;1196;true;focus;yes;323237;Chrome;109.0;macOS;10.15.7;undefined;undefined;2560 x 1440;2560 x 1440
S006;53;Vrouwelijk;Links;1;119;right;no;600;rightarrow;1212;true;focus;yes;325206;Chrome;109.0;macOS;10.15.7;undefined;undefined;2560 x 1440;2560 x 1440
S006;53;Vrouwelijk;Links;1;120;left;no;600;undefined;null;false;focus;yes;327221;Chrome;109.0;macOS;10.15.7;undefined;undefined;2560 x 1440;2560 x 1440
S006;53;Vrouwelijk;Links;1;121;right;yes;600;rightarrow;809;false;focus;yes;328795;Chrome;109.0;macOS;10.15.7;undefined;undefined;2560 x 1440;2560 x 1440
S006;53;Vrouwelijk;Links;1;122;left;no;550;leftarrow;687;true;focus;yes;330247;Chrome;109.0;macOS;10.15.7;undefined;undefined;2560 x 1440;2560 x 1440
S006;53;Vrouwelijk;Links;1;123;right;no;550;rightarrow;958;true;focus;yes;331967;Chrome;109.0;macOS;10.15.7;undefined;undefined;2560 x 1440;2560 x 1440
S006;53;Vrouwelijk;Links;1;124;right;no;550;rightarrow;882;true;focus;yes;333610;Chrome;109.0;macOS;10.15.7;undefined;undefined;2560 x 1440;2560 x 1440
S006;53;Vrouwelijk;Links;1;125;left;yes;550;leftarrow;674;false;focus;yes;335050;Chrome;109.0;macOS;10.15.7;undefined;undefined;2560 x 1440;2560 x 1440
S006;53;Vrouwelijk;Links;1;126;left;no;500;leftarrow;899;true;focus;yes;336715;Chrome;109.0;macOS;10.15.7;undefined;undefined;2560 x 1440;2560 x 1440
S006;53;Vrouwelijk;Links;1;127;right;no;500;rightarrow;889;true;focus;yes;338369;Chrome;109.0;macOS;10.15.7;undefined;undefined;2560 x 1440;2560 x 1440
S006;53;Vrouwelijk;Links;1;128;left;no;500;leftarrow;851;true;focus;yes;339978;Chrome;109.0;macOS;10.15.7;undefined;undefined;2560 x 1440;2560 x 1440
S006;53;Vrouwelijk;Links;2;1;left;no;500;leftarrow;565;true;focus;yes;360533;Chrome;109.0;macOS;10.15.7;undefined;undefined;2560 x 1440;2560 x 1440
S006;53;Vrouwelijk;Links;2;2;right;no;500;rightarrow;801;true;focus;yes;362096;Chrome;109.0;macOS;10.15.7;undefined;undefined;2560 x 1440;2560 x 1440
S006;53;Vrouwelijk;Links;2;3;right;no;500;rightarrow;726;true;focus;yes;363581;Chrome;109.0;macOS;10.15.7;undefined;undefined;2560 x 1440;2560 x 1440
S006;53;Vrouwelijk;Links;2;4;left;no;500;leftarrow;712;true;focus;yes;365055;Chrome;109.0;macOS;10.15.7;undefined;undefined;2560 x 1440;2560 x 1440
S006;53;Vrouwelijk;Links;2;5;right;no;500;rightarrow;714;true;focus;yes;366529;Chrome;109.0;macOS;10.15.7;undefined;undefined;2560 x 1440;2560 x 1440
S006;53;Vrouwelijk;Links;2;6;left;no;500;leftarrow;809;true;focus;yes;368104;Chrome;109.0;macOS;10.15.7;undefined;undefined;2560 x 1440;2560 x 1440
S006;53;Vrouwelijk;Links;2;7;right;yes;500;rightarrow;713;false;focus;yes;369578;Chrome;109.0;macOS;10.15.7;undefined;undefined;2560 x 1440;2560 x 1440
S006;53;Vrouwelijk;Links;2;8;left;yes;450;undefined;null;true;focus;yes;371597;Chrome;109.0;macOS;10.15.7;undefined;undefined;2560 x 1440;2560 x 1440
S006;53;Vrouwelijk;Links;2;9;left;no;500;leftarrow;761;true;focus;yes;373122;Chrome;109.0;macOS;10.15.7;undefined;undefined;2560 x 1440;2560 x 1440
S006;53;Vrouwelijk;Links;2;10;right;yes;500;undefined;null;true;focus;yes;375140;Chrome;109.0;macOS;10.15.7;undefined;undefined;2560 x 1440;2560 x 1440
S006;53;Vrouwelijk;Links;2;11;left;yes;550;undefined;null;true;focus;yes;377164;Chrome;109.0;macOS;10.15.7;undefined;undefined;2560 x 1440;2560 x 1440
S006;53;Vrouwelijk;Links;2;12;right;no;600;rightarrow;977;true;focus;yes;378905;Chrome;109.0;macOS;10.15.7;undefined;undefined;2560 x 1440;2560 x 1440
S006;53;Vrouwelijk;Links;2;13;right;no;600;rightarrow;870;true;focus;yes;380536;Chrome;109.0;macOS;10.15.7;undefined;undefined;2560 x 1440;2560 x 1440
S006;53;Vrouwelijk;Links;2;14;left;no;600;leftarrow;1007;true;focus;yes;382302;Chrome;109.0;macOS;10.15.7;undefined;undefined;2560 x 1440;2560 x 1440
S006;53;Vrouwelijk;Links;2;15;right;no;600;rightarrow;1005;true;focus;yes;384069;Chrome;109.0;macOS;10.15.7;undefined;undefined;2560 x 1440;2560 x 1440
S006;53;Vrouwelijk;Links;2;16;left;no;600;leftarrow;981;true;focus;yes;385812;Chrome;109.0;macOS;10.15.7;undefined;undefined;2560 x 1440;2560 x 1440
S006;53;Vrouwelijk;Links;2;17;right;yes;600;undefined;null;true;focus;yes;387828;Chrome;109.0;macOS;10.15.7;undefined;undefined;2560 x 1440;2560 x 1440
S006;53;Vrouwelijk;Links;2;18;right;no;650;rightarrow;923;true;focus;yes;389514;Chrome;109.0;macOS;10.15.7;undefined;undefined;2560 x 1440;2560 x 1440
S006;53;Vrouwelijk;Links;2;19;left;yes;650;leftarrow;921;false;focus;yes;391201;Chrome;109.0;macOS;10.15.7;undefined;undefined;2560 x 1440;2560 x 1440
S006;53;Vrouwelijk;Links;2;20;right;no;600;rightarrow;955;true;focus;yes;392923;Chrome;109.0;macOS;10.15.7;undefined;undefined;2560 x 1440;2560 x 1440
S006;53;Vrouwelijk;Links;2;21;right;no;600;rightarrow;1003;true;focus;yes;394689;Chrome;109.0;macOS;10.15.7;undefined;undefined;2560 x 1440;2560 x 1440
S006;53;Vrouwelijk;Links;2;22;left;no;600;leftarrow;1069;true;focus;yes;396523;Chrome;109.0;macOS;10.15.7;undefined;undefined;2560 x 1440;2560 x 1440
S006;53;Vrouwelijk;Links;2;23;left;no;600;leftarrow;812;true;focus;yes;398098;Chrome;109.0;macOS;10.15.7;undefined;undefined;2560 x 1440;2560 x 1440
S006;53;Vrouwelijk;Links;2;24;left;no;600;leftarrow;1014;true;focus;yes;399876;Chrome;109.0;macOS;10.15.7;undefined;undefined;2560 x 1440;2560 x 1440
S006;53;Vrouwelijk;Links;2;25;right;yes;600;undefined;null;true;focus;yes;401891;Chrome;109.0;macOS;10.15.7;undefined;undefined;2560 x 1440;2560 x 1440
S006;53;Vrouwelijk;Links;2;26;right;no;650;rightarrow;584;true;focus;yes;403239;Chrome;109.0;macOS;10.15.7;undefined;undefined;2560 x 1440;2560 x 1440
S006;53;Vrouwelijk;Links;2;27;right;no;650;rightarrow;1042;true;focus;yes;405040;Chrome;109.0;macOS;10.15.7;undefined;undefined;2560 x 1440;2560 x 1440
S006;53;Vrouwelijk;Links;2;28;left;no;650;leftarrow;713;true;focus;yes;406513;Chrome;109.0;macOS;10.15.7;undefined;undefined;2560 x 1440;2560 x 1440
S006;53;Vrouwelijk;Links;2;29;left;no;650;leftarrow;889;true;focus;yes;408167;Chrome;109.0;macOS;10.15.7;undefined;undefined;2560 x 1440;2560 x 1440
S006;53;Vrouwelijk;Links;2;30;left;no;650;leftarrow;625;true;focus;yes;409551;Chrome;109.0;macOS;10.15.7;undefined;undefined;2560 x 1440;2560 x 1440
S006;53;Vrouwelijk;Links;2;31;left;yes;650;leftarrow;771;false;focus;yes;411081;Chrome;109.0;macOS;10.15.7;undefined;undefined;2560 x 1440;2560 x 1440
S006;53;Vrouwelijk;Links;2;32;right;no;600;rightarrow;889;true;focus;yes;412735;Chrome;109.0;macOS;10.15.7;undefined;undefined;2560 x 1440;2560 x 1440
S006;53;Vrouwelijk;Links;2;33;right;no;600;rightarrow;771;true;focus;yes;414265;Chrome;109.0;macOS;10.15.7;undefined;undefined;2560 x 1440;2560 x 1440
S006;53;Vrouwelijk;Links;2;34;right;yes;600;undefined;null;true;focus;yes;416283;Chrome;109.0;macOS;10.15.7;undefined;undefined;2560 x 1440;2560 x 1440
S006;53;Vrouwelijk;Links;2;35;right;no;650;rightarrow;797;true;focus;yes;417843;Chrome;109.0;macOS;10.15.7;undefined;undefined;2560 x 1440;2560 x 1440
S006;53;Vrouwelijk;Links;2;36;left;no;650;leftarrow;890;true;focus;yes;419497;Chrome;109.0;macOS;10.15.7;undefined;undefined;2560 x 1440;2560 x 1440
S006;53;Vrouwelijk;Links;2;37;left;no;650;leftarrow;1021;true;focus;yes;421285;Chrome;109.0;macOS;10.15.7;undefined;undefined;2560 x 1440;2560 x 1440
S006;53;Vrouwelijk;Links;2;38;left;yes;650;undefined;null;true;focus;yes;423299;Chrome;109.0;macOS;10.15.7;undefined;undefined;2560 x 1440;2560 x 1440
S006;53;Vrouwelijk;Links;2;39;right;no;700;rightarrow;835;true;focus;yes;424897;Chrome;109.0;macOS;10.15.7;undefined;undefined;2560 x 1440;2560 x 1440
S006;53;Vrouwelijk;Links;2;40;left;no;700;leftarrow;736;true;focus;yes;426393;Chrome;109.0;macOS;10.15.7;undefined;undefined;2560 x 1440;2560 x 1440
S006;53;Vrouwelijk;Links;2;41;left;no;700;leftarrow;866;true;focus;yes;428024;Chrome;109.0;macOS;10.15.7;undefined;undefined;2560 x 1440;2560 x 1440
S006;53;Vrouwelijk;Links;2;42;left;no;700;leftarrow;864;true;focus;yes;429656;Chrome;109.0;macOS;10.15.7;undefined;undefined;2560 x 1440;2560 x 1440
S006;53;Vrouwelijk;Links;2;43;right;no;700;rightarrow;883;true;focus;yes;431298;Chrome;109.0;macOS;10.15.7;undefined;undefined;2560 x 1440;2560 x 1440
S006;53;Vrouwelijk;Links;2;44;right;no;700;rightarrow;860;true;focus;yes;432918;Chrome;109.0;macOS;10.15.7;undefined;undefined;2560 x 1440;2560 x 1440
S006;53;Vrouwelijk;Links;2;45;left;yes;700;leftarrow;906;false;focus;yes;434583;Chrome;109.0;macOS;10.15.7;undefined;undefined;2560 x 1440;2560 x 1440
S006;53;Vrouwelijk;Links;2;46;right;yes;650;rightarrow;829;false;focus;yes;436170;Chrome;109.0;macOS;10.15.7;undefined;undefined;2560 x 1440;2560 x 1440
S006;53;Vrouwelijk;Links;2;47;right;no;600;rightarrow;938;true;focus;yes;437868;Chrome;109.0;macOS;10.15.7;undefined;undefined;2560 x 1440;2560 x 1440
S006;53;Vrouwelijk;Links;2;48;left;no;600;leftarrow;801;true;focus;yes;439432;Chrome;109.0;macOS;10.15.7;undefined;undefined;2560 x 1440;2560 x 1440
S006;53;Vrouwelijk;Links;2;49;right;yes;600;rightarrow;776;false;focus;yes;440974;Chrome;109.0;macOS;10.15.7;undefined;undefined;2560 x 1440;2560 x 1440
S006;53;Vrouwelijk;Links;2;50;left;yes;550;undefined;null;true;focus;yes;442988;Chrome;109.0;macOS;10.15.7;undefined;undefined;2560 x 1440;2560 x 1440
S006;53;Vrouwelijk;Links;2;51;right;no;600;rightarrow;800;true;focus;yes;444552;Chrome;109.0;macOS;10.15.7;undefined;undefined;2560 x 1440;2560 x 1440
S006;53;Vrouwelijk;Links;2;52;left;no;600;leftarrow;933;true;focus;yes;446250;Chrome;109.0;macOS;10.15.7;undefined;undefined;2560 x 1440;2560 x 1440
S006;53;Vrouwelijk;Links;2;53;right;no;600;rightarrow;947;true;focus;yes;447960;Chrome;109.0;macOS;10.15.7;undefined;undefined;2560 x 1440;2560 x 1440
S006;53;Vrouwelijk;Links;2;54;left;no;600;leftarrow;945;true;focus;yes;449670;Chrome;109.0;macOS;10.15.7;undefined;undefined;2560 x 1440;2560 x 1440
S006;53;Vrouwelijk;Links;2;55;left;no;600;leftarrow;848;true;focus;yes;451279;Chrome;109.0;macOS;10.15.7;undefined;undefined;2560 x 1440;2560 x 1440
S006;53;Vrouwelijk;Links;2;56;right;no;600;rightarrow;820;true;focus;yes;452866;Chrome;109.0;macOS;10.15.7;undefined;undefined;2560 x 1440;2560 x 1440
S006;53;Vrouwelijk;Links;2;57;right;no;600;rightarrow;1003;true;focus;yes;454632;Chrome;109.0;macOS;10.15.7;undefined;undefined;2560 x 1440;2560 x 1440
S006;53;Vrouwelijk;Links;2;58;left;yes;600;undefined;null;true;focus;yes;456644;Chrome;109.0;macOS;10.15.7;undefined;undefined;2560 x 1440;2560 x 1440
S006;53;Vrouwelijk;Links;2;59;left;no;650;leftarrow;916;true;focus;yes;458322;Chrome;109.0;macOS;10.15.7;undefined;undefined;2560 x 1440;2560 x 1440
S006;53;Vrouwelijk;Links;2;60;right;no;650;rightarrow;981;true;focus;yes;460066;Chrome;109.0;macOS;10.15.7;undefined;undefined;2560 x 1440;2560 x 1440
S006;53;Vrouwelijk;Links;2;61;right;no;650;rightarrow;946;true;focus;yes;461776;Chrome;109.0;macOS;10.15.7;undefined;undefined;2560 x 1440;2560 x 1440
S006;53;Vrouwelijk;Links;2;62;right;yes;650;rightarrow;776;false;focus;yes;463317;Chrome;109.0;macOS;10.15.7;undefined;undefined;2560 x 1440;2560 x 1440
S006;53;Vrouwelijk;Links;2;63;left;no;600;leftarrow;995;true;focus;yes;465072;Chrome;109.0;macOS;10.15.7;undefined;undefined;2560 x 1440;2560 x 1440
S006;53;Vrouwelijk;Links;2;64;left;no;600;leftarrow;1103;true;focus;yes;466940;Chrome;109.0;macOS;10.15.7;undefined;undefined;2560 x 1440;2560 x 1440
S006;53;Vrouwelijk;Links;2;65;left;no;600;leftarrow;1038;true;focus;yes;468740;Chrome;109.0;macOS;10.15.7;undefined;undefined;2560 x 1440;2560 x 1440
S006;53;Vrouwelijk;Links;2;66;right;yes;600;undefined;null;true;focus;yes;470754;Chrome;109.0;macOS;10.15.7;undefined;undefined;2560 x 1440;2560 x 1440
S006;53;Vrouwelijk;Links;2;67;right;no;650;rightarrow;857;true;focus;yes;472374;Chrome;109.0;macOS;10.15.7;undefined;undefined;2560 x 1440;2560 x 1440
S006;53;Vrouwelijk;Links;2;68;left;no;650;leftarrow;805;true;focus;yes;473938;Chrome;109.0;macOS;10.15.7;undefined;undefined;2560 x 1440;2560 x 1440
S006;53;Vrouwelijk;Links;2;69;left;yes;650;undefined;null;true;focus;yes;475955;Chrome;109.0;macOS;10.15.7;undefined;undefined;2560 x 1440;2560 x 1440
S006;53;Vrouwelijk;Links;2;70;right;no;700;rightarrow;774;true;focus;yes;477493;Chrome;109.0;macOS;10.15.7;undefined;undefined;2560 x 1440;2560 x 1440
S006;53;Vrouwelijk;Links;2;71;left;no;700;leftarrow;972;true;focus;yes;479226;Chrome;109.0;macOS;10.15.7;undefined;undefined;2560 x 1440;2560 x 1440
S006;53;Vrouwelijk;Links;2;72;right;no;700;rightarrow;1115;true;focus;yes;481104;Chrome;109.0;macOS;10.15.7;undefined;undefined;2560 x 1440;2560 x 1440
S006;53;Vrouwelijk;Links;2;73;left;no;700;leftarrow;924;true;focus;yes;482792;Chrome;109.0;macOS;10.15.7;undefined;undefined;2560 x 1440;2560 x 1440
S006;53;Vrouwelijk;Links;2;74;right;yes;700;rightarrow;924;false;focus;yes;484480;Chrome;109.0;macOS;10.15.7;undefined;undefined;2560 x 1440;2560 x 1440
S006;53;Vrouwelijk;Links;2;75;left;no;650;leftarrow;1024;true;focus;yes;486268;Chrome;109.0;macOS;10.15.7;undefined;undefined;2560 x 1440;2560 x 1440
S006;53;Vrouwelijk;Links;2;76;left;no;650;leftarrow;1198;true;focus;yes;488226;Chrome;109.0;macOS;10.15.7;undefined;undefined;2560 x 1440;2560 x 1440
S006;53;Vrouwelijk;Links;2;77;right;no;650;rightarrow;1184;true;focus;yes;490172;Chrome;109.0;macOS;10.15.7;undefined;undefined;2560 x 1440;2560 x 1440
S006;53;Vrouwelijk;Links;2;78;left;yes;650;undefined;null;true;focus;yes;492186;Chrome;109.0;macOS;10.15.7;undefined;undefined;2560 x 1440;2560 x 1440
S006;53;Vrouwelijk;Links;2;79;right;no;700;rightarrow;869;true;focus;yes;493817;Chrome;109.0;macOS;10.15.7;undefined;undefined;2560 x 1440;2560 x 1440
S006;53;Vrouwelijk;Links;2;80;right;no;700;rightarrow;1150;true;focus;yes;495730;Chrome;109.0;macOS;10.15.7;undefined;undefined;2560 x 1440;2560 x 1440
S006;53;Vrouwelijk;Links;2;81;left;no;700;leftarrow;1048;true;focus;yes;497541;Chrome;109.0;macOS;10.15.7;undefined;undefined;2560 x 1440;2560 x 1440
S006;53;Vrouwelijk;Links;2;82;right;no;700;rightarrow;1168;true;focus;yes;499465;Chrome;109.0;macOS;10.15.7;undefined;undefined;2560 x 1440;2560 x 1440
S006;53;Vrouwelijk;Links;2;83;left;yes;700;undefined;null;true;focus;yes;501481;Chrome;109.0;macOS;10.15.7;undefined;undefined;2560 x 1440;2560 x 1440
S006;53;Vrouwelijk;Links;2;84;right;yes;750;rightarrow;799;false;focus;yes;503043;Chrome;109.0;macOS;10.15.7;undefined;undefined;2560 x 1440;2560 x 1440
S006;53;Vrouwelijk;Links;2;85;right;no;700;rightarrow;1129;true;focus;yes;504933;Chrome;109.0;macOS;10.15.7;undefined;undefined;2560 x 1440;2560 x 1440
S006;53;Vrouwelijk;Links;2;86;left;no;700;leftarrow;1153;true;focus;yes;506846;Chrome;109.0;macOS;10.15.7;undefined;undefined;2560 x 1440;2560 x 1440
S006;53;Vrouwelijk;Links;2;87;left;no;700;leftarrow;1143;true;focus;yes;508747;Chrome;109.0;macOS;10.15.7;undefined;undefined;2560 x 1440;2560 x 1440
S006;53;Vrouwelijk;Links;2;88;right;no;700;rightarrow;1118;true;focus;yes;510626;Chrome;109.0;macOS;10.15.7;undefined;undefined;2560 x 1440;2560 x 1440
S006;53;Vrouwelijk;Links;2;89;right;no;700;undefined;null;false;focus;yes;512641;Chrome;109.0;macOS;10.15.7;undefined;undefined;2560 x 1440;2560 x 1440
S006;53;Vrouwelijk;Links;2;90;right;no;700;rightarrow;1237;true;focus;yes;514642;Chrome;109.0;macOS;10.15.7;undefined;undefined;2560 x 1440;2560 x 1440
S006;53;Vrouwelijk;Links;2;91;left;no;700;undefined;null;false;focus;yes;516659;Chrome;109.0;macOS;10.15.7;undefined;undefined;2560 x 1440;2560 x 1440
S006;53;Vrouwelijk;Links;2;92;right;no;700;rightarrow;877;true;focus;yes;518299;Chrome;109.0;macOS;10.15.7;undefined;undefined;2560 x 1440;2560 x 1440
S006;53;Vrouwelijk;Links;2;93;left;yes;700;undefined;null;true;focus;yes;520313;Chrome;109.0;macOS;10.15.7;undefined;undefined;2560 x 1440;2560 x 1440
S006;53;Vrouwelijk;Links;2;94;right;yes;750;rightarrow;959;false;focus;yes;522034;Chrome;109.0;macOS;10.15.7;undefined;undefined;2560 x 1440;2560 x 1440
S006;53;Vrouwelijk;Links;2;95;left;no;700;undefined;null;false;focus;yes;524051;Chrome;109.0;macOS;10.15.7;undefined;undefined;2560 x 1440;2560 x 1440
S006;53;Vrouwelijk;Links;2;96;left;no;700;leftarrow;890;true;focus;yes;525701;Chrome;109.0;macOS;10.15.7;undefined;undefined;2560 x 1440;2560 x 1440
S006;53;Vrouwelijk;Links;2;97;right;no;700;undefined;null;false;focus;yes;527716;Chrome;109.0;macOS;10.15.7;undefined;undefined;2560 x 1440;2560 x 1440
S006;53;Vrouwelijk;Links;2;98;right;yes;700;undefined;null;true;focus;yes;529731;Chrome;109.0;macOS;10.15.7;undefined;undefined;2560 x 1440;2560 x 1440
S006;53;Vrouwelijk;Links;2;99;left;no;750;leftarrow;926;true;focus;yes;531417;Chrome;109.0;macOS;10.15.7;undefined;undefined;2560 x 1440;2560 x 1440
S006;53;Vrouwelijk;Links;2;100;left;yes;750;leftarrow;982;false;focus;yes;533161;Chrome;109.0;macOS;10.15.7;undefined;undefined;2560 x 1440;2560 x 1440
S006;53;Vrouwelijk;Links;2;101;left;no;700;leftarrow;1139;true;focus;yes;535062;Chrome;109.0;macOS;10.15.7;undefined;undefined;2560 x 1440;2560 x 1440
S006;53;Vrouwelijk;Links;2;102;right;no;700;rightarrow;1157;true;focus;yes;536986;Chrome;109.0;macOS;10.15.7;undefined;undefined;2560 x 1440;2560 x 1440
S006;53;Vrouwelijk;Links;2;103;left;no;700;leftarrow;1061;true;focus;yes;538808;Chrome;109.0;macOS;10.15.7;undefined;undefined;2560 x 1440;2560 x 1440
S006;53;Vrouwelijk;Links;2;104;right;no;700;rightarrow;1071;true;focus;yes;540642;Chrome;109.0;macOS;10.15.7;undefined;undefined;2560 x 1440;2560 x 1440
S006;53;Vrouwelijk;Links;2;105;left;no;700;undefined;null;false;focus;yes;542656;Chrome;109.0;macOS;10.15.7;undefined;undefined;2560 x 1440;2560 x 1440
S006;53;Vrouwelijk;Links;2;106;left;yes;700;undefined;null;true;focus;yes;544672;Chrome;109.0;macOS;10.15.7;undefined;undefined;2560 x 1440;2560 x 1440
S006;53;Vrouwelijk;Links;2;107;left;no;750;leftarrow;810;true;focus;yes;546245;Chrome;109.0;macOS;10.15.7;undefined;undefined;2560 x 1440;2560 x 1440
S006;53;Vrouwelijk;Links;2;108;right;no;750;rightarrow;1028;true;focus;yes;548034;Chrome;109.0;macOS;10.15.7;undefined;undefined;2560 x 1440;2560 x 1440
S006;53;Vrouwelijk;Links;2;109;right;no;750;rightarrow;1061;true;focus;yes;549856;Chrome;109.0;macOS;10.15.7;undefined;undefined;2560 x 1440;2560 x 1440
S006;53;Vrouwelijk;Links;2;110;right;yes;750;rightarrow;1015;false;focus;yes;551634;Chrome;109.0;macOS;10.15.7;undefined;undefined;2560 x 1440;2560 x 1440
S006;53;Vrouwelijk;Links;2;111;left;no;700;leftarrow;949;true;focus;yes;553344;Chrome;109.0;macOS;10.15.7;undefined;undefined;2560 x 1440;2560 x 1440
S006;53;Vrouwelijk;Links;2;112;right;no;700;rightarrow;1195;true;focus;yes;555302;Chrome;109.0;macOS;10.15.7;undefined;undefined;2560 x 1440;2560 x 1440
S006;53;Vrouwelijk;Links;2;113;left;no;700;leftarrow;1220;true;focus;yes;557282;Chrome;109.0;macOS;10.15.7;undefined;undefined;2560 x 1440;2560 x 1440
S006;53;Vrouwelijk;Links;2;114;right;no;700;rightarrow;929;true;focus;yes;558969;Chrome;109.0;macOS;10.15.7;undefined;undefined;2560 x 1440;2560 x 1440
S006;53;Vrouwelijk;Links;2;115;left;no;700;leftarrow;1207;true;focus;yes;560938;Chrome;109.0;macOS;10.15.7;undefined;undefined;2560 x 1440;2560 x 1440
S006;53;Vrouwelijk;Links;2;116;right;yes;700;undefined;null;true;focus;yes;562952;Chrome;109.0;macOS;10.15.7;undefined;undefined;2560 x 1440;2560 x 1440
S006;53;Vrouwelijk;Links;2;117;right;no;750;rightarrow;1048;true;focus;yes;564764;Chrome;109.0;macOS;10.15.7;undefined;undefined;2560 x 1440;2560 x 1440
S006;53;Vrouwelijk;Links;2;118;right;no;750;rightarrow;1209;true;focus;yes;566732;Chrome;109.0;macOS;10.15.7;undefined;undefined;2560 x 1440;2560 x 1440
S006;53;Vrouwelijk;Links;2;119;left;no;750;leftarrow;1018;true;focus;yes;568510;Chrome;109.0;macOS;10.15.7;undefined;undefined;2560 x 1440;2560 x 1440
S006;53;Vrouwelijk;Links;2;120;left;yes;750;leftarrow;1090;false;focus;yes;570366;Chrome;109.0;macOS;10.15.7;undefined;undefined;2560 x 1440;2560 x 1440
S006;53;Vrouwelijk;Links;2;121;left;no;700;leftarrow;1025;true;focus;yes;572155;Chrome;109.0;macOS;10.15.7;undefined;undefined;2560 x 1440;2560 x 1440
S006;53;Vrouwelijk;Links;2;122;right;no;700;undefined;null;false;focus;yes;574172;Chrome;109.0;macOS;10.15.7;undefined;undefined;2560 x 1440;2560 x 1440
S006;53;Vrouwelijk;Links;2;123;right;no;700;rightarrow;865;true;focus;yes;575800;Chrome;109.0;macOS;10.15.7;undefined;undefined;2560 x 1440;2560 x 1440
S006;53;Vrouwelijk;Links;2;124;left;yes;700;undefined;null;true;focus;yes;577817;Chrome;109.0;macOS;10.15.7;undefined;undefined;2560 x 1440;2560 x 1440
S006;53;Vrouwelijk;Links;2;125;left;no;750;leftarrow;806;true;focus;yes;579389;Chrome;109.0;macOS;10.15.7;undefined;undefined;2560 x 1440;2560 x 1440
S006;53;Vrouwelijk;Links;2;126;right;yes;750;undefined;null;true;focus;yes;581408;Chrome;109.0;macOS;10.15.7;undefined;undefined;2560 x 1440;2560 x 1440
S006;53;Vrouwelijk;Links;2;127;right;no;800;rightarrow;909;true;focus;yes;583079;Chrome;109.0;macOS;10.15.7;undefined;undefined;2560 x 1440;2560 x 1440
S006;53;Vrouwelijk;Links;2;128;left;no;800;leftarrow;895;true;focus;yes;584733;Chrome;109.0;macOS;10.15.7;undefined;undefined;2560 x 1440;2560 x 1440
S006;53;Vrouwelijk;Links;3;1;left;no;800;leftarrow;1005;true;focus;yes;605535;Chrome;109.0;macOS;10.15.7;undefined;undefined;2560 x 1440;2560 x 1440
S006;53;Vrouwelijk;Links;3;2;right;yes;800;rightarrow;936;false;focus;yes;607234;Chrome;109.0;macOS;10.15.7;undefined;undefined;2560 x 1440;2560 x 1440
S006;53;Vrouwelijk;Links;3;3;right;no;750;rightarrow;938;true;focus;yes;608933;Chrome;109.0;macOS;10.15.7;undefined;undefined;2560 x 1440;2560 x 1440
S006;53;Vrouwelijk;Links;3;4;right;no;750;rightarrow;1034;true;focus;yes;610733;Chrome;109.0;macOS;10.15.7;undefined;undefined;2560 x 1440;2560 x 1440
S006;53;Vrouwelijk;Links;3;5;left;yes;750;leftarrow;742;false;focus;yes;612241;Chrome;109.0;macOS;10.15.7;undefined;undefined;2560 x 1440;2560 x 1440
S006;53;Vrouwelijk;Links;3;6;left;no;700;leftarrow;847;true;focus;yes;613849;Chrome;109.0;macOS;10.15.7;undefined;undefined;2560 x 1440;2560 x 1440
S006;53;Vrouwelijk;Links;3;7;right;no;700;rightarrow;1107;true;focus;yes;615717;Chrome;109.0;macOS;10.15.7;undefined;undefined;2560 x 1440;2560 x 1440
S006;53;Vrouwelijk;Links;3;8;left;no;700;leftarrow;811;true;focus;yes;617292;Chrome;109.0;macOS;10.15.7;undefined;undefined;2560 x 1440;2560 x 1440
S006;53;Vrouwelijk;Links;3;9;left;no;700;leftarrow;956;true;focus;yes;619013;Chrome;109.0;macOS;10.15.7;undefined;undefined;2560 x 1440;2560 x 1440
S006;53;Vrouwelijk;Links;3;10;right;no;700;rightarrow;1036;true;focus;yes;620813;Chrome;109.0;macOS;10.15.7;undefined;undefined;2560 x 1440;2560 x 1440
S006;53;Vrouwelijk;Links;3;11;left;no;700;leftarrow;1048;true;focus;yes;622625;Chrome;109.0;macOS;10.15.7;undefined;undefined;2560 x 1440;2560 x 1440
S006;53;Vrouwelijk;Links;3;12;right;yes;700;undefined;null;true;focus;yes;624642;Chrome;109.0;macOS;10.15.7;undefined;undefined;2560 x 1440;2560 x 1440
S006;53;Vrouwelijk;Links;3;13;left;yes;750;leftarrow;880;false;focus;yes;626281;Chrome;109.0;macOS;10.15.7;undefined;undefined;2560 x 1440;2560 x 1440
S006;53;Vrouwelijk;Links;3;14;right;no;700;rightarrow;1006;true;focus;yes;628048;Chrome;109.0;macOS;10.15.7;undefined;undefined;2560 x 1440;2560 x 1440
S006;53;Vrouwelijk;Links;3;15;left;no;700;leftarrow;1140;true;focus;yes;629949;Chrome;109.0;macOS;10.15.7;undefined;undefined;2560 x 1440;2560 x 1440
S006;53;Vrouwelijk;Links;3;16;right;no;700;rightarrow;1159;true;focus;yes;631873;Chrome;109.0;macOS;10.15.7;undefined;undefined;2560 x 1440;2560 x 1440
S006;53;Vrouwelijk;Links;3;17;left;no;700;leftarrow;1168;true;focus;yes;633797;Chrome;109.0;macOS;10.15.7;undefined;undefined;2560 x 1440;2560 x 1440
S006;53;Vrouwelijk;Links;3;18;left;no;700;leftarrow;1204;true;focus;yes;635766;Chrome;109.0;macOS;10.15.7;undefined;undefined;2560 x 1440;2560 x 1440
S006;53;Vrouwelijk;Links;3;19;right;no;700;rightarrow;1176;true;focus;yes;637701;Chrome;109.0;macOS;10.15.7;undefined;undefined;2560 x 1440;2560 x 1440
S006;53;Vrouwelijk;Links;3;20;right;yes;700;undefined;null;true;focus;yes;639718;Chrome;109.0;macOS;10.15.7;undefined;undefined;2560 x 1440;2560 x 1440
S006;53;Vrouwelijk;Links;3;21;left;no;750;leftarrow;898;true;focus;yes;641379;Chrome;109.0;macOS;10.15.7;undefined;undefined;2560 x 1440;2560 x 1440
S006;53;Vrouwelijk;Links;3;22;right;no;750;rightarrow;1044;true;focus;yes;643191;Chrome;109.0;macOS;10.15.7;undefined;undefined;2560 x 1440;2560 x 1440
S006;53;Vrouwelijk;Links;3;23;right;no;750;rightarrow;869;true;focus;yes;644822;Chrome;109.0;macOS;10.15.7;undefined;undefined;2560 x 1440;2560 x 1440
S006;53;Vrouwelijk;Links;3;24;left;yes;750;undefined;null;true;focus;yes;646838;Chrome;109.0;macOS;10.15.7;undefined;undefined;2560 x 1440;2560 x 1440
S006;53;Vrouwelijk;Links;3;25;right;no;800;rightarrow;888;true;focus;yes;648490;Chrome;109.0;macOS;10.15.7;undefined;undefined;2560 x 1440;2560 x 1440
S006;53;Vrouwelijk;Links;3;26;left;no;800;undefined;null;false;focus;yes;650502;Chrome;109.0;macOS;10.15.7;undefined;undefined;2560 x 1440;2560 x 1440
S006;53;Vrouwelijk;Links;3;27;left;no;800;leftarrow;915;true;focus;yes;652180;Chrome;109.0;macOS;10.15.7;undefined;undefined;2560 x 1440;2560 x 1440
S006;53;Vrouwelijk;Links;3;28;left;yes;800;leftarrow;1069;false;focus;yes;654014;Chrome;109.0;macOS;10.15.7;undefined;undefined;2560 x 1440;2560 x 1440
S006;53;Vrouwelijk;Links;3;29;right;no;750;rightarrow;992;true;focus;yes;655769;Chrome;109.0;macOS;10.15.7;undefined;undefined;2560 x 1440;2560 x 1440
S006;53;Vrouwelijk;Links;3;30;left;no;750;leftarrow;1040;true;focus;yes;657569;Chrome;109.0;macOS;10.15.7;undefined;undefined;2560 x 1440;2560 x 1440
S006;53;Vrouwelijk;Links;3;31;right;yes;750;rightarrow;995;false;focus;yes;659324;Chrome;109.0;macOS;10.15.7;undefined;undefined;2560 x 1440;2560 x 1440
S006;53;Vrouwelijk;Links;3;32;right;no;700;rightarrow;979;true;focus;yes;661068;Chrome;109.0;macOS;10.15.7;undefined;undefined;2560 x 1440;2560 x 1440
S006;53;Vrouwelijk;Links;3;33;left;no;700;leftarrow;1057;true;focus;yes;662890;Chrome;109.0;macOS;10.15.7;undefined;undefined;2560 x 1440;2560 x 1440
S006;53;Vrouwelijk;Links;3;34;right;no;700;undefined;null;false;focus;yes;664910;Chrome;109.0;macOS;10.15.7;undefined;undefined;2560 x 1440;2560 x 1440
S006;53;Vrouwelijk;Links;3;35;right;yes;700;rightarrow;612;false;focus;yes;666288;Chrome;109.0;macOS;10.15.7;undefined;undefined;2560 x 1440;2560 x 1440
S006;53;Vrouwelijk;Links;3;36;right;no;650;rightarrow;904;true;focus;yes;667953;Chrome;109.0;macOS;10.15.7;undefined;undefined;2560 x 1440;2560 x 1440
S006;53;Vrouwelijk;Links;3;37;left;no;650;leftarrow;839;true;focus;yes;669551;Chrome;109.0;macOS;10.15.7;undefined;undefined;2560 x 1440;2560 x 1440
S006;53;Vrouwelijk;Links;3;38;left;yes;650;undefined;null;true;focus;yes;671566;Chrome;109.0;macOS;10.15.7;undefined;undefined;2560 x 1440;2560 x 1440
S006;53;Vrouwelijk;Links;3;39;left;no;700;leftarrow;854;true;focus;yes;673185;Chrome;109.0;macOS;10.15.7;undefined;undefined;2560 x 1440;2560 x 1440
S006;53;Vrouwelijk;Links;3;40;right;no;700;rightarrow;669;true;focus;yes;674613;Chrome;109.0;macOS;10.15.7;undefined;undefined;2560 x 1440;2560 x 1440
S006;53;Vrouwelijk;Links;3;41;right;no;700;rightarrow;858;true;focus;yes;676234;Chrome;109.0;macOS;10.15.7;undefined;undefined;2560 x 1440;2560 x 1440
S006;53;Vrouwelijk;Links;3;42;right;no;700;rightarrow;813;true;focus;yes;677809;Chrome;109.0;macOS;10.15.7;undefined;undefined;2560 x 1440;2560 x 1440
S006;53;Vrouwelijk;Links;3;43;right;yes;700;rightarrow;961;false;focus;yes;679530;Chrome;109.0;macOS;10.15.7;undefined;undefined;2560 x 1440;2560 x 1440
S006;53;Vrouwelijk;Links;3;44;left;no;650;leftarrow;852;true;focus;yes;681150;Chrome;109.0;macOS;10.15.7;undefined;undefined;2560 x 1440;2560 x 1440
S006;53;Vrouwelijk;Links;3;45;left;no;650;leftarrow;1093;true;focus;yes;683006;Chrome;109.0;macOS;10.15.7;undefined;undefined;2560 x 1440;2560 x 1440
S006;53;Vrouwelijk;Links;3;46;left;no;650;leftarrow;835;true;focus;yes;684604;Chrome;109.0;macOS;10.15.7;undefined;undefined;2560 x 1440;2560 x 1440
S006;53;Vrouwelijk;Links;3;47;right;no;650;rightarrow;972;true;focus;yes;686337;Chrome;109.0;macOS;10.15.7;undefined;undefined;2560 x 1440;2560 x 1440
S006;53;Vrouwelijk;Links;3;48;left;yes;650;leftarrow;804;false;focus;yes;687901;Chrome;109.0;macOS;10.15.7;undefined;undefined;2560 x 1440;2560 x 1440
S006;53;Vrouwelijk;Links;3;49;left;no;600;leftarrow;850;true;focus;yes;689509;Chrome;109.0;macOS;10.15.7;undefined;undefined;2560 x 1440;2560 x 1440
S006;53;Vrouwelijk;Links;3;50;right;yes;600;rightarrow;692;false;focus;yes;690960;Chrome;109.0;macOS;10.15.7;undefined;undefined;2560 x 1440;2560 x 1440
S006;53;Vrouwelijk;Links;3;51;left;no;550;leftarrow;522;true;focus;yes;692243;Chrome;109.0;macOS;10.15.7;undefined;undefined;2560 x 1440;2560 x 1440
S006;53;Vrouwelijk;Links;3;52;left;no;550;leftarrow;764;true;focus;yes;693773;Chrome;109.0;macOS;10.15.7;undefined;undefined;2560 x 1440;2560 x 1440
S006;53;Vrouwelijk;Links;3;53;right;no;550;rightarrow;902;true;focus;yes;695438;Chrome;109.0;macOS;10.15.7;undefined;undefined;2560 x 1440;2560 x 1440
S006;53;Vrouwelijk;Links;3;54;right;no;550;rightarrow;971;true;focus;yes;697171;Chrome;109.0;macOS;10.15.7;undefined;undefined;2560 x 1440;2560 x 1440
S006;53;Vrouwelijk;Links;3;55;right;no;550;rightarrow;1073;true;focus;yes;699005;Chrome;109.0;macOS;10.15.7;undefined;undefined;2560 x 1440;2560 x 1440
S006;53;Vrouwelijk;Links;3;56;left;yes;550;undefined;null;true;focus;yes;701022;Chrome;109.0;macOS;10.15.7;undefined;undefined;2560 x 1440;2560 x 1440
S006;53;Vrouwelijk;Links;3;57;right;no;600;rightarrow;931;true;focus;yes;702717;Chrome;109.0;macOS;10.15.7;undefined;undefined;2560 x 1440;2560 x 1440
S006;53;Vrouwelijk;Links;3;58;left;yes;600;undefined;null;true;focus;yes;704736;Chrome;109.0;macOS;10.15.7;undefined;undefined;2560 x 1440;2560 x 1440
S006;53;Vrouwelijk;Links;3;59;left;no;650;leftarrow;934;true;focus;yes;706430;Chrome;109.0;macOS;10.15.7;undefined;undefined;2560 x 1440;2560 x 1440
S006;53;Vrouwelijk;Links;3;60;left;no;650;leftarrow;1033;true;focus;yes;708219;Chrome;109.0;macOS;10.15.7;undefined;undefined;2560 x 1440;2560 x 1440
S006;53;Vrouwelijk;Links;3;61;left;no;650;leftarrow;1182;true;focus;yes;710165;Chrome;109.0;macOS;10.15.7;undefined;undefined;2560 x 1440;2560 x 1440
S006;53;Vrouwelijk;Links;3;62;right;yes;650;undefined;null;true;focus;yes;712181;Chrome;109.0;macOS;10.15.7;undefined;undefined;2560 x 1440;2560 x 1440
S006;53;Vrouwelijk;Links;3;63;right;no;700;rightarrow;845;true;focus;yes;713788;Chrome;109.0;macOS;10.15.7;undefined;undefined;2560 x 1440;2560 x 1440
S006;53;Vrouwelijk;Links;3;64;right;no;700;rightarrow;878;true;focus;yes;715431;Chrome;109.0;macOS;10.15.7;undefined;undefined;2560 x 1440;2560 x 1440
S006;53;Vrouwelijk;Links;3;65;right;yes;700;undefined;null;true;focus;yes;717447;Chrome;109.0;macOS;10.15.7;undefined;undefined;2560 x 1440;2560 x 1440
S006;53;Vrouwelijk;Links;3;66;right;no;750;rightarrow;959;true;focus;yes;719166;Chrome;109.0;macOS;10.15.7;undefined;undefined;2560 x 1440;2560 x 1440
S006;53;Vrouwelijk;Links;3;67;right;no;750;rightarrow;1084;true;focus;yes;721011;Chrome;109.0;macOS;10.15.7;undefined;undefined;2560 x 1440;2560 x 1440
S006;53;Vrouwelijk;Links;3;68;left;no;750;leftarrow;1024;true;focus;yes;722800;Chrome;109.0;macOS;10.15.7;undefined;undefined;2560 x 1440;2560 x 1440
S006;53;Vrouwelijk;Links;3;69;right;no;750;rightarrow;1097;true;focus;yes;724656;Chrome;109.0;macOS;10.15.7;undefined;undefined;2560 x 1440;2560 x 1440
S006;53;Vrouwelijk;Links;3;70;left;no;750;leftarrow;1131;true;focus;yes;726546;Chrome;109.0;macOS;10.15.7;undefined;undefined;2560 x 1440;2560 x 1440
S006;53;Vrouwelijk;Links;3;71;left;no;750;leftarrow;1023;true;focus;yes;728335;Chrome;109.0;macOS;10.15.7;undefined;undefined;2560 x 1440;2560 x 1440
S006;53;Vrouwelijk;Links;3;72;left;yes;750;leftarrow;1061;false;focus;yes;730157;Chrome;109.0;macOS;10.15.7;undefined;undefined;2560 x 1440;2560 x 1440
S006;53;Vrouwelijk;Links;3;73;left;no;700;leftarrow;993;true;focus;yes;731913;Chrome;109.0;macOS;10.15.7;undefined;undefined;2560 x 1440;2560 x 1440
S006;53;Vrouwelijk;Links;3;74;right;no;700;rightarrow;1053;true;focus;yes;733724;Chrome;109.0;macOS;10.15.7;undefined;undefined;2560 x 1440;2560 x 1440
S006;53;Vrouwelijk;Links;3;75;right;yes;700;undefined;null;true;focus;yes;735740;Chrome;109.0;macOS;10.15.7;undefined;undefined;2560 x 1440;2560 x 1440
S006;53;Vrouwelijk;Links;3;76;right;no;750;rightarrow;841;true;focus;yes;737346;Chrome;109.0;macOS;10.15.7;undefined;undefined;2560 x 1440;2560 x 1440
S006;53;Vrouwelijk;Links;3;77;left;no;750;leftarrow;788;true;focus;yes;738899;Chrome;109.0;macOS;10.15.7;undefined;undefined;2560 x 1440;2560 x 1440
S006;53;Vrouwelijk;Links;3;78;left;no;750;leftarrow;991;true;focus;yes;740654;Chrome;109.0;macOS;10.15.7;undefined;undefined;2560 x 1440;2560 x 1440
S006;53;Vrouwelijk;Links;3;79;right;no;750;rightarrow;993;true;focus;yes;742409;Chrome;109.0;macOS;10.15.7;undefined;undefined;2560 x 1440;2560 x 1440
S006;53;Vrouwelijk;Links;3;80;left;yes;750;undefined;null;true;focus;yes;744685;Chrome;109.0;macOS;10.15.7;undefined;undefined;2560 x 1440;2560 x 1440
S006;53;Vrouwelijk;Links;3;81;left;yes;800;leftarrow;787;false;focus;yes;746234;Chrome;109.0;macOS;10.15.7;undefined;undefined;2560 x 1440;2560 x 1440
S006;53;Vrouwelijk;Links;3;82;right;no;750;rightarrow;1024;true;focus;yes;748023;Chrome;109.0;macOS;10.15.7;undefined;undefined;2560 x 1440;2560 x 1440
S006;53;Vrouwelijk;Links;3;83;right;yes;750;rightarrow;1039;false;focus;yes;749823;Chrome;109.0;macOS;10.15.7;undefined;undefined;2560 x 1440;2560 x 1440
S006;53;Vrouwelijk;Links;3;84;right;no;700;rightarrow;725;true;focus;yes;751309;Chrome;109.0;macOS;10.15.7;undefined;undefined;2560 x 1440;2560 x 1440
S006;53;Vrouwelijk;Links;3;85;left;no;700;leftarrow;1206;true;focus;yes;753278;Chrome;109.0;macOS;10.15.7;undefined;undefined;2560 x 1440;2560 x 1440
S006;53;Vrouwelijk;Links;3;86;left;no;700;leftarrow;1151;true;focus;yes;755190;Chrome;109.0;macOS;10.15.7;undefined;undefined;2560 x 1440;2560 x 1440
S006;53;Vrouwelijk;Links;3;87;left;no;700;leftarrow;1084;true;focus;yes;757035;Chrome;109.0;macOS;10.15.7;undefined;undefined;2560 x 1440;2560 x 1440
S006;53;Vrouwelijk;Links;3;88;right;no;700;rightarrow;1141;true;focus;yes;758936;Chrome;109.0;macOS;10.15.7;undefined;undefined;2560 x 1440;2560 x 1440
S006;53;Vrouwelijk;Links;3;89;left;no;700;leftarrow;1168;true;focus;yes;760871;Chrome;109.0;macOS;10.15.7;undefined;undefined;2560 x 1440;2560 x 1440
S006;53;Vrouwelijk;Links;3;90;right;no;700;rightarrow;871;true;focus;yes;762503;Chrome;109.0;macOS;10.15.7;undefined;undefined;2560 x 1440;2560 x 1440
S006;53;Vrouwelijk;Links;3;91;right;no;700;rightarrow;1175;true;focus;yes;764438;Chrome;109.0;macOS;10.15.7;undefined;undefined;2560 x 1440;2560 x 1440
S006;53;Vrouwelijk;Links;3;92;left;no;700;leftarrow;1242;true;focus;yes;766440;Chrome;109.0;macOS;10.15.7;undefined;undefined;2560 x 1440;2560 x 1440
S006;53;Vrouwelijk;Links;3;93;left;yes;700;undefined;null;true;focus;yes;768460;Chrome;109.0;macOS;10.15.7;undefined;undefined;2560 x 1440;2560 x 1440
S006;53;Vrouwelijk;Links;3;94;right;yes;750;rightarrow;749;false;focus;yes;769973;Chrome;109.0;macOS;10.15.7;undefined;undefined;2560 x 1440;2560 x 1440
S006;53;Vrouwelijk;Links;3;95;right;no;700;rightarrow;1184;true;focus;yes;771919;Chrome;109.0;macOS;10.15.7;undefined;undefined;2560 x 1440;2560 x 1440
S006;53;Vrouwelijk;Links;3;96;left;no;700;leftarrow;1143;true;focus;yes;773821;Chrome;109.0;macOS;10.15.7;undefined;undefined;2560 x 1440;2560 x 1440
S006;53;Vrouwelijk;Links;3;97;left;no;700;undefined;null;false;focus;yes;775834;Chrome;109.0;macOS;10.15.7;undefined;undefined;2560 x 1440;2560 x 1440
S006;53;Vrouwelijk;Links;3;98;left;no;700;undefined;null;false;focus;yes;777851;Chrome;109.0;macOS;10.15.7;undefined;undefined;2560 x 1440;2560 x 1440
S006;53;Vrouwelijk;Links;3;99;left;yes;700;leftarrow;944;false;focus;yes;779558;Chrome;109.0;macOS;10.15.7;undefined;undefined;2560 x 1440;2560 x 1440
S006;53;Vrouwelijk;Links;3;100;right;no;650;rightarrow;1001;true;focus;yes;781313;Chrome;109.0;macOS;10.15.7;undefined;undefined;2560 x 1440;2560 x 1440
S006;53;Vrouwelijk;Links;3;101;left;no;650;leftarrow;1182;true;focus;yes;783260;Chrome;109.0;macOS;10.15.7;undefined;undefined;2560 x 1440;2560 x 1440
S006;53;Vrouwelijk;Links;3;102;right;no;650;rightarrow;1167;true;focus;yes;785184;Chrome;109.0;macOS;10.15.7;undefined;undefined;2560 x 1440;2560 x 1440
S006;53;Vrouwelijk;Links;3;103;right;no;650;rightarrow;952;true;focus;yes;786894;Chrome;109.0;macOS;10.15.7;undefined;undefined;2560 x 1440;2560 x 1440
S006;53;Vrouwelijk;Links;3;104;right;yes;650;undefined;null;true;focus;yes;788907;Chrome;109.0;macOS;10.15.7;undefined;undefined;2560 x 1440;2560 x 1440
S006;53;Vrouwelijk;Links;3;105;left;yes;700;leftarrow;633;false;focus;yes;790303;Chrome;109.0;macOS;10.15.7;undefined;undefined;2560 x 1440;2560 x 1440
S006;53;Vrouwelijk;Links;3;106;right;yes;650;rightarrow;988;false;focus;yes;792046;Chrome;109.0;macOS;10.15.7;undefined;undefined;2560 x 1440;2560 x 1440
S006;53;Vrouwelijk;Links;3;107;left;no;600;leftarrow;961;true;focus;yes;793768;Chrome;109.0;macOS;10.15.7;undefined;undefined;2560 x 1440;2560 x 1440
S006;53;Vrouwelijk;Links;3;108;left;no;600;leftarrow;1079;true;focus;yes;795613;Chrome;109.0;macOS;10.15.7;undefined;undefined;2560 x 1440;2560 x 1440
S006;53;Vrouwelijk;Links;3;109;right;no;600;rightarrow;1139;true;focus;yes;797514;Chrome;109.0;macOS;10.15.7;undefined;undefined;2560 x 1440;2560 x 1440
S006;53;Vrouwelijk;Links;3;110;right;no;600;rightarrow;912;true;focus;yes;799191;Chrome;109.0;macOS;10.15.7;undefined;undefined;2560 x 1440;2560 x 1440
S006;53;Vrouwelijk;Links;3;111;left;no;600;leftarrow;1198;true;focus;yes;801148;Chrome;109.0;macOS;10.15.7;undefined;undefined;2560 x 1440;2560 x 1440
S006;53;Vrouwelijk;Links;3;112;right;no;600;rightarrow;1111;true;focus;yes;803016;Chrome;109.0;macOS;10.15.7;undefined;undefined;2560 x 1440;2560 x 1440
S006;53;Vrouwelijk;Links;3;113;left;no;600;leftarrow;1067;true;focus;yes;804850;Chrome;109.0;macOS;10.15.7;undefined;undefined;2560 x 1440;2560 x 1440
S006;53;Vrouwelijk;Links;3;114;right;yes;600;undefined;null;true;focus;yes;806868;Chrome;109.0;macOS;10.15.7;undefined;undefined;2560 x 1440;2560 x 1440
S006;53;Vrouwelijk;Links;3;115;right;no;650;rightarrow;686;true;focus;yes;808315;Chrome;109.0;macOS;10.15.7;undefined;undefined;2560 x 1440;2560 x 1440
S006;53;Vrouwelijk;Links;3;116;left;yes;650;undefined;null;true;focus;yes;810332;Chrome;109.0;macOS;10.15.7;undefined;undefined;2560 x 1440;2560 x 1440
S006;53;Vrouwelijk;Links;3;117;right;no;700;rightarrow;856;true;focus;yes;811949;Chrome;109.0;macOS;10.15.7;undefined;undefined;2560 x 1440;2560 x 1440
S006;53;Vrouwelijk;Links;3;118;left;no;700;leftarrow;1062;true;focus;yes;813771;Chrome;109.0;macOS;10.15.7;undefined;undefined;2560 x 1440;2560 x 1440
S006;53;Vrouwelijk;Links;3;119;left;no;700;leftarrow;1095;true;focus;yes;815628;Chrome;109.0;macOS;10.15.7;undefined;undefined;2560 x 1440;2560 x 1440
S006;53;Vrouwelijk;Links;3;120;right;no;700;rightarrow;758;true;focus;yes;817147;Chrome;109.0;macOS;10.15.7;undefined;undefined;2560 x 1440;2560 x 1440
S006;53;Vrouwelijk;Links;3;121;right;no;700;rightarrow;970;true;focus;yes;818879;Chrome;109.0;macOS;10.15.7;undefined;undefined;2560 x 1440;2560 x 1440
S006;53;Vrouwelijk;Links;3;122;left;no;700;leftarrow;1106;true;focus;yes;820747;Chrome;109.0;macOS;10.15.7;undefined;undefined;2560 x 1440;2560 x 1440
S006;53;Vrouwelijk;Links;3;123;right;no;700;rightarrow;824;true;focus;yes;822333;Chrome;109.0;macOS;10.15.7;undefined;undefined;2560 x 1440;2560 x 1440
S006;53;Vrouwelijk;Links;3;124;left;yes;700;undefined;null;true;focus;yes;824346;Chrome;109.0;macOS;10.15.7;undefined;undefined;2560 x 1440;2560 x 1440
S006;53;Vrouwelijk;Links;3;125;left;no;750;leftarrow;847;true;focus;yes;825956;Chrome;109.0;macOS;10.15.7;undefined;undefined;2560 x 1440;2560 x 1440
S006;53;Vrouwelijk;Links;3;126;right;yes;750;rightarrow;903;false;focus;yes;827621;Chrome;109.0;macOS;10.15.7;undefined;undefined;2560 x 1440;2560 x 1440
S006;53;Vrouwelijk;Links;3;127;right;no;700;rightarrow;680;true;focus;yes;829061;Chrome;109.0;macOS;10.15.7;undefined;undefined;2560 x 1440;2560 x 1440
S006;53;Vrouwelijk;Links;3;128;left;no;700;leftarrow;1151;true;focus;yes;830973;Chrome;109.0;macOS;10.15.7;undefined;undefined;2560 x 1440;2560 x 1440
S006;53;Vrouwelijk;Links;4;1;left;no;700;leftarrow;579;true;focus;yes;850482;Chrome;109.0;macOS;10.15.7;undefined;undefined;2560 x 1440;2560 x 1440
S006;53;Vrouwelijk;Links;4;2;left;yes;700;undefined;null;true;focus;yes;852498;Chrome;109.0;macOS;10.15.7;undefined;undefined;2560 x 1440;2560 x 1440
S006;53;Vrouwelijk;Links;4;3;right;no;750;rightarrow;1113;true;focus;yes;854375;Chrome;109.0;macOS;10.15.7;undefined;undefined;2560 x 1440;2560 x 1440
S006;53;Vrouwelijk;Links;4;4;right;no;750;rightarrow;1033;true;focus;yes;856175;Chrome;109.0;macOS;10.15.7;undefined;undefined;2560 x 1440;2560 x 1440
S006;53;Vrouwelijk;Links;4;5;left;no;750;undefined;null;false;focus;yes;858193;Chrome;109.0;macOS;10.15.7;undefined;undefined;2560 x 1440;2560 x 1440
S006;53;Vrouwelijk;Links;4;6;right;yes;750;undefined;null;true;focus;yes;860209;Chrome;109.0;macOS;10.15.7;undefined;undefined;2560 x 1440;2560 x 1440
S006;53;Vrouwelijk;Links;4;7;left;no;800;leftarrow;1086;true;focus;yes;862059;Chrome;109.0;macOS;10.15.7;undefined;undefined;2560 x 1440;2560 x 1440
S006;53;Vrouwelijk;Links;4;8;right;no;800;rightarrow;960;true;focus;yes;863780;Chrome;109.0;macOS;10.15.7;undefined;undefined;2560 x 1440;2560 x 1440
S006;53;Vrouwelijk;Links;4;9;right;yes;800;undefined;null;true;focus;yes;865793;Chrome;109.0;macOS;10.15.7;undefined;undefined;2560 x 1440;2560 x 1440
S006;53;Vrouwelijk;Links;4;10;left;no;850;leftarrow;1049;true;focus;yes;867605;Chrome;109.0;macOS;10.15.7;undefined;undefined;2560 x 1440;2560 x 1440
S006;53;Vrouwelijk;Links;4;11;right;no;850;rightarrow;1085;true;focus;yes;869450;Chrome;109.0;macOS;10.15.7;undefined;undefined;2560 x 1440;2560 x 1440
S006;53;Vrouwelijk;Links;4;12;right;no;850;rightarrow;1106;true;focus;yes;871318;Chrome;109.0;macOS;10.15.7;undefined;undefined;2560 x 1440;2560 x 1440
S006;53;Vrouwelijk;Links;4;13;left;no;850;undefined;null;false;focus;yes;873331;Chrome;109.0;macOS;10.15.7;undefined;undefined;2560 x 1440;2560 x 1440
S006;53;Vrouwelijk;Links;4;14;left;yes;850;undefined;null;true;focus;yes;875346;Chrome;109.0;macOS;10.15.7;undefined;undefined;2560 x 1440;2560 x 1440
S006;53;Vrouwelijk;Links;4;15;right;no;900;rightarrow;1004;true;focus;yes;877112;Chrome;109.0;macOS;10.15.7;undefined;undefined;2560 x 1440;2560 x 1440
S006;53;Vrouwelijk;Links;4;16;left;no;900;leftarrow;1069;true;focus;yes;878946;Chrome;109.0;macOS;10.15.7;undefined;undefined;2560 x 1440;2560 x 1440
S006;53;Vrouwelijk;Links;4;17;left;no;900;leftarrow;970;true;focus;yes;880678;Chrome;109.0;macOS;10.15.7;undefined;undefined;2560 x 1440;2560 x 1440
S006;53;Vrouwelijk;Links;4;18;right;no;900;rightarrow;1101;true;focus;yes;882546;Chrome;109.0;macOS;10.15.7;undefined;undefined;2560 x 1440;2560 x 1440
S006;53;Vrouwelijk;Links;4;19;right;no;900;rightarrow;918;true;focus;yes;884222;Chrome;109.0;macOS;10.15.7;undefined;undefined;2560 x 1440;2560 x 1440
S006;53;Vrouwelijk;Links;4;20;left;yes;900;leftarrow;1028;false;focus;yes;886011;Chrome;109.0;macOS;10.15.7;undefined;undefined;2560 x 1440;2560 x 1440
S006;53;Vrouwelijk;Links;4;21;right;no;850;rightarrow;859;true;focus;yes;887631;Chrome;109.0;macOS;10.15.7;undefined;undefined;2560 x 1440;2560 x 1440
S006;53;Vrouwelijk;Links;4;22;right;yes;850;rightarrow;1085;false;focus;yes;889476;Chrome;109.0;macOS;10.15.7;undefined;undefined;2560 x 1440;2560 x 1440
S006;53;Vrouwelijk;Links;4;23;left;no;800;leftarrow;1062;true;focus;yes;891299;Chrome;109.0;macOS;10.15.7;undefined;undefined;2560 x 1440;2560 x 1440
S006;53;Vrouwelijk;Links;4;24;left;no;800;leftarrow;813;true;focus;yes;892874;Chrome;109.0;macOS;10.15.7;undefined;undefined;2560 x 1440;2560 x 1440
S006;53;Vrouwelijk;Links;4;25;left;no;800;leftarrow;982;true;focus;yes;894618;Chrome;109.0;macOS;10.15.7;undefined;undefined;2560 x 1440;2560 x 1440
S006;53;Vrouwelijk;Links;4;26;left;no;800;leftarrow;1083;true;focus;yes;896463;Chrome;109.0;macOS;10.15.7;undefined;undefined;2560 x 1440;2560 x 1440
S006;53;Vrouwelijk;Links;4;27;right;no;800;rightarrow;1016;true;focus;yes;898240;Chrome;109.0;macOS;10.15.7;undefined;undefined;2560 x 1440;2560 x 1440
S006;53;Vrouwelijk;Links;4;28;right;yes;800;rightarrow;1031;false;focus;yes;900029;Chrome;109.0;macOS;10.15.7;undefined;undefined;2560 x 1440;2560 x 1440
S006;53;Vrouwelijk;Links;4;29;right;no;750;rightarrow;983;true;focus;yes;901773;Chrome;109.0;macOS;10.15.7;undefined;undefined;2560 x 1440;2560 x 1440
S006;53;Vrouwelijk;Links;4;30;left;no;750;leftarrow;852;true;focus;yes;903393;Chrome;109.0;macOS;10.15.7;undefined;undefined;2560 x 1440;2560 x 1440
S006;53;Vrouwelijk;Links;4;31;right;no;750;rightarrow;1042;true;focus;yes;905193;Chrome;109.0;macOS;10.15.7;undefined;undefined;2560 x 1440;2560 x 1440
S006;53;Vrouwelijk;Links;4;32;left;yes;750;leftarrow;975;false;focus;yes;906926;Chrome;109.0;macOS;10.15.7;undefined;undefined;2560 x 1440;2560 x 1440
S006;53;Vrouwelijk;Links;4;33;left;no;700;leftarrow;967;true;focus;yes;908658;Chrome;109.0;macOS;10.15.7;undefined;undefined;2560 x 1440;2560 x 1440
S006;53;Vrouwelijk;Links;4;34;left;yes;700;undefined;null;true;focus;yes;910672;Chrome;109.0;macOS;10.15.7;undefined;undefined;2560 x 1440;2560 x 1440
S006;53;Vrouwelijk;Links;4;35;right;no;750;rightarrow;835;true;focus;yes;912270;Chrome;109.0;macOS;10.15.7;undefined;undefined;2560 x 1440;2560 x 1440
S006;53;Vrouwelijk;Links;4;36;right;no;750;rightarrow;765;true;focus;yes;913800;Chrome;109.0;macOS;10.15.7;undefined;undefined;2560 x 1440;2560 x 1440
S006;53;Vrouwelijk;Links;4;37;right;yes;750;rightarrow;823;false;focus;yes;915386;Chrome;109.0;macOS;10.15.7;undefined;undefined;2560 x 1440;2560 x 1440
S006;53;Vrouwelijk;Links;4;38;left;no;700;leftarrow;994;true;focus;yes;917141;Chrome;109.0;macOS;10.15.7;undefined;undefined;2560 x 1440;2560 x 1440
S006;53;Vrouwelijk;Links;4;39;right;no;700;rightarrow;1012;true;focus;yes;918919;Chrome;109.0;macOS;10.15.7;undefined;undefined;2560 x 1440;2560 x 1440
S006;53;Vrouwelijk;Links;4;40;left;no;700;leftarrow;968;true;focus;yes;920651;Chrome;109.0;macOS;10.15.7;undefined;undefined;2560 x 1440;2560 x 1440
S006;53;Vrouwelijk;Links;4;41;right;no;700;rightarrow;1153;true;focus;yes;922564;Chrome;109.0;macOS;10.15.7;undefined;undefined;2560 x 1440;2560 x 1440
S006;53;Vrouwelijk;Links;4;42;right;no;700;rightarrow;1007;true;focus;yes;924330;Chrome;109.0;macOS;10.15.7;undefined;undefined;2560 x 1440;2560 x 1440
S006;53;Vrouwelijk;Links;4;43;right;yes;700;rightarrow;734;false;focus;yes;925826;Chrome;109.0;macOS;10.15.7;undefined;undefined;2560 x 1440;2560 x 1440
S006;53;Vrouwelijk;Links;4;44;left;no;650;leftarrow;874;true;focus;yes;927458;Chrome;109.0;macOS;10.15.7;undefined;undefined;2560 x 1440;2560 x 1440
S006;53;Vrouwelijk;Links;4;45;left;yes;650;leftarrow;789;false;focus;yes;929011;Chrome;109.0;macOS;10.15.7;undefined;undefined;2560 x 1440;2560 x 1440
S006;53;Vrouwelijk;Links;4;46;left;no;600;leftarrow;859;true;focus;yes;930630;Chrome;109.0;macOS;10.15.7;undefined;undefined;2560 x 1440;2560 x 1440
S006;53;Vrouwelijk;Links;4;47;right;no;600;rightarrow;957;true;focus;yes;932352;Chrome;109.0;macOS;10.15.7;undefined;undefined;2560 x 1440;2560 x 1440
S006;53;Vrouwelijk;Links;4;48;left;no;600;undefined;null;false;focus;yes;934366;Chrome;109.0;macOS;10.15.7;undefined;undefined;2560 x 1440;2560 x 1440
S006;53;Vrouwelijk;Links;4;49;right;yes;600;rightarrow;889;false;focus;yes;936020;Chrome;109.0;macOS;10.15.7;undefined;undefined;2560 x 1440;2560 x 1440
S006;53;Vrouwelijk;Links;4;50;left;yes;550;undefined;null;true;focus;yes;938033;Chrome;109.0;macOS;10.15.7;undefined;undefined;2560 x 1440;2560 x 1440
S006;53;Vrouwelijk;Links;4;51;right;no;600;rightarrow;835;true;focus;yes;939631;Chrome;109.0;macOS;10.15.7;undefined;undefined;2560 x 1440;2560 x 1440
S006;53;Vrouwelijk;Links;4;52;left;no;600;leftarrow;1126;true;focus;yes;941521;Chrome;109.0;macOS;10.15.7;undefined;undefined;2560 x 1440;2560 x 1440
S006;53;Vrouwelijk;Links;4;53;left;no;600;leftarrow;1229;true;focus;yes;943512;Chrome;109.0;macOS;10.15.7;undefined;undefined;2560 x 1440;2560 x 1440
S006;53;Vrouwelijk;Links;4;54;left;no;600;leftarrow;1094;true;focus;yes;945369;Chrome;109.0;macOS;10.15.7;undefined;undefined;2560 x 1440;2560 x 1440
S006;53;Vrouwelijk;Links;4;55;right;no;600;rightarrow;1206;true;focus;yes;947338;Chrome;109.0;macOS;10.15.7;undefined;undefined;2560 x 1440;2560 x 1440
S006;53;Vrouwelijk;Links;4;56;right;no;600;rightarrow;1118;true;focus;yes;949216;Chrome;109.0;macOS;10.15.7;undefined;undefined;2560 x 1440;2560 x 1440
S006;53;Vrouwelijk;Links;4;57;left;yes;600;undefined;null;true;focus;yes;951236;Chrome;109.0;macOS;10.15.7;undefined;undefined;2560 x 1440;2560 x 1440
S006;53;Vrouwelijk;Links;4;58;right;no;650;rightarrow;1083;true;focus;yes;953087;Chrome;109.0;macOS;10.15.7;undefined;undefined;2560 x 1440;2560 x 1440
S006;53;Vrouwelijk;Links;4;59;left;no;650;leftarrow;1220;true;focus;yes;955067;Chrome;109.0;macOS;10.15.7;undefined;undefined;2560 x 1440;2560 x 1440
S006;53;Vrouwelijk;Links;4;60;left;no;650;leftarrow;1086;true;focus;yes;956912;Chrome;109.0;macOS;10.15.7;undefined;undefined;2560 x 1440;2560 x 1440
S006;53;Vrouwelijk;Links;4;61;right;yes;650;undefined;null;true;focus;yes;958927;Chrome;109.0;macOS;10.15.7;undefined;undefined;2560 x 1440;2560 x 1440
S006;53;Vrouwelijk;Links;4;62;right;no;700;rightarrow;888;true;focus;yes;960579;Chrome;109.0;macOS;10.15.7;undefined;undefined;2560 x 1440;2560 x 1440
S006;53;Vrouwelijk;Links;4;63;right;no;700;rightarrow;902;true;focus;yes;962245;Chrome;109.0;macOS;10.15.7;undefined;undefined;2560 x 1440;2560 x 1440
S006;53;Vrouwelijk;Links;4;64;left;no;700;leftarrow;1226;true;focus;yes;964236;Chrome;109.0;macOS;10.15.7;undefined;undefined;2560 x 1440;2560 x 1440
S006;53;Vrouwelijk;Links;4;65;left;no;700;leftarrow;1011;true;focus;yes;966013;Chrome;109.0;macOS;10.15.7;undefined;undefined;2560 x 1440;2560 x 1440
S006;53;Vrouwelijk;Links;4;66;left;no;700;leftarrow;1170;true;focus;yes;967949;Chrome;109.0;macOS;10.15.7;undefined;undefined;2560 x 1440;2560 x 1440
S006;53;Vrouwelijk;Links;4;67;right;no;700;undefined;null;false;focus;yes;969967;Chrome;109.0;macOS;10.15.7;undefined;undefined;2560 x 1440;2560 x 1440
S006;53;Vrouwelijk;Links;4;68;right;no;700;rightarrow;1109;true;focus;yes;971841;Chrome;109.0;macOS;10.15.7;undefined;undefined;2560 x 1440;2560 x 1440
S006;53;Vrouwelijk;Links;4;69;left;yes;700;undefined;null;true;focus;yes;973857;Chrome;109.0;macOS;10.15.7;undefined;undefined;2560 x 1440;2560 x 1440
S006;53;Vrouwelijk;Links;4;70;right;no;750;rightarrow;832;true;focus;yes;975453;Chrome;109.0;macOS;10.15.7;undefined;undefined;2560 x 1440;2560 x 1440
S006;53;Vrouwelijk;Links;4;71;left;no;750;leftarrow;853;true;focus;yes;977073;Chrome;109.0;macOS;10.15.7;undefined;undefined;2560 x 1440;2560 x 1440
S006;53;Vrouwelijk;Links;4;72;right;yes;750;rightarrow;926;false;focus;yes;978761;Chrome;109.0;macOS;10.15.7;undefined;undefined;2560 x 1440;2560 x 1440
S006;53;Vrouwelijk;Links;4;73;right;no;700;rightarrow;847;true;focus;yes;980369;Chrome;109.0;macOS;10.15.7;undefined;undefined;2560 x 1440;2560 x 1440
S006;53;Vrouwelijk;Links;4;74;right;yes;700;undefined;null;true;focus;yes;982383;Chrome;109.0;macOS;10.15.7;undefined;undefined;2560 x 1440;2560 x 1440
S006;53;Vrouwelijk;Links;4;75;left;no;750;leftarrow;947;true;focus;yes;984093;Chrome;109.0;macOS;10.15.7;undefined;undefined;2560 x 1440;2560 x 1440
S006;53;Vrouwelijk;Links;4;76;left;no;750;leftarrow;1096;true;focus;yes;985949;Chrome;109.0;macOS;10.15.7;undefined;undefined;2560 x 1440;2560 x 1440
S006;53;Vrouwelijk;Links;4;77;right;no;750;undefined;null;false;focus;yes;987967;Chrome;109.0;macOS;10.15.7;undefined;undefined;2560 x 1440;2560 x 1440
S006;53;Vrouwelijk;Links;4;78;right;no;750;undefined;null;false;focus;yes;989995;Chrome;109.0;macOS;10.15.7;undefined;undefined;2560 x 1440;2560 x 1440
S006;53;Vrouwelijk;Links;4;79;left;no;750;undefined;null;false;focus;yes;992015;Chrome;109.0;macOS;10.15.7;undefined;undefined;2560 x 1440;2560 x 1440
S006;53;Vrouwelijk;Links;4;80;left;yes;750;undefined;null;true;focus;yes;994040;Chrome;109.0;macOS;10.15.7;undefined;undefined;2560 x 1440;2560 x 1440
S006;53;Vrouwelijk;Links;4;81;left;yes;800;leftarrow;1004;false;focus;yes;995805;Chrome;109.0;macOS;10.15.7;undefined;undefined;2560 x 1440;2560 x 1440
S006;53;Vrouwelijk;Links;4;82;right;no;750;rightarrow;879;true;focus;yes;997448;Chrome;109.0;macOS;10.15.7;undefined;undefined;2560 x 1440;2560 x 1440
S006;53;Vrouwelijk;Links;4;83;right;no;750;rightarrow;1188;true;focus;yes;999394;Chrome;109.0;macOS;10.15.7;undefined;undefined;2560 x 1440;2560 x 1440
S006;53;Vrouwelijk;Links;4;84;right;no;750;rightarrow;1040;true;focus;yes;1001194;Chrome;109.0;macOS;10.15.7;undefined;undefined;2560 x 1440;2560 x 1440
S006;53;Vrouwelijk;Links;4;85;left;no;750;leftarrow;1018;true;focus;yes;1002971;Chrome;109.0;macOS;10.15.7;undefined;undefined;2560 x 1440;2560 x 1440
S006;53;Vrouwelijk;Links;4;86;left;no;750;leftarrow;1057;true;focus;yes;1004794;Chrome;109.0;macOS;10.15.7;undefined;undefined;2560 x 1440;2560 x 1440
S006;53;Vrouwelijk;Links;4;87;left;no;750;leftarrow;1153;true;focus;yes;1006707;Chrome;109.0;macOS;10.15.7;undefined;undefined;2560 x 1440;2560 x 1440
S006;53;Vrouwelijk;Links;4;88;right;yes;750;rightarrow;938;false;focus;yes;1008406;Chrome;109.0;macOS;10.15.7;undefined;undefined;2560 x 1440;2560 x 1440
S006;53;Vrouwelijk;Links;4;89;left;no;700;leftarrow;879;true;focus;yes;1010048;Chrome;109.0;macOS;10.15.7;undefined;undefined;2560 x 1440;2560 x 1440
S006;53;Vrouwelijk;Links;4;90;left;no;700;leftarrow;1172;true;focus;yes;1011983;Chrome;109.0;macOS;10.15.7;undefined;undefined;2560 x 1440;2560 x 1440
S006;53;Vrouwelijk;Links;4;91;left;no;700;leftarrow;1184;true;focus;yes;1013930;Chrome;109.0;macOS;10.15.7;undefined;undefined;2560 x 1440;2560 x 1440
S006;53;Vrouwelijk;Links;4;92;right;no;700;undefined;null;false;focus;yes;1015942;Chrome;109.0;macOS;10.15.7;undefined;undefined;2560 x 1440;2560 x 1440
S006;53;Vrouwelijk;Links;4;93;right;yes;700;rightarrow;914;false;focus;yes;1017620;Chrome;109.0;macOS;10.15.7;undefined;undefined;2560 x 1440;2560 x 1440
S006;53;Vrouwelijk;Links;4;94;left;yes;650;leftarrow;663;false;focus;yes;1019049;Chrome;109.0;macOS;10.15.7;undefined;undefined;2560 x 1440;2560 x 1440
S006;53;Vrouwelijk;Links;4;95;right;no;600;rightarrow;1062;true;focus;yes;1020871;Chrome;109.0;macOS;10.15.7;undefined;undefined;2560 x 1440;2560 x 1440
S006;53;Vrouwelijk;Links;4;96;right;no;600;rightarrow;881;true;focus;yes;1022514;Chrome;109.0;macOS;10.15.7;undefined;undefined;2560 x 1440;2560 x 1440
S006;53;Vrouwelijk;Links;4;97;right;no;600;rightarrow;1220;true;focus;yes;1024494;Chrome;109.0;macOS;10.15.7;undefined;undefined;2560 x 1440;2560 x 1440
S006;53;Vrouwelijk;Links;4;98;left;yes;600;undefined;null;true;focus;yes;1026513;Chrome;109.0;macOS;10.15.7;undefined;undefined;2560 x 1440;2560 x 1440
S006;53;Vrouwelijk;Links;4;99;right;no;650;rightarrow;887;true;focus;yes;1028162;Chrome;109.0;macOS;10.15.7;undefined;undefined;2560 x 1440;2560 x 1440
S006;53;Vrouwelijk;Links;4;100;right;no;650;rightarrow;827;true;focus;yes;1029748;Chrome;109.0;macOS;10.15.7;undefined;undefined;2560 x 1440;2560 x 1440
S006;53;Vrouwelijk;Links;4;101;left;no;650;leftarrow;1035;true;focus;yes;1031548;Chrome;109.0;macOS;10.15.7;undefined;undefined;2560 x 1440;2560 x 1440
S006;53;Vrouwelijk;Links;4;102;left;no;650;leftarrow;844;true;focus;yes;1033157;Chrome;109.0;macOS;10.15.7;undefined;undefined;2560 x 1440;2560 x 1440
S006;53;Vrouwelijk;Links;4;103;left;no;650;leftarrow;1064;true;focus;yes;1034979;Chrome;109.0;macOS;10.15.7;undefined;undefined;2560 x 1440;2560 x 1440
S006;53;Vrouwelijk;Links;4;104;right;yes;650;undefined;null;true;focus;yes;1036990;Chrome;109.0;macOS;10.15.7;undefined;undefined;2560 x 1440;2560 x 1440
S006;53;Vrouwelijk;Links;4;105;right;no;700;rightarrow;962;true;focus;yes;1038714;Chrome;109.0;macOS;10.15.7;undefined;undefined;2560 x 1440;2560 x 1440
S006;53;Vrouwelijk;Links;4;106;left;no;700;leftarrow;785;true;focus;yes;1040267;Chrome;109.0;macOS;10.15.7;undefined;undefined;2560 x 1440;2560 x 1440
S006;53;Vrouwelijk;Links;4;107;left;no;700;leftarrow;787;true;focus;yes;1041819;Chrome;109.0;macOS;10.15.7;undefined;undefined;2560 x 1440;2560 x 1440
S006;53;Vrouwelijk;Links;4;108;right;no;700;rightarrow;811;true;focus;yes;1043395;Chrome;109.0;macOS;10.15.7;undefined;undefined;2560 x 1440;2560 x 1440
S006;53;Vrouwelijk;Links;4;109;left;yes;700;leftarrow;909;false;focus;yes;1045071;Chrome;109.0;macOS;10.15.7;undefined;undefined;2560 x 1440;2560 x 1440
S006;53;Vrouwelijk;Links;4;110;left;no;650;leftarrow;869;true;focus;yes;1046702;Chrome;109.0;macOS;10.15.7;undefined;undefined;2560 x 1440;2560 x 1440
S006;53;Vrouwelijk;Links;4;111;right;no;650;rightarrow;1060;true;focus;yes;1048525;Chrome;109.0;macOS;10.15.7;undefined;undefined;2560 x 1440;2560 x 1440
S006;53;Vrouwelijk;Links;4;112;right;yes;650;rightarrow;868;false;focus;yes;1050156;Chrome;109.0;macOS;10.15.7;undefined;undefined;2560 x 1440;2560 x 1440
S006;53;Vrouwelijk;Links;4;113;left;yes;600;undefined;null;true;focus;yes;1052173;Chrome;109.0;macOS;10.15.7;undefined;undefined;2560 x 1440;2560 x 1440
S006;53;Vrouwelijk;Links;4;114;right;no;650;rightarrow;1023;true;focus;yes;1053959;Chrome;109.0;macOS;10.15.7;undefined;undefined;2560 x 1440;2560 x 1440
S006;53;Vrouwelijk;Links;4;115;left;no;650;leftarrow;1138;true;focus;yes;1055860;Chrome;109.0;macOS;10.15.7;undefined;undefined;2560 x 1440;2560 x 1440
S006;53;Vrouwelijk;Links;4;116;right;no;650;rightarrow;1255;true;focus;yes;1057874;Chrome;109.0;macOS;10.15.7;undefined;undefined;2560 x 1440;2560 x 1440
S006;53;Vrouwelijk;Links;4;117;left;no;650;undefined;null;false;focus;yes;1059893;Chrome;109.0;macOS;10.15.7;undefined;undefined;2560 x 1440;2560 x 1440
S006;53;Vrouwelijk;Links;4;118;right;no;650;rightarrow;1212;true;focus;yes;1061868;Chrome;109.0;macOS;10.15.7;undefined;undefined;2560 x 1440;2560 x 1440
S006;53;Vrouwelijk;Links;4;119;left;no;650;undefined;null;false;focus;yes;1063885;Chrome;109.0;macOS;10.15.7;undefined;undefined;2560 x 1440;2560 x 1440
S006;53;Vrouwelijk;Links;4;120;right;yes;650;undefined;null;true;focus;yes;1065901;Chrome;109.0;macOS;10.15.7;undefined;undefined;2560 x 1440;2560 x 1440
S006;53;Vrouwelijk;Links;4;121;right;no;700;rightarrow;762;true;focus;yes;1067426;Chrome;109.0;macOS;10.15.7;undefined;undefined;2560 x 1440;2560 x 1440
S006;53;Vrouwelijk;Links;4;122;left;no;700;leftarrow;910;true;focus;yes;1069102;Chrome;109.0;macOS;10.15.7;undefined;undefined;2560 x 1440;2560 x 1440
S006;53;Vrouwelijk;Links;4;123;right;no;700;rightarrow;1117;true;focus;yes;1070981;Chrome;109.0;macOS;10.15.7;undefined;undefined;2560 x 1440;2560 x 1440
S006;53;Vrouwelijk;Links;4;124;left;no;700;leftarrow;1141;true;focus;yes;1073141;Chrome;109.0;macOS;10.15.7;undefined;undefined;2560 x 1440;2560 x 1440
S006;53;Vrouwelijk;Links;4;125;right;no;700;rightarrow;733;true;focus;yes;1074638;Chrome;109.0;macOS;10.15.7;undefined;undefined;2560 x 1440;2560 x 1440
S006;53;Vrouwelijk;Links;4;126;left;yes;700;leftarrow;700;false;focus;yes;1076100;Chrome;109.0;macOS;10.15.7;undefined;undefined;2560 x 1440;2560 x 1440
S006;53;Vrouwelijk;Links;4;127;right;yes;650;undefined;null;true;focus;yes;1078117;Chrome;109.0;macOS;10.15.7;undefined;undefined;2560 x 1440;2560 x 1440
S006;53;Vrouwelijk;Links;4;128;left;no;700;leftarrow;730;true;focus;yes;1079610;Chrome;109.0;macOS;10.15.7;undefined;undefined;2560 x 1440;2560 x 1440
S006;53;Vrouwelijk;Links;5;1;right;no;700;rightarrow;957;true;focus;yes;1099407;Chrome;109.0;macOS;10.15.7;undefined;undefined;2560 x 1440;2560 x 1440
S006;53;Vrouwelijk;Links;5;2;right;no;700;rightarrow;734;true;focus;yes;1100901;Chrome;109.0;macOS;10.15.7;undefined;undefined;2560 x 1440;2560 x 1440
S006;53;Vrouwelijk;Links;5;3;left;no;700;leftarrow;622;true;focus;yes;1102284;Chrome;109.0;macOS;10.15.7;undefined;undefined;2560 x 1440;2560 x 1440
S006;53;Vrouwelijk;Links;5;4;right;no;700;rightarrow;598;true;focus;yes;1103643;Chrome;109.0;macOS;10.15.7;undefined;undefined;2560 x 1440;2560 x 1440
S006;53;Vrouwelijk;Links;5;5;left;no;700;leftarrow;646;true;focus;yes;1105048;Chrome;109.0;macOS;10.15.7;undefined;undefined;2560 x 1440;2560 x 1440
S006;53;Vrouwelijk;Links;5;6;left;yes;700;leftarrow;959;false;focus;yes;1106768;Chrome;109.0;macOS;10.15.7;undefined;undefined;2560 x 1440;2560 x 1440
S006;53;Vrouwelijk;Links;5;7;right;yes;650;rightarrow;927;false;focus;yes;1108454;Chrome;109.0;macOS;10.15.7;undefined;undefined;2560 x 1440;2560 x 1440
S006;53;Vrouwelijk;Links;5;8;left;no;600;leftarrow;1106;true;focus;yes;1110320;Chrome;109.0;macOS;10.15.7;undefined;undefined;2560 x 1440;2560 x 1440
S006;53;Vrouwelijk;Links;5;9;left;no;600;leftarrow;1204;true;focus;yes;1112288;Chrome;109.0;macOS;10.15.7;undefined;undefined;2560 x 1440;2560 x 1440
S006;53;Vrouwelijk;Links;5;10;right;no;600;rightarrow;911;true;focus;yes;1113963;Chrome;109.0;macOS;10.15.7;undefined;undefined;2560 x 1440;2560 x 1440
S006;53;Vrouwelijk;Links;5;11;right;yes;600;undefined;null;true;focus;yes;1115974;Chrome;109.0;macOS;10.15.7;undefined;undefined;2560 x 1440;2560 x 1440
S006;53;Vrouwelijk;Links;5;12;right;no;650;rightarrow;791;true;focus;yes;1117528;Chrome;109.0;macOS;10.15.7;undefined;undefined;2560 x 1440;2560 x 1440
S006;53;Vrouwelijk;Links;5;13;right;no;650;rightarrow;1059;true;focus;yes;1119349;Chrome;109.0;macOS;10.15.7;undefined;undefined;2560 x 1440;2560 x 1440
S006;53;Vrouwelijk;Links;5;14;left;yes;650;undefined;null;true;focus;yes;1121365;Chrome;109.0;macOS;10.15.7;undefined;undefined;2560 x 1440;2560 x 1440
S006;53;Vrouwelijk;Links;5;15;left;no;700;leftarrow;967;true;focus;yes;1123094;Chrome;109.0;macOS;10.15.7;undefined;undefined;2560 x 1440;2560 x 1440
S006;53;Vrouwelijk;Links;5;16;left;no;700;leftarrow;1094;true;focus;yes;1124950;Chrome;109.0;macOS;10.15.7;undefined;undefined;2560 x 1440;2560 x 1440
S006;53;Vrouwelijk;Links;5;17;right;no;700;rightarrow;1108;true;focus;yes;1126817;Chrome;109.0;macOS;10.15.7;undefined;undefined;2560 x 1440;2560 x 1440
S006;53;Vrouwelijk;Links;5;18;left;no;700;undefined;null;false;focus;yes;1128833;Chrome;109.0;macOS;10.15.7;undefined;undefined;2560 x 1440;2560 x 1440
S006;53;Vrouwelijk;Links;5;19;right;yes;700;undefined;null;true;focus;yes;1130849;Chrome;109.0;macOS;10.15.7;undefined;undefined;2560 x 1440;2560 x 1440
S006;53;Vrouwelijk;Links;5;20;left;no;750;leftarrow;1020;true;focus;yes;1132633;Chrome;109.0;macOS;10.15.7;undefined;undefined;2560 x 1440;2560 x 1440
S006;53;Vrouwelijk;Links;5;21;right;no;750;rightarrow;914;true;focus;yes;1134309;Chrome;109.0;macOS;10.15.7;undefined;undefined;2560 x 1440;2560 x 1440
S006;53;Vrouwelijk;Links;5;22;left;yes;750;leftarrow;998;false;focus;yes;1136074;Chrome;109.0;macOS;10.15.7;undefined;undefined;2560 x 1440;2560 x 1440
S006;53;Vrouwelijk;Links;5;23;left;no;700;leftarrow;1074;true;focus;yes;1137908;Chrome;109.0;macOS;10.15.7;undefined;undefined;2560 x 1440;2560 x 1440
S006;53;Vrouwelijk;Links;5;24;right;no;700;rightarrow;1119;true;focus;yes;1139787;Chrome;109.0;macOS;10.15.7;undefined;undefined;2560 x 1440;2560 x 1440
S006;53;Vrouwelijk;Links;5;25;right;no;700;rightarrow;1209;true;focus;yes;1141755;Chrome;109.0;macOS;10.15.7;undefined;undefined;2560 x 1440;2560 x 1440
S006;53;Vrouwelijk;Links;5;26;left;no;700;leftarrow;1111;true;focus;yes;1143634;Chrome;109.0;macOS;10.15.7;undefined;undefined;2560 x 1440;2560 x 1440
S006;53;Vrouwelijk;Links;5;27;left;no;700;leftarrow;950;true;focus;yes;1145344;Chrome;109.0;macOS;10.15.7;undefined;undefined;2560 x 1440;2560 x 1440
S006;53;Vrouwelijk;Links;5;28;left;yes;700;undefined;null;true;focus;yes;1147358;Chrome;109.0;macOS;10.15.7;undefined;undefined;2560 x 1440;2560 x 1440
S006;53;Vrouwelijk;Links;5;29;right;no;750;rightarrow;1081;true;focus;yes;1149202;Chrome;109.0;macOS;10.15.7;undefined;undefined;2560 x 1440;2560 x 1440
S006;53;Vrouwelijk;Links;5;30;right;no;750;rightarrow;1145;true;focus;yes;1151115;Chrome;109.0;macOS;10.15.7;undefined;undefined;2560 x 1440;2560 x 1440
S006;53;Vrouwelijk;Links;5;31;right;yes;750;rightarrow;-75;false;focus;yes;1151801;Chrome;109.0;macOS;10.15.7;undefined;undefined;2560 x 1440;2560 x 1440
S006;53;Vrouwelijk;Links;5;32;left;no;700;leftarrow;916;true;focus;yes;1153477;Chrome;109.0;macOS;10.15.7;undefined;undefined;2560 x 1440;2560 x 1440
S006;53;Vrouwelijk;Links;5;33;right;no;700;rightarrow;962;true;focus;yes;1155198;Chrome;109.0;macOS;10.15.7;undefined;undefined;2560 x 1440;2560 x 1440
S006;53;Vrouwelijk;Links;5;34;right;no;700;rightarrow;1088;true;focus;yes;1157043;Chrome;109.0;macOS;10.15.7;undefined;undefined;2560 x 1440;2560 x 1440
S006;53;Vrouwelijk;Links;5;35;left;yes;700;undefined;null;true;focus;yes;1159061;Chrome;109.0;macOS;10.15.7;undefined;undefined;2560 x 1440;2560 x 1440
S006;53;Vrouwelijk;Links;5;36;left;no;750;leftarrow;943;true;focus;yes;1160767;Chrome;109.0;macOS;10.15.7;undefined;undefined;2560 x 1440;2560 x 1440
S006;53;Vrouwelijk;Links;5;37;left;no;750;leftarrow;1152;true;focus;yes;1162680;Chrome;109.0;macOS;10.15.7;undefined;undefined;2560 x 1440;2560 x 1440
S006;53;Vrouwelijk;Links;5;38;right;yes;750;undefined;null;true;focus;yes;1164696;Chrome;109.0;macOS;10.15.7;undefined;undefined;2560 x 1440;2560 x 1440
S006;53;Vrouwelijk;Links;5;39;right;no;800;rightarrow;779;true;focus;yes;1166235;Chrome;109.0;macOS;10.15.7;undefined;undefined;2560 x 1440;2560 x 1440
S006;53;Vrouwelijk;Links;5;40;left;no;800;leftarrow;788;true;focus;yes;1167787;Chrome;109.0;macOS;10.15.7;undefined;undefined;2560 x 1440;2560 x 1440
S006;53;Vrouwelijk;Links;5;41;right;no;800;rightarrow;1073;true;focus;yes;1169621;Chrome;109.0;macOS;10.15.7;undefined;undefined;2560 x 1440;2560 x 1440
S006;53;Vrouwelijk;Links;5;42;left;no;800;leftarrow;1004;true;focus;yes;1171387;Chrome;109.0;macOS;10.15.7;undefined;undefined;2560 x 1440;2560 x 1440
S006;53;Vrouwelijk;Links;5;43;right;yes;800;undefined;null;true;focus;yes;1173404;Chrome;109.0;macOS;10.15.7;undefined;undefined;2560 x 1440;2560 x 1440
S006;53;Vrouwelijk;Links;5;44;right;no;850;rightarrow;727;true;focus;yes;1174897;Chrome;109.0;macOS;10.15.7;undefined;undefined;2560 x 1440;2560 x 1440
S006;53;Vrouwelijk;Links;5;45;left;yes;850;leftarrow;931;false;focus;yes;1176596;Chrome;109.0;macOS;10.15.7;undefined;undefined;2560 x 1440;2560 x 1440
S006;53;Vrouwelijk;Links;5;46;left;no;800;leftarrow;738;true;focus;yes;1178092;Chrome;109.0;macOS;10.15.7;undefined;undefined;2560 x 1440;2560 x 1440
S006;53;Vrouwelijk;Links;5;47;right;no;800;rightarrow;1162;true;focus;yes;1180016;Chrome;109.0;macOS;10.15.7;undefined;undefined;2560 x 1440;2560 x 1440
S006;53;Vrouwelijk;Links;5;48;left;no;800;undefined;null;false;focus;yes;1182028;Chrome;109.0;macOS;10.15.7;undefined;undefined;2560 x 1440;2560 x 1440
S006;53;Vrouwelijk;Links;5;49;left;no;800;leftarrow;1186;true;focus;yes;1183976;Chrome;109.0;macOS;10.15.7;undefined;undefined;2560 x 1440;2560 x 1440
S006;53;Vrouwelijk;Links;5;50;left;yes;800;undefined;null;true;focus;yes;1185999;Chrome;109.0;macOS;10.15.7;undefined;undefined;2560 x 1440;2560 x 1440
S006;53;Vrouwelijk;Links;5;51;right;no;850;rightarrow;705;true;focus;yes;1187464;Chrome;109.0;macOS;10.15.7;undefined;undefined;2560 x 1440;2560 x 1440
S006;53;Vrouwelijk;Links;5;52;left;no;850;leftarrow;1145;true;focus;yes;1189376;Chrome;109.0;macOS;10.15.7;undefined;undefined;2560 x 1440;2560 x 1440
S006;53;Vrouwelijk;Links;5;53;right;yes;850;rightarrow;1118;false;focus;yes;1191255;Chrome;109.0;macOS;10.15.7;undefined;undefined;2560 x 1440;2560 x 1440
S006;53;Vrouwelijk;Links;5;54;left;no;800;leftarrow;984;true;focus;yes;1192999;Chrome;109.0;macOS;10.15.7;undefined;undefined;2560 x 1440;2560 x 1440
S006;53;Vrouwelijk;Links;5;55;right;no;800;undefined;null;false;focus;yes;1195011;Chrome;109.0;macOS;10.15.7;undefined;undefined;2560 x 1440;2560 x 1440
S006;53;Vrouwelijk;Links;5;56;right;no;800;undefined;null;false;focus;yes;1197027;Chrome;109.0;macOS;10.15.7;undefined;undefined;2560 x 1440;2560 x 1440
S006;53;Vrouwelijk;Links;5;57;right;no;800;undefined;null;false;focus;yes;1199043;Chrome;109.0;macOS;10.15.7;undefined;undefined;2560 x 1440;2560 x 1440
S006;53;Vrouwelijk;Links;5;58;left;yes;800;undefined;null;true;focus;yes;1201059;Chrome;109.0;macOS;10.15.7;undefined;undefined;2560 x 1440;2560 x 1440
S006;53;Vrouwelijk;Links;5;59;right;no;850;rightarrow;817;true;focus;yes;1202640;Chrome;109.0;macOS;10.15.7;undefined;undefined;2560 x 1440;2560 x 1440
S006;53;Vrouwelijk;Links;5;60;right;no;850;rightarrow;1159;true;focus;yes;1204564;Chrome;109.0;macOS;10.15.7;undefined;undefined;2560 x 1440;2560 x 1440
S006;53;Vrouwelijk;Links;5;61;left;no;850;leftarrow;1095;true;focus;yes;1206420;Chrome;109.0;macOS;10.15.7;undefined;undefined;2560 x 1440;2560 x 1440
S006;53;Vrouwelijk;Links;5;62;right;yes;850;undefined;null;true;focus;yes;1208434;Chrome;109.0;macOS;10.15.7;undefined;undefined;2560 x 1440;2560 x 1440
S006;53;Vrouwelijk;Links;5;63;left;no;900;leftarrow;888;true;focus;yes;1210088;Chrome;109.0;macOS;10.15.7;undefined;undefined;2560 x 1440;2560 x 1440
S006;53;Vrouwelijk;Links;5;64;left;no;900;leftarrow;1046;true;focus;yes;1211899;Chrome;109.0;macOS;10.15.7;undefined;undefined;2560 x 1440;2560 x 1440
S006;53;Vrouwelijk;Links;5;65;right;yes;900;rightarrow;1184;false;focus;yes;1213845;Chrome;109.0;macOS;10.15.7;undefined;undefined;2560 x 1440;2560 x 1440
S006;53;Vrouwelijk;Links;5;66;right;no;850;undefined;null;false;focus;yes;1215850;Chrome;109.0;macOS;10.15.7;undefined;undefined;2560 x 1440;2560 x 1440
S006;53;Vrouwelijk;Links;5;67;left;no;850;undefined;null;false;focus;yes;1217866;Chrome;109.0;macOS;10.15.7;undefined;undefined;2560 x 1440;2560 x 1440
S006;53;Vrouwelijk;Links;5;68;left;no;850;undefined;null;false;focus;yes;1219882;Chrome;109.0;macOS;10.15.7;undefined;undefined;2560 x 1440;2560 x 1440
S006;53;Vrouwelijk;Links;5;69;right;no;850;undefined;null;false;focus;yes;1221898;Chrome;109.0;macOS;10.15.7;undefined;undefined;2560 x 1440;2560 x 1440
S006;53;Vrouwelijk;Links;5;70;right;no;850;rightarrow;1130;true;focus;yes;1223790;Chrome;109.0;macOS;10.15.7;undefined;undefined;2560 x 1440;2560 x 1440
S006;53;Vrouwelijk;Links;5;71;left;yes;850;leftarrow;943;false;focus;yes;1225500;Chrome;109.0;macOS;10.15.7;undefined;undefined;2560 x 1440;2560 x 1440
S006;53;Vrouwelijk;Links;5;72;left;no;800;leftarrow;1073;true;focus;yes;1227334;Chrome;109.0;macOS;10.15.7;undefined;undefined;2560 x 1440;2560 x 1440
S006;53;Vrouwelijk;Links;5;73;right;no;800;undefined;null;false;focus;yes;1229353;Chrome;109.0;macOS;10.15.7;undefined;undefined;2560 x 1440;2560 x 1440
S006;53;Vrouwelijk;Links;5;74;left;no;800;leftarrow;1186;true;focus;yes;1231305;Chrome;109.0;macOS;10.15.7;undefined;undefined;2560 x 1440;2560 x 1440
S006;53;Vrouwelijk;Links;5;75;left;no;800;undefined;null;false;focus;yes;1233321;Chrome;109.0;macOS;10.15.7;undefined;undefined;2560 x 1440;2560 x 1440
S006;53;Vrouwelijk;Links;5;76;right;yes;800;undefined;null;true;focus;yes;1235337;Chrome;109.0;macOS;10.15.7;undefined;undefined;2560 x 1440;2560 x 1440
S006;53;Vrouwelijk;Links;5;77;left;no;850;leftarrow;954;true;focus;yes;1237054;Chrome;109.0;macOS;10.15.7;undefined;undefined;2560 x 1440;2560 x 1440
S006;53;Vrouwelijk;Links;5;78;right;no;850;rightarrow;1058;true;focus;yes;1238877;Chrome;109.0;macOS;10.15.7;undefined;undefined;2560 x 1440;2560 x 1440
S006;53;Vrouwelijk;Links;5;79;left;yes;850;undefined;null;true;focus;yes;1240896;Chrome;109.0;macOS;10.15.7;undefined;undefined;2560 x 1440;2560 x 1440
S006;53;Vrouwelijk;Links;5;80;right;no;900;rightarrow;815;true;focus;yes;1242477;Chrome;109.0;macOS;10.15.7;undefined;undefined;2560 x 1440;2560 x 1440
S006;53;Vrouwelijk;Links;5;81;left;yes;900;leftarrow;1054;false;focus;yes;1244300;Chrome;109.0;macOS;10.15.7;undefined;undefined;2560 x 1440;2560 x 1440
S006;53;Vrouwelijk;Links;5;82;right;no;850;rightarrow;1130;true;focus;yes;1246189;Chrome;109.0;macOS;10.15.7;undefined;undefined;2560 x 1440;2560 x 1440
S006;53;Vrouwelijk;Links;5;83;right;no;850;rightarrow;1212;true;focus;yes;1248170;Chrome;109.0;macOS;10.15.7;undefined;undefined;2560 x 1440;2560 x 1440
S006;53;Vrouwelijk;Links;5;84;right;yes;850;undefined;null;true;focus;yes;1250185;Chrome;109.0;macOS;10.15.7;undefined;undefined;2560 x 1440;2560 x 1440
S006;53;Vrouwelijk;Links;5;85;left;no;900;leftarrow;1155;true;focus;yes;1252107;Chrome;109.0;macOS;10.15.7;undefined;undefined;2560 x 1440;2560 x 1440
S006;53;Vrouwelijk;Links;5;86;right;no;900;rightarrow;1153;true;focus;yes;1254020;Chrome;109.0;macOS;10.15.7;undefined;undefined;2560 x 1440;2560 x 1440
S006;53;Vrouwelijk;Links;5;87;left;no;900;leftarrow;1243;true;focus;yes;1256022;Chrome;109.0;macOS;10.15.7;undefined;undefined;2560 x 1440;2560 x 1440
S006;53;Vrouwelijk;Links;5;88;left;no;900;leftarrow;1254;true;focus;yes;1258036;Chrome;109.0;macOS;10.15.7;undefined;undefined;2560 x 1440;2560 x 1440
S006;53;Vrouwelijk;Links;5;89;right;yes;900;rightarrow;1100;false;focus;yes;1259903;Chrome;109.0;macOS;10.15.7;undefined;undefined;2560 x 1440;2560 x 1440
S006;53;Vrouwelijk;Links;5;90;left;no;850;leftarrow;1227;true;focus;yes;1261895;Chrome;109.0;macOS;10.15.7;undefined;undefined;2560 x 1440;2560 x 1440
S006;53;Vrouwelijk;Links;5;91;left;no;850;undefined;null;false;focus;yes;1263911;Chrome;109.0;macOS;10.15.7;undefined;undefined;2560 x 1440;2560 x 1440
S006;53;Vrouwelijk;Links;5;92;right;no;850;rightarrow;911;true;focus;yes;1265585;Chrome;109.0;macOS;10.15.7;undefined;undefined;2560 x 1440;2560 x 1440
S006;53;Vrouwelijk;Links;5;93;right;no;850;rightarrow;1042;true;focus;yes;1267385;Chrome;109.0;macOS;10.15.7;undefined;undefined;2560 x 1440;2560 x 1440
S006;53;Vrouwelijk;Links;5;94;left;yes;850;undefined;null;true;focus;yes;1269403;Chrome;109.0;macOS;10.15.7;undefined;undefined;2560 x 1440;2560 x 1440
S006;53;Vrouwelijk;Links;5;95;left;no;900;leftarrow;954;true;focus;yes;1271120;Chrome;109.0;macOS;10.15.7;undefined;undefined;2560 x 1440;2560 x 1440
S006;53;Vrouwelijk;Links;5;96;right;no;900;rightarrow;959;true;focus;yes;1272841;Chrome;109.0;macOS;10.15.7;undefined;undefined;2560 x 1440;2560 x 1440
S006;53;Vrouwelijk;Links;5;97;right;no;900;rightarrow;927;true;focus;yes;1274529;Chrome;109.0;macOS;10.15.7;undefined;undefined;2560 x 1440;2560 x 1440
S006;53;Vrouwelijk;Links;5;98;right;yes;900;rightarrow;880;false;focus;yes;1276171;Chrome;109.0;macOS;10.15.7;undefined;undefined;2560 x 1440;2560 x 1440
S006;53;Vrouwelijk;Links;5;99;left;yes;850;undefined;null;true;focus;yes;1278190;Chrome;109.0;macOS;10.15.7;undefined;undefined;2560 x 1440;2560 x 1440
S006;53;Vrouwelijk;Links;5;100;right;no;900;rightarrow;807;true;focus;yes;1279761;Chrome;109.0;macOS;10.15.7;undefined;undefined;2560 x 1440;2560 x 1440
S006;53;Vrouwelijk;Links;5;101;left;no;900;leftarrow;847;true;focus;yes;1281369;Chrome;109.0;macOS;10.15.7;undefined;undefined;2560 x 1440;2560 x 1440
S006;53;Vrouwelijk;Links;5;102;left;no;900;leftarrow;824;true;focus;yes;1282955;Chrome;109.0;macOS;10.15.7;undefined;undefined;2560 x 1440;2560 x 1440
S006;53;Vrouwelijk;Links;5;103;right;no;900;rightarrow;1090;true;focus;yes;1284812;Chrome;109.0;macOS;10.15.7;undefined;undefined;2560 x 1440;2560 x 1440
S006;53;Vrouwelijk;Links;5;104;left;no;900;undefined;null;false;focus;yes;1286830;Chrome;109.0;macOS;10.15.7;undefined;undefined;2560 x 1440;2560 x 1440
S006;53;Vrouwelijk;Links;5;105;right;no;900;rightarrow;1044;true;focus;yes;1288637;Chrome;109.0;macOS;10.15.7;undefined;undefined;2560 x 1440;2560 x 1440
S006;53;Vrouwelijk;Links;5;106;left;no;900;leftarrow;934;true;focus;yes;1290335;Chrome;109.0;macOS;10.15.7;undefined;undefined;2560 x 1440;2560 x 1440
S006;53;Vrouwelijk;Links;5;107;right;yes;900;rightarrow;1173;false;focus;yes;1292270;Chrome;109.0;macOS;10.15.7;undefined;undefined;2560 x 1440;2560 x 1440
S006;53;Vrouwelijk;Links;5;108;left;yes;850;leftarrow;883;false;focus;yes;1293913;Chrome;109.0;macOS;10.15.7;undefined;undefined;2560 x 1440;2560 x 1440
S006;53;Vrouwelijk;Links;5;109;left;no;800;leftarrow;842;true;focus;yes;1295510;Chrome;109.0;macOS;10.15.7;undefined;undefined;2560 x 1440;2560 x 1440
S006;53;Vrouwelijk;Links;5;110;left;no;800;leftarrow;1027;true;focus;yes;1297299;Chrome;109.0;macOS;10.15.7;undefined;undefined;2560 x 1440;2560 x 1440
S006;53;Vrouwelijk;Links;5;111;right;no;800;rightarrow;945;true;focus;yes;1299009;Chrome;109.0;macOS;10.15.7;undefined;undefined;2560 x 1440;2560 x 1440
S006;53;Vrouwelijk;Links;5;112;right;no;800;rightarrow;1063;true;focus;yes;1300832;Chrome;109.0;macOS;10.15.7;undefined;undefined;2560 x 1440;2560 x 1440
S006;53;Vrouwelijk;Links;5;113;right;no;800;rightarrow;1146;true;focus;yes;1302733;Chrome;109.0;macOS;10.15.7;undefined;undefined;2560 x 1440;2560 x 1440
S006;53;Vrouwelijk;Links;5;114;right;yes;800;rightarrow;947;false;focus;yes;1304443;Chrome;109.0;macOS;10.15.7;undefined;undefined;2560 x 1440;2560 x 1440
S006;53;Vrouwelijk;Links;5;115;left;yes;750;undefined;null;true;focus;yes;1306461;Chrome;109.0;macOS;10.15.7;undefined;undefined;2560 x 1440;2560 x 1440
S006;53;Vrouwelijk;Links;5;116;left;no;800;leftarrow;996;true;focus;yes;1308223;Chrome;109.0;macOS;10.15.7;undefined;undefined;2560 x 1440;2560 x 1440
S006;53;Vrouwelijk;Links;5;117;left;no;800;leftarrow;694;true;focus;yes;1309674;Chrome;109.0;macOS;10.15.7;undefined;undefined;2560 x 1440;2560 x 1440
S006;53;Vrouwelijk;Links;5;118;left;no;800;leftarrow;1124;true;focus;yes;1311565;Chrome;109.0;macOS;10.15.7;undefined;undefined;2560 x 1440;2560 x 1440
S006;53;Vrouwelijk;Links;5;119;right;no;800;rightarrow;1199;true;focus;yes;1313522;Chrome;109.0;macOS;10.15.7;undefined;undefined;2560 x 1440;2560 x 1440
S006;53;Vrouwelijk;Links;5;120;right;no;800;rightarrow;881;true;focus;yes;1315165;Chrome;109.0;macOS;10.15.7;undefined;undefined;2560 x 1440;2560 x 1440
S006;53;Vrouwelijk;Links;5;121;right;yes;800;undefined;null;true;focus;yes;1317180;Chrome;109.0;macOS;10.15.7;undefined;undefined;2560 x 1440;2560 x 1440
S006;53;Vrouwelijk;Links;5;122;right;no;850;rightarrow;1024;true;focus;yes;1318967;Chrome;109.0;macOS;10.15.7;undefined;undefined;2560 x 1440;2560 x 1440
S006;53;Vrouwelijk;Links;5;123;left;yes;850;leftarrow;1119;false;focus;yes;1320846;Chrome;109.0;macOS;10.15.7;undefined;undefined;2560 x 1440;2560 x 1440
S006;53;Vrouwelijk;Links;5;124;left;no;800;leftarrow;836;true;focus;yes;1322443;Chrome;109.0;macOS;10.15.7;undefined;undefined;2560 x 1440;2560 x 1440
S006;53;Vrouwelijk;Links;5;125;left;no;800;leftarrow;1025;true;focus;yes;1324232;Chrome;109.0;macOS;10.15.7;undefined;undefined;2560 x 1440;2560 x 1440
S006;53;Vrouwelijk;Links;5;126;left;no;800;leftarrow;1208;true;focus;yes;1326201;Chrome;109.0;macOS;10.15.7;undefined;undefined;2560 x 1440;2560 x 1440
S006;53;Vrouwelijk;Links;5;127;right;no;800;rightarrow;1045;true;focus;yes;1328012;Chrome;109.0;macOS;10.15.7;undefined;undefined;2560 x 1440;2560 x 1440
S006;53;Vrouwelijk;Links;5;128;right;no;800;rightarrow;1127;true;focus;yes;1329902;Chrome;109.0;macOS;10.15.7;undefined;undefined;2560 x 1440;2560 x 1440
S006;53;Vrouwelijk;Links;6;1;left;no;800;leftarrow;1155;true;focus;yes;1349961;Chrome;109.0;macOS;10.15.7;undefined;undefined;2560 x 1440;2560 x 1440
S006;53;Vrouwelijk;Links;6;2;right;yes;800;undefined;null;true;focus;yes;1351980;Chrome;109.0;macOS;10.15.7;undefined;undefined;2560 x 1440;2560 x 1440
S006;53;Vrouwelijk;Links;6;3;right;no;850;rightarrow;977;true;focus;yes;1353719;Chrome;109.0;macOS;10.15.7;undefined;undefined;2560 x 1440;2560 x 1440
S006;53;Vrouwelijk;Links;6;4;left;yes;850;leftarrow;1112;false;focus;yes;1355598;Chrome;109.0;macOS;10.15.7;undefined;undefined;2560 x 1440;2560 x 1440
S006;53;Vrouwelijk;Links;6;5;right;no;800;rightarrow;1100;true;focus;yes;1357455;Chrome;109.0;macOS;10.15.7;undefined;undefined;2560 x 1440;2560 x 1440
S006;53;Vrouwelijk;Links;6;6;left;no;800;leftarrow;1026;true;focus;yes;1359243;Chrome;109.0;macOS;10.15.7;undefined;undefined;2560 x 1440;2560 x 1440
S006;53;Vrouwelijk;Links;6;7;right;no;800;undefined;null;false;focus;yes;1361258;Chrome;109.0;macOS;10.15.7;undefined;undefined;2560 x 1440;2560 x 1440
