participantID,age,gender,handedness,block_i,trial_i,stim,signal,SSD,response,rt,correct,focus,Fullscreen,time_elapsed,browser_name,browser_version,os_name,os_version,tablet,mobile,screen_resolution,window_resolution
S013,24,Vrouwelijk,Rechts,0,1,left,yes,200,leftarrow,426,false,focus,yes,207452,Chrome,111.0,Windows,10,undefined,undefined,1536 x 864,1536 x 864
S013,24,Vrouwelijk,Rechts,0,2,left,no,150,leftarrow,377,true,focus,yes,209346,Chrome,111.0,Windows,10,undefined,undefined,1536 x 864,1536 x 864
S013,24,Vrouwelijk,Rechts,0,3,right,yes,150,rightarrow,320,false,focus,yes,211191,Chrome,111.0,Windows,10,undefined,undefined,1536 x 864,1536 x 864
S013,24,Vrouwelijk,Rechts,0,4,right,no,100,rightarrow,388,true,focus,yes,213130,Chrome,111.0,Windows,10,undefined,undefined,1536 x 864,1536 x 864
S013,24,Vrouwelijk,Rechts,0,5,right,no,100,rightarrow,320,true,focus,yes,214992,Chrome,111.0,Windows,10,undefined,undefined,1536 x 864,1536 x 864
S013,24,Vrouwelijk,Rechts,0,6,left,no,100,leftarrow,299,true,focus,yes,216832,Chrome,111.0,Windows,10,undefined,undefined,1536 x 864,1536 x 864
S013,24,Vrouwelijk,Rechts,0,7,left,no,100,rightarrow,253,false,focus,yes,218610,Chrome,111.0,Windows,10,undefined,undefined,1536 x 864,1536 x 864
S013,24,Vrouwelijk,Rechts,0,8,right,no,100,rightarrow,303,true,focus,yes,220440,Chrome,111.0,Windows,10,undefined,undefined,1536 x 864,1536 x 864
S013,24,Vrouwelijk,Rechts,1,1,left,no,100,leftarrow,350,true,focus,yes,240713,Chrome,111.0,Windows,10,undefined,undefined,1536 x 864,1536 x 864
S013,24,Vrouwelijk,Rechts,1,2,left,no,100,leftarrow,383,true,focus,yes,241875,Chrome,111.0,Windows,10,undefined,undefined,1536 x 864,1536 x 864
S013,24,Vrouwelijk,Rechts,1,3,right,no,100,rightarrow,320,true,focus,yes,242969,Chrome,111.0,Windows,10,undefined,undefined,1536 x 864,1536 x 864
S013,24,Vrouwelijk,Rechts,1,4,left,yes,100,leftarrow,251,false,focus,yes,244000,Chrome,111.0,Windows,10,undefined,undefined,1536 x 864,1536 x 864
S013,24,Vrouwelijk,Rechts,1,5,left,no,50,leftarrow,249,true,focus,yes,245035,Chrome,111.0,Windows,10,undefined,undefined,1536 x 864,1536 x 864
S013,24,Vrouwelijk,Rechts,1,6,right,no,50,leftarrow,231,false,focus,yes,246025,Chrome,111.0,Windows,10,undefined,undefined,1536 x 864,1536 x 864
S013,24,Vrouwelijk,Rechts,1,7,right,yes,50,leftarrow,236,false,focus,yes,247037,Chrome,111.0,Windows,10,undefined,undefined,1536 x 864,1536 x 864
S013,24,Vrouwelijk,Rechts,1,8,right,no,50,rightarrow,314,true,focus,yes,248117,Chrome,111.0,Windows,10,undefined,undefined,1536 x 864,1536 x 864
S013,24,Vrouwelijk,Rechts,1,9,right,no,50,rightarrow,330,true,focus,yes,249206,Chrome,111.0,Windows,10,undefined,undefined,1536 x 864,1536 x 864
S013,24,Vrouwelijk,Rechts,1,10,left,yes,50,leftarrow,236,false,focus,yes,250214,Chrome,111.0,Windows,10,undefined,undefined,1536 x 864,1536 x 864
S013,24,Vrouwelijk,Rechts,1,11,left,no,50,rightarrow,216,false,focus,yes,251213,Chrome,111.0,Windows,10,undefined,undefined,1536 x 864,1536 x 864
S013,24,Vrouwelijk,Rechts,1,12,right,yes,50,rightarrow,400,false,focus,yes,252373,Chrome,111.0,Windows,10,undefined,undefined,1536 x 864,1536 x 864
S013,24,Vrouwelijk,Rechts,1,13,left,no,50,leftarrow,222,true,focus,yes,253359,Chrome,111.0,Windows,10,undefined,undefined,1536 x 864,1536 x 864
S013,24,Vrouwelijk,Rechts,1,14,right,no,50,rightarrow,294,true,focus,yes,254437,Chrome,111.0,Windows,10,undefined,undefined,1536 x 864,1536 x 864
S013,24,Vrouwelijk,Rechts,1,15,left,no,50,leftarrow,251,true,focus,yes,255449,Chrome,111.0,Windows,10,undefined,undefined,1536 x 864,1536 x 864
S013,24,Vrouwelijk,Rechts,1,16,right,no,50,rightarrow,225,true,focus,yes,256446,Chrome,111.0,Windows,10,undefined,undefined,1536 x 864,1536 x 864
S013,24,Vrouwelijk,Rechts,1,17,right,no,50,rightarrow,388,true,focus,yes,257604,Chrome,111.0,Windows,10,undefined,undefined,1536 x 864,1536 x 864
S013,24,Vrouwelijk,Rechts,1,18,left,yes,50,leftarrow,208,false,focus,yes,258589,Chrome,111.0,Windows,10,undefined,undefined,1536 x 864,1536 x 864
S013,24,Vrouwelijk,Rechts,1,19,right,no,50,rightarrow,235,true,focus,yes,259602,Chrome,111.0,Windows,10,undefined,undefined,1536 x 864,1536 x 864
S013,24,Vrouwelijk,Rechts,1,20,right,yes,50,rightarrow,293,false,focus,yes,260671,Chrome,111.0,Windows,10,undefined,undefined,1536 x 864,1536 x 864
S013,24,Vrouwelijk,Rechts,1,21,left,no,50,leftarrow,324,true,focus,yes,261756,Chrome,111.0,Windows,10,undefined,undefined,1536 x 864,1536 x 864
S013,24,Vrouwelijk,Rechts,1,22,left,no,50,leftarrow,333,true,focus,yes,262851,Chrome,111.0,Windows,10,undefined,undefined,1536 x 864,1536 x 864
S013,24,Vrouwelijk,Rechts,1,23,left,no,50,leftarrow,538,true,focus,yes,264155,Chrome,111.0,Windows,10,undefined,undefined,1536 x 864,1536 x 864
S013,24,Vrouwelijk,Rechts,1,24,right,no,50,rightarrow,294,true,focus,yes,265229,Chrome,111.0,Windows,10,undefined,undefined,1536 x 864,1536 x 864
S013,24,Vrouwelijk,Rechts,1,25,right,no,50,rightarrow,269,true,focus,yes,266259,Chrome,111.0,Windows,10,undefined,undefined,1536 x 864,1536 x 864
S013,24,Vrouwelijk,Rechts,1,26,left,yes,50,leftarrow,238,false,focus,yes,267268,Chrome,111.0,Windows,10,undefined,undefined,1536 x 864,1536 x 864
S013,24,Vrouwelijk,Rechts,1,27,left,no,50,leftarrow,339,true,focus,yes,268374,Chrome,111.0,Windows,10,undefined,undefined,1536 x 864,1536 x 864
S013,24,Vrouwelijk,Rechts,1,28,right,yes,50,rightarrow,221,false,focus,yes,269360,Chrome,111.0,Windows,10,undefined,undefined,1536 x 864,1536 x 864
S013,24,Vrouwelijk,Rechts,1,29,right,no,50,rightarrow,362,true,focus,yes,270484,Chrome,111.0,Windows,10,undefined,undefined,1536 x 864,1536 x 864
S013,24,Vrouwelijk,Rechts,1,30,left,no,50,leftarrow,254,true,focus,yes,271512,Chrome,111.0,Windows,10,undefined,undefined,1536 x 864,1536 x 864
S013,24,Vrouwelijk,Rechts,1,31,left,no,50,rightarrow,228,false,focus,yes,272509,Chrome,111.0,Windows,10,undefined,undefined,1536 x 864,1536 x 864
S013,24,Vrouwelijk,Rechts,1,32,right,no,50,rightarrow,257,true,focus,yes,273534,Chrome,111.0,Windows,10,undefined,undefined,1536 x 864,1536 x 864
S013,24,Vrouwelijk,Rechts,1,33,left,no,50,leftarrow,356,true,focus,yes,274653,Chrome,111.0,Windows,10,undefined,undefined,1536 x 864,1536 x 864
S013,24,Vrouwelijk,Rechts,1,34,left,no,50,leftarrow,387,true,focus,yes,275816,Chrome,111.0,Windows,10,undefined,undefined,1536 x 864,1536 x 864
S013,24,Vrouwelijk,Rechts,1,35,right,no,50,rightarrow,442,true,focus,yes,277035,Chrome,111.0,Windows,10,undefined,undefined,1536 x 864,1536 x 864
S013,24,Vrouwelijk,Rechts,1,36,right,yes,50,undefined,null,true,focus,yes,279063,Chrome,111.0,Windows,10,undefined,undefined,1536 x 864,1536 x 864
S013,24,Vrouwelijk,Rechts,1,37,right,no,100,rightarrow,343,true,focus,yes,280179,Chrome,111.0,Windows,10,undefined,undefined,1536 x 864,1536 x 864
S013,24,Vrouwelijk,Rechts,1,38,left,no,100,rightarrow,311,false,focus,yes,281278,Chrome,111.0,Windows,10,undefined,undefined,1536 x 864,1536 x 864
S013,24,Vrouwelijk,Rechts,1,39,right,no,100,rightarrow,277,true,focus,yes,282344,Chrome,111.0,Windows,10,undefined,undefined,1536 x 864,1536 x 864
S013,24,Vrouwelijk,Rechts,1,40,left,yes,100,leftarrow,287,false,focus,yes,283408,Chrome,111.0,Windows,10,undefined,undefined,1536 x 864,1536 x 864
S013,24,Vrouwelijk,Rechts,1,41,right,no,50,rightarrow,301,true,focus,yes,284484,Chrome,111.0,Windows,10,undefined,undefined,1536 x 864,1536 x 864
S013,24,Vrouwelijk,Rechts,1,42,right,no,50,rightarrow,405,true,focus,yes,285671,Chrome,111.0,Windows,10,undefined,undefined,1536 x 864,1536 x 864
S013,24,Vrouwelijk,Rechts,1,43,left,no,50,leftarrow,348,true,focus,yes,286778,Chrome,111.0,Windows,10,undefined,undefined,1536 x 864,1536 x 864
S013,24,Vrouwelijk,Rechts,1,44,left,no,50,leftarrow,339,true,focus,yes,287900,Chrome,111.0,Windows,10,undefined,undefined,1536 x 864,1536 x 864
S013,24,Vrouwelijk,Rechts,1,45,right,yes,50,undefined,null,true,focus,yes,289921,Chrome,111.0,Windows,10,undefined,undefined,1536 x 864,1536 x 864
S013,24,Vrouwelijk,Rechts,1,46,left,no,100,leftarrow,299,true,focus,yes,291005,Chrome,111.0,Windows,10,undefined,undefined,1536 x 864,1536 x 864
S013,24,Vrouwelijk,Rechts,1,47,right,no,100,rightarrow,257,true,focus,yes,292035,Chrome,111.0,Windows,10,undefined,undefined,1536 x 864,1536 x 864
S013,24,Vrouwelijk,Rechts,1,48,left,yes,100,leftarrow,292,false,focus,yes,293097,Chrome,111.0,Windows,10,undefined,undefined,1536 x 864,1536 x 864
S013,24,Vrouwelijk,Rechts,1,49,left,no,50,rightarrow,226,false,focus,yes,294102,Chrome,111.0,Windows,10,undefined,undefined,1536 x 864,1536 x 864
S013,24,Vrouwelijk,Rechts,1,50,right,no,50,rightarrow,314,true,focus,yes,295195,Chrome,111.0,Windows,10,undefined,undefined,1536 x 864,1536 x 864
S013,24,Vrouwelijk,Rechts,1,51,right,yes,50,undefined,null,true,focus,yes,297242,Chrome,111.0,Windows,10,undefined,undefined,1536 x 864,1536 x 864
S013,24,Vrouwelijk,Rechts,1,52,right,no,100,rightarrow,351,true,focus,yes,298367,Chrome,111.0,Windows,10,undefined,undefined,1536 x 864,1536 x 864
S013,24,Vrouwelijk,Rechts,1,53,left,no,100,leftarrow,319,true,focus,yes,299472,Chrome,111.0,Windows,10,undefined,undefined,1536 x 864,1536 x 864
S013,24,Vrouwelijk,Rechts,1,54,right,no,100,rightarrow,325,true,focus,yes,300562,Chrome,111.0,Windows,10,undefined,undefined,1536 x 864,1536 x 864
S013,24,Vrouwelijk,Rechts,1,55,left,yes,100,leftarrow,306,false,focus,yes,301632,Chrome,111.0,Windows,10,undefined,undefined,1536 x 864,1536 x 864
S013,24,Vrouwelijk,Rechts,1,56,left,no,50,leftarrow,412,true,focus,yes,302817,Chrome,111.0,Windows,10,undefined,undefined,1536 x 864,1536 x 864
S013,24,Vrouwelijk,Rechts,1,57,left,no,50,leftarrow,402,true,focus,yes,304003,Chrome,111.0,Windows,10,undefined,undefined,1536 x 864,1536 x 864
S013,24,Vrouwelijk,Rechts,1,58,left,no,50,leftarrow,310,true,focus,yes,305071,Chrome,111.0,Windows,10,undefined,undefined,1536 x 864,1536 x 864
S013,24,Vrouwelijk,Rechts,1,59,left,yes,50,undefined,null,true,focus,yes,307118,Chrome,111.0,Windows,10,undefined,undefined,1536 x 864,1536 x 864
S013,24,Vrouwelijk,Rechts,1,60,left,no,100,leftarrow,333,true,focus,yes,308236,Chrome,111.0,Windows,10,undefined,undefined,1536 x 864,1536 x 864
S013,24,Vrouwelijk,Rechts,1,61,right,no,100,rightarrow,326,true,focus,yes,309344,Chrome,111.0,Windows,10,undefined,undefined,1536 x 864,1536 x 864
S013,24,Vrouwelijk,Rechts,1,62,right,yes,100,undefined,null,true,focus,yes,311369,Chrome,111.0,Windows,10,undefined,undefined,1536 x 864,1536 x 864
S013,24,Vrouwelijk,Rechts,1,63,right,no,150,rightarrow,313,true,focus,yes,312469,Chrome,111.0,Windows,10,undefined,undefined,1536 x 864,1536 x 864
S013,24,Vrouwelijk,Rechts,1,64,right,no,150,rightarrow,336,true,focus,yes,313591,Chrome,111.0,Windows,10,undefined,undefined,1536 x 864,1536 x 864
S013,24,Vrouwelijk,Rechts,1,65,right,no,150,rightarrow,295,true,focus,yes,314665,Chrome,111.0,Windows,10,undefined,undefined,1536 x 864,1536 x 864
S013,24,Vrouwelijk,Rechts,1,66,right,no,150,rightarrow,334,true,focus,yes,315772,Chrome,111.0,Windows,10,undefined,undefined,1536 x 864,1536 x 864
S013,24,Vrouwelijk,Rechts,1,67,left,no,150,leftarrow,349,true,focus,yes,316893,Chrome,111.0,Windows,10,undefined,undefined,1536 x 864,1536 x 864
S013,24,Vrouwelijk,Rechts,1,68,right,yes,150,rightarrow,388,false,focus,yes,318052,Chrome,111.0,Windows,10,undefined,undefined,1536 x 864,1536 x 864
S013,24,Vrouwelijk,Rechts,1,69,left,no,100,leftarrow,341,true,focus,yes,319182,Chrome,111.0,Windows,10,undefined,undefined,1536 x 864,1536 x 864
S013,24,Vrouwelijk,Rechts,1,70,right,no,100,rightarrow,348,true,focus,yes,320289,Chrome,111.0,Windows,10,undefined,undefined,1536 x 864,1536 x 864
S013,24,Vrouwelijk,Rechts,1,71,left,yes,100,undefined,null,true,focus,yes,322330,Chrome,111.0,Windows,10,undefined,undefined,1536 x 864,1536 x 864
S013,24,Vrouwelijk,Rechts,1,72,left,no,150,leftarrow,749,true,focus,yes,323864,Chrome,111.0,Windows,10,undefined,undefined,1536 x 864,1536 x 864
S013,24,Vrouwelijk,Rechts,1,73,right,no,150,rightarrow,275,true,focus,yes,324921,Chrome,111.0,Windows,10,undefined,undefined,1536 x 864,1536 x 864
S013,24,Vrouwelijk,Rechts,1,74,left,no,150,leftarrow,315,true,focus,yes,326010,Chrome,111.0,Windows,10,undefined,undefined,1536 x 864,1536 x 864
S013,24,Vrouwelijk,Rechts,1,75,left,no,150,leftarrow,376,true,focus,yes,327160,Chrome,111.0,Windows,10,undefined,undefined,1536 x 864,1536 x 864
S013,24,Vrouwelijk,Rechts,1,76,right,yes,150,rightarrow,397,false,focus,yes,328338,Chrome,111.0,Windows,10,undefined,undefined,1536 x 864,1536 x 864
S013,24,Vrouwelijk,Rechts,1,77,left,yes,100,leftarrow,332,false,focus,yes,329447,Chrome,111.0,Windows,10,undefined,undefined,1536 x 864,1536 x 864
S013,24,Vrouwelijk,Rechts,1,78,left,no,50,leftarrow,353,true,focus,yes,330569,Chrome,111.0,Windows,10,undefined,undefined,1536 x 864,1536 x 864
S013,24,Vrouwelijk,Rechts,1,79,right,no,50,rightarrow,406,true,focus,yes,331737,Chrome,111.0,Windows,10,undefined,undefined,1536 x 864,1536 x 864
S013,24,Vrouwelijk,Rechts,1,80,right,no,50,rightarrow,364,true,focus,yes,332888,Chrome,111.0,Windows,10,undefined,undefined,1536 x 864,1536 x 864
S013,24,Vrouwelijk,Rechts,1,81,left,yes,50,undefined,null,true,focus,yes,334926,Chrome,111.0,Windows,10,undefined,undefined,1536 x 864,1536 x 864
S013,24,Vrouwelijk,Rechts,1,82,left,no,100,leftarrow,377,true,focus,yes,336089,Chrome,111.0,Windows,10,undefined,undefined,1536 x 864,1536 x 864
S013,24,Vrouwelijk,Rechts,1,83,left,no,100,leftarrow,335,true,focus,yes,337198,Chrome,111.0,Windows,10,undefined,undefined,1536 x 864,1536 x 864
S013,24,Vrouwelijk,Rechts,1,84,right,yes,100,rightarrow,317,false,focus,yes,338289,Chrome,111.0,Windows,10,undefined,undefined,1536 x 864,1536 x 864
S013,24,Vrouwelijk,Rechts,1,85,right,no,50,rightarrow,354,true,focus,yes,339410,Chrome,111.0,Windows,10,undefined,undefined,1536 x 864,1536 x 864
S013,24,Vrouwelijk,Rechts,1,86,right,no,50,rightarrow,316,true,focus,yes,340505,Chrome,111.0,Windows,10,undefined,undefined,1536 x 864,1536 x 864
S013,24,Vrouwelijk,Rechts,1,87,right,no,50,rightarrow,407,true,focus,yes,341693,Chrome,111.0,Windows,10,undefined,undefined,1536 x 864,1536 x 864
S013,24,Vrouwelijk,Rechts,1,88,left,no,50,leftarrow,333,true,focus,yes,342814,Chrome,111.0,Windows,10,undefined,undefined,1536 x 864,1536 x 864
S013,24,Vrouwelijk,Rechts,1,89,left,yes,50,undefined,null,true,focus,yes,344851,Chrome,111.0,Windows,10,undefined,undefined,1536 x 864,1536 x 864
S013,24,Vrouwelijk,Rechts,1,90,left,no,100,leftarrow,302,true,focus,yes,345939,Chrome,111.0,Windows,10,undefined,undefined,1536 x 864,1536 x 864
S013,24,Vrouwelijk,Rechts,1,91,left,no,100,leftarrow,393,true,focus,yes,347096,Chrome,111.0,Windows,10,undefined,undefined,1536 x 864,1536 x 864
S013,24,Vrouwelijk,Rechts,1,92,left,no,100,leftarrow,329,true,focus,yes,348209,Chrome,111.0,Windows,10,undefined,undefined,1536 x 864,1536 x 864
S013,24,Vrouwelijk,Rechts,1,93,right,no,100,rightarrow,342,true,focus,yes,349334,Chrome,111.0,Windows,10,undefined,undefined,1536 x 864,1536 x 864
S013,24,Vrouwelijk,Rechts,1,94,right,no,100,rightarrow,330,true,focus,yes,350422,Chrome,111.0,Windows,10,undefined,undefined,1536 x 864,1536 x 864
S013,24,Vrouwelijk,Rechts,1,95,right,no,100,rightarrow,304,true,focus,yes,351486,Chrome,111.0,Windows,10,undefined,undefined,1536 x 864,1536 x 864
S013,24,Vrouwelijk,Rechts,1,96,right,yes,100,undefined,null,true,focus,yes,353509,Chrome,111.0,Windows,10,undefined,undefined,1536 x 864,1536 x 864
S013,24,Vrouwelijk,Rechts,1,97,right,no,150,rightarrow,436,true,focus,yes,354732,Chrome,111.0,Windows,10,undefined,undefined,1536 x 864,1536 x 864
S013,24,Vrouwelijk,Rechts,1,98,left,no,150,leftarrow,293,true,focus,yes,355799,Chrome,111.0,Windows,10,undefined,undefined,1536 x 864,1536 x 864
S013,24,Vrouwelijk,Rechts,1,99,right,no,150,rightarrow,338,true,focus,yes,356912,Chrome,111.0,Windows,10,undefined,undefined,1536 x 864,1536 x 864
S013,24,Vrouwelijk,Rechts,1,100,right,yes,150,undefined,null,true,focus,yes,358946,Chrome,111.0,Windows,10,undefined,undefined,1536 x 864,1536 x 864
S013,24,Vrouwelijk,Rechts,1,101,left,no,200,leftarrow,307,true,focus,yes,360038,Chrome,111.0,Windows,10,undefined,undefined,1536 x 864,1536 x 864
S013,24,Vrouwelijk,Rechts,1,102,right,no,200,rightarrow,336,true,focus,yes,361150,Chrome,111.0,Windows,10,undefined,undefined,1536 x 864,1536 x 864
S013,24,Vrouwelijk,Rechts,1,103,left,yes,200,leftarrow,389,false,focus,yes,362315,Chrome,111.0,Windows,10,undefined,undefined,1536 x 864,1536 x 864
S013,24,Vrouwelijk,Rechts,1,104,left,no,150,leftarrow,419,true,focus,yes,363522,Chrome,111.0,Windows,10,undefined,undefined,1536 x 864,1536 x 864
S013,24,Vrouwelijk,Rechts,1,105,right,yes,150,rightarrow,392,false,focus,yes,364690,Chrome,111.0,Windows,10,undefined,undefined,1536 x 864,1536 x 864
S013,24,Vrouwelijk,Rechts,1,106,right,no,100,rightarrow,443,true,focus,yes,365919,Chrome,111.0,Windows,10,undefined,undefined,1536 x 864,1536 x 864
S013,24,Vrouwelijk,Rechts,1,107,left,no,100,leftarrow,365,true,focus,yes,367062,Chrome,111.0,Windows,10,undefined,undefined,1536 x 864,1536 x 864
S013,24,Vrouwelijk,Rechts,1,108,left,no,100,leftarrow,394,true,focus,yes,368235,Chrome,111.0,Windows,10,undefined,undefined,1536 x 864,1536 x 864
S013,24,Vrouwelijk,Rechts,1,109,right,no,100,rightarrow,370,true,focus,yes,369386,Chrome,111.0,Windows,10,undefined,undefined,1536 x 864,1536 x 864
S013,24,Vrouwelijk,Rechts,1,110,right,no,100,rightarrow,318,true,focus,yes,370469,Chrome,111.0,Windows,10,undefined,undefined,1536 x 864,1536 x 864
S013,24,Vrouwelijk,Rechts,1,111,left,no,100,leftarrow,401,true,focus,yes,371650,Chrome,111.0,Windows,10,undefined,undefined,1536 x 864,1536 x 864
S013,24,Vrouwelijk,Rechts,1,112,left,yes,100,undefined,null,true,focus,yes,373690,Chrome,111.0,Windows,10,undefined,undefined,1536 x 864,1536 x 864
S013,24,Vrouwelijk,Rechts,1,113,left,no,150,leftarrow,394,true,focus,yes,374870,Chrome,111.0,Windows,10,undefined,undefined,1536 x 864,1536 x 864
S013,24,Vrouwelijk,Rechts,1,114,right,no,150,rightarrow,328,true,focus,yes,375965,Chrome,111.0,Windows,10,undefined,undefined,1536 x 864,1536 x 864
S013,24,Vrouwelijk,Rechts,1,115,right,yes,150,rightarrow,354,false,focus,yes,377110,Chrome,111.0,Windows,10,undefined,undefined,1536 x 864,1536 x 864
S013,24,Vrouwelijk,Rechts,1,116,right,no,100,rightarrow,450,true,focus,yes,378337,Chrome,111.0,Windows,10,undefined,undefined,1536 x 864,1536 x 864
S013,24,Vrouwelijk,Rechts,1,117,left,yes,100,undefined,null,true,focus,yes,380377,Chrome,111.0,Windows,10,undefined,undefined,1536 x 864,1536 x 864
S013,24,Vrouwelijk,Rechts,1,118,left,no,150,leftarrow,353,true,focus,yes,381515,Chrome,111.0,Windows,10,undefined,undefined,1536 x 864,1536 x 864
S013,24,Vrouwelijk,Rechts,1,119,left,no,150,leftarrow,353,true,focus,yes,382634,Chrome,111.0,Windows,10,undefined,undefined,1536 x 864,1536 x 864
S013,24,Vrouwelijk,Rechts,1,120,right,no,150,rightarrow,358,true,focus,yes,383756,Chrome,111.0,Windows,10,undefined,undefined,1536 x 864,1536 x 864
S013,24,Vrouwelijk,Rechts,1,121,left,no,150,leftarrow,338,true,focus,yes,384872,Chrome,111.0,Windows,10,undefined,undefined,1536 x 864,1536 x 864
S013,24,Vrouwelijk,Rechts,1,122,left,no,150,leftarrow,440,true,focus,yes,386087,Chrome,111.0,Windows,10,undefined,undefined,1536 x 864,1536 x 864
S013,24,Vrouwelijk,Rechts,1,123,right,no,150,rightarrow,477,true,focus,yes,387347,Chrome,111.0,Windows,10,undefined,undefined,1536 x 864,1536 x 864
S013,24,Vrouwelijk,Rechts,1,124,right,no,150,rightarrow,364,true,focus,yes,388497,Chrome,111.0,Windows,10,undefined,undefined,1536 x 864,1536 x 864
S013,24,Vrouwelijk,Rechts,1,125,left,no,150,leftarrow,387,true,focus,yes,389654,Chrome,111.0,Windows,10,undefined,undefined,1536 x 864,1536 x 864
S013,24,Vrouwelijk,Rechts,1,126,right,no,150,rightarrow,333,true,focus,yes,390763,Chrome,111.0,Windows,10,undefined,undefined,1536 x 864,1536 x 864
S013,24,Vrouwelijk,Rechts,1,127,left,yes,150,leftarrow,338,false,focus,yes,391885,Chrome,111.0,Windows,10,undefined,undefined,1536 x 864,1536 x 864
S013,24,Vrouwelijk,Rechts,1,128,right,yes,100,rightarrow,284,false,focus,yes,392948,Chrome,111.0,Windows,10,undefined,undefined,1536 x 864,1536 x 864
S013,24,Vrouwelijk,Rechts,2,1,right,no,50,rightarrow,371,true,focus,yes,412385,Chrome,111.0,Windows,10,undefined,undefined,1536 x 864,1536 x 864
S013,24,Vrouwelijk,Rechts,2,2,right,yes,50,undefined,null,true,focus,yes,414422,Chrome,111.0,Windows,10,undefined,undefined,1536 x 864,1536 x 864
S013,24,Vrouwelijk,Rechts,2,3,left,no,100,leftarrow,315,true,focus,yes,415521,Chrome,111.0,Windows,10,undefined,undefined,1536 x 864,1536 x 864
S013,24,Vrouwelijk,Rechts,2,4,right,no,100,rightarrow,455,true,focus,yes,416762,Chrome,111.0,Windows,10,undefined,undefined,1536 x 864,1536 x 864
S013,24,Vrouwelijk,Rechts,2,5,left,yes,100,undefined,null,true,focus,yes,418793,Chrome,111.0,Windows,10,undefined,undefined,1536 x 864,1536 x 864
S013,24,Vrouwelijk,Rechts,2,6,right,no,150,rightarrow,348,true,focus,yes,419911,Chrome,111.0,Windows,10,undefined,undefined,1536 x 864,1536 x 864
S013,24,Vrouwelijk,Rechts,2,7,left,no,150,leftarrow,451,true,focus,yes,421145,Chrome,111.0,Windows,10,undefined,undefined,1536 x 864,1536 x 864
S013,24,Vrouwelijk,Rechts,2,8,left,no,150,leftarrow,410,true,focus,yes,422330,Chrome,111.0,Windows,10,undefined,undefined,1536 x 864,1536 x 864
S013,24,Vrouwelijk,Rechts,2,9,left,no,150,leftarrow,375,true,focus,yes,423488,Chrome,111.0,Windows,10,undefined,undefined,1536 x 864,1536 x 864
S013,24,Vrouwelijk,Rechts,2,10,left,yes,150,undefined,null,true,focus,yes,425519,Chrome,111.0,Windows,10,undefined,undefined,1536 x 864,1536 x 864
S013,24,Vrouwelijk,Rechts,2,11,right,yes,200,rightarrow,304,false,focus,yes,426607,Chrome,111.0,Windows,10,undefined,undefined,1536 x 864,1536 x 864
S013,24,Vrouwelijk,Rechts,2,12,right,no,150,rightarrow,444,true,focus,yes,427831,Chrome,111.0,Windows,10,undefined,undefined,1536 x 864,1536 x 864
S013,24,Vrouwelijk,Rechts,2,13,left,no,150,leftarrow,623,true,focus,yes,429234,Chrome,111.0,Windows,10,undefined,undefined,1536 x 864,1536 x 864
S013,24,Vrouwelijk,Rechts,2,14,left,no,150,leftarrow,397,true,focus,yes,430393,Chrome,111.0,Windows,10,undefined,undefined,1536 x 864,1536 x 864
S013,24,Vrouwelijk,Rechts,2,15,right,no,150,rightarrow,344,true,focus,yes,431521,Chrome,111.0,Windows,10,undefined,undefined,1536 x 864,1536 x 864
S013,24,Vrouwelijk,Rechts,2,16,right,no,150,rightarrow,372,true,focus,yes,432667,Chrome,111.0,Windows,10,undefined,undefined,1536 x 864,1536 x 864
S013,24,Vrouwelijk,Rechts,2,17,right,yes,150,undefined,null,true,focus,yes,434705,Chrome,111.0,Windows,10,undefined,undefined,1536 x 864,1536 x 864
S013,24,Vrouwelijk,Rechts,2,18,left,no,200,leftarrow,351,true,focus,yes,435845,Chrome,111.0,Windows,10,undefined,undefined,1536 x 864,1536 x 864
S013,24,Vrouwelijk,Rechts,2,19,right,no,200,rightarrow,416,true,focus,yes,437042,Chrome,111.0,Windows,10,undefined,undefined,1536 x 864,1536 x 864
S013,24,Vrouwelijk,Rechts,2,20,right,no,200,rightarrow,442,true,focus,yes,438264,Chrome,111.0,Windows,10,undefined,undefined,1536 x 864,1536 x 864
S013,24,Vrouwelijk,Rechts,2,21,left,yes,200,undefined,null,true,focus,yes,440291,Chrome,111.0,Windows,10,undefined,undefined,1536 x 864,1536 x 864
S013,24,Vrouwelijk,Rechts,2,22,right,no,250,rightarrow,319,true,focus,yes,441382,Chrome,111.0,Windows,10,undefined,undefined,1536 x 864,1536 x 864
S013,24,Vrouwelijk,Rechts,2,23,left,no,250,leftarrow,344,true,focus,yes,442502,Chrome,111.0,Windows,10,undefined,undefined,1536 x 864,1536 x 864
S013,24,Vrouwelijk,Rechts,2,24,left,no,250,leftarrow,450,true,focus,yes,443739,Chrome,111.0,Windows,10,undefined,undefined,1536 x 864,1536 x 864
S013,24,Vrouwelijk,Rechts,2,25,left,yes,250,leftarrow,412,false,focus,yes,444925,Chrome,111.0,Windows,10,undefined,undefined,1536 x 864,1536 x 864
S013,24,Vrouwelijk,Rechts,2,26,right,no,200,rightarrow,435,true,focus,yes,446143,Chrome,111.0,Windows,10,undefined,undefined,1536 x 864,1536 x 864
S013,24,Vrouwelijk,Rechts,2,27,left,no,200,leftarrow,713,true,focus,yes,447616,Chrome,111.0,Windows,10,undefined,undefined,1536 x 864,1536 x 864
S013,24,Vrouwelijk,Rechts,2,28,right,yes,200,rightarrow,337,false,focus,yes,448728,Chrome,111.0,Windows,10,undefined,undefined,1536 x 864,1536 x 864
S013,24,Vrouwelijk,Rechts,2,29,right,no,150,rightarrow,388,true,focus,yes,449893,Chrome,111.0,Windows,10,undefined,undefined,1536 x 864,1536 x 864
S013,24,Vrouwelijk,Rechts,2,30,right,no,150,rightarrow,677,true,focus,yes,451334,Chrome,111.0,Windows,10,undefined,undefined,1536 x 864,1536 x 864
S013,24,Vrouwelijk,Rechts,2,31,left,no,150,leftarrow,359,true,focus,yes,452473,Chrome,111.0,Windows,10,undefined,undefined,1536 x 864,1536 x 864
S013,24,Vrouwelijk,Rechts,2,32,left,no,150,leftarrow,351,true,focus,yes,453614,Chrome,111.0,Windows,10,undefined,undefined,1536 x 864,1536 x 864
S013,24,Vrouwelijk,Rechts,2,33,left,yes,150,leftarrow,340,false,focus,yes,454726,Chrome,111.0,Windows,10,undefined,undefined,1536 x 864,1536 x 864
S013,24,Vrouwelijk,Rechts,2,34,left,no,100,leftarrow,412,true,focus,yes,455921,Chrome,111.0,Windows,10,undefined,undefined,1536 x 864,1536 x 864
S013,24,Vrouwelijk,Rechts,2,35,right,no,100,rightarrow,481,true,focus,yes,457184,Chrome,111.0,Windows,10,undefined,undefined,1536 x 864,1536 x 864
S013,24,Vrouwelijk,Rechts,2,36,right,no,100,rightarrow,388,true,focus,yes,458336,Chrome,111.0,Windows,10,undefined,undefined,1536 x 864,1536 x 864
S013,24,Vrouwelijk,Rechts,2,37,left,no,100,leftarrow,495,true,focus,yes,459618,Chrome,111.0,Windows,10,undefined,undefined,1536 x 864,1536 x 864
S013,24,Vrouwelijk,Rechts,2,38,left,no,100,leftarrow,492,true,focus,yes,460887,Chrome,111.0,Windows,10,undefined,undefined,1536 x 864,1536 x 864
S013,24,Vrouwelijk,Rechts,2,39,right,yes,100,undefined,null,true,focus,yes,462928,Chrome,111.0,Windows,10,undefined,undefined,1536 x 864,1536 x 864
S013,24,Vrouwelijk,Rechts,2,40,right,no,150,rightarrow,379,true,focus,yes,464093,Chrome,111.0,Windows,10,undefined,undefined,1536 x 864,1536 x 864
S013,24,Vrouwelijk,Rechts,2,41,left,no,150,leftarrow,359,true,focus,yes,465225,Chrome,111.0,Windows,10,undefined,undefined,1536 x 864,1536 x 864
S013,24,Vrouwelijk,Rechts,2,42,left,no,150,leftarrow,396,true,focus,yes,466407,Chrome,111.0,Windows,10,undefined,undefined,1536 x 864,1536 x 864
S013,24,Vrouwelijk,Rechts,2,43,left,yes,150,leftarrow,389,false,focus,yes,467564,Chrome,111.0,Windows,10,undefined,undefined,1536 x 864,1536 x 864
S013,24,Vrouwelijk,Rechts,2,44,left,no,100,rightarrow,279,false,focus,yes,468604,Chrome,111.0,Windows,10,undefined,undefined,1536 x 864,1536 x 864
S013,24,Vrouwelijk,Rechts,2,45,right,no,100,rightarrow,345,true,focus,yes,469724,Chrome,111.0,Windows,10,undefined,undefined,1536 x 864,1536 x 864
S013,24,Vrouwelijk,Rechts,2,46,right,no,100,rightarrow,442,true,focus,yes,470950,Chrome,111.0,Windows,10,undefined,undefined,1536 x 864,1536 x 864
S013,24,Vrouwelijk,Rechts,2,47,right,yes,100,undefined,null,true,focus,yes,472998,Chrome,111.0,Windows,10,undefined,undefined,1536 x 864,1536 x 864
S013,24,Vrouwelijk,Rechts,2,48,right,no,150,rightarrow,435,true,focus,yes,474205,Chrome,111.0,Windows,10,undefined,undefined,1536 x 864,1536 x 864
S013,24,Vrouwelijk,Rechts,2,49,right,no,150,rightarrow,423,true,focus,yes,475406,Chrome,111.0,Windows,10,undefined,undefined,1536 x 864,1536 x 864
S013,24,Vrouwelijk,Rechts,2,50,left,no,150,leftarrow,541,true,focus,yes,476708,Chrome,111.0,Windows,10,undefined,undefined,1536 x 864,1536 x 864
S013,24,Vrouwelijk,Rechts,2,51,left,no,150,leftarrow,386,true,focus,yes,477863,Chrome,111.0,Windows,10,undefined,undefined,1536 x 864,1536 x 864
S013,24,Vrouwelijk,Rechts,2,52,right,yes,150,undefined,null,true,focus,yes,479892,Chrome,111.0,Windows,10,undefined,undefined,1536 x 864,1536 x 864
S013,24,Vrouwelijk,Rechts,2,53,left,yes,200,leftarrow,348,false,focus,yes,481026,Chrome,111.0,Windows,10,undefined,undefined,1536 x 864,1536 x 864
S013,24,Vrouwelijk,Rechts,2,54,right,no,150,rightarrow,318,true,focus,yes,482130,Chrome,111.0,Windows,10,undefined,undefined,1536 x 864,1536 x 864
S013,24,Vrouwelijk,Rechts,2,55,right,no,150,rightarrow,466,true,focus,yes,483367,Chrome,111.0,Windows,10,undefined,undefined,1536 x 864,1536 x 864
S013,24,Vrouwelijk,Rechts,2,56,left,no,150,leftarrow,369,true,focus,yes,484512,Chrome,111.0,Windows,10,undefined,undefined,1536 x 864,1536 x 864
S013,24,Vrouwelijk,Rechts,2,57,right,no,150,rightarrow,664,true,focus,yes,485941,Chrome,111.0,Windows,10,undefined,undefined,1536 x 864,1536 x 864
S013,24,Vrouwelijk,Rechts,2,58,left,yes,150,undefined,null,true,focus,yes,487978,Chrome,111.0,Windows,10,undefined,undefined,1536 x 864,1536 x 864
S013,24,Vrouwelijk,Rechts,2,59,right,yes,200,rightarrow,388,false,focus,yes,489139,Chrome,111.0,Windows,10,undefined,undefined,1536 x 864,1536 x 864
S013,24,Vrouwelijk,Rechts,2,60,left,no,150,leftarrow,324,true,focus,yes,490253,Chrome,111.0,Windows,10,undefined,undefined,1536 x 864,1536 x 864
S013,24,Vrouwelijk,Rechts,2,61,right,no,150,rightarrow,476,true,focus,yes,491494,Chrome,111.0,Windows,10,undefined,undefined,1536 x 864,1536 x 864
S013,24,Vrouwelijk,Rechts,2,62,left,no,150,leftarrow,726,true,focus,yes,493002,Chrome,111.0,Windows,10,undefined,undefined,1536 x 864,1536 x 864
S013,24,Vrouwelijk,Rechts,2,63,left,no,150,leftarrow,377,true,focus,yes,494162,Chrome,111.0,Windows,10,undefined,undefined,1536 x 864,1536 x 864
S013,24,Vrouwelijk,Rechts,2,64,right,no,150,rightarrow,421,true,focus,yes,495369,Chrome,111.0,Windows,10,undefined,undefined,1536 x 864,1536 x 864
S013,24,Vrouwelijk,Rechts,2,65,left,no,150,leftarrow,599,true,focus,yes,496731,Chrome,111.0,Windows,10,undefined,undefined,1536 x 864,1536 x 864
S013,24,Vrouwelijk,Rechts,2,66,right,no,150,rightarrow,338,true,focus,yes,497836,Chrome,111.0,Windows,10,undefined,undefined,1536 x 864,1536 x 864
S013,24,Vrouwelijk,Rechts,2,67,right,no,150,rightarrow,387,true,focus,yes,499001,Chrome,111.0,Windows,10,undefined,undefined,1536 x 864,1536 x 864
S013,24,Vrouwelijk,Rechts,2,68,left,yes,150,leftarrow,371,false,focus,yes,500133,Chrome,111.0,Windows,10,undefined,undefined,1536 x 864,1536 x 864
S013,24,Vrouwelijk,Rechts,2,69,right,yes,100,undefined,null,true,focus,yes,502156,Chrome,111.0,Windows,10,undefined,undefined,1536 x 864,1536 x 864
S013,24,Vrouwelijk,Rechts,2,70,left,no,150,leftarrow,413,true,focus,yes,503342,Chrome,111.0,Windows,10,undefined,undefined,1536 x 864,1536 x 864
S013,24,Vrouwelijk,Rechts,2,71,left,no,150,leftarrow,416,true,focus,yes,504543,Chrome,111.0,Windows,10,undefined,undefined,1536 x 864,1536 x 864
S013,24,Vrouwelijk,Rechts,2,72,right,no,150,rightarrow,601,true,focus,yes,505923,Chrome,111.0,Windows,10,undefined,undefined,1536 x 864,1536 x 864
S013,24,Vrouwelijk,Rechts,2,73,right,yes,150,undefined,null,true,focus,yes,507959,Chrome,111.0,Windows,10,undefined,undefined,1536 x 864,1536 x 864
S013,24,Vrouwelijk,Rechts,2,74,left,yes,200,leftarrow,307,false,focus,yes,509052,Chrome,111.0,Windows,10,undefined,undefined,1536 x 864,1536 x 864
S013,24,Vrouwelijk,Rechts,2,75,left,no,150,leftarrow,365,true,focus,yes,510194,Chrome,111.0,Windows,10,undefined,undefined,1536 x 864,1536 x 864
S013,24,Vrouwelijk,Rechts,2,76,right,no,150,rightarrow,333,true,focus,yes,511311,Chrome,111.0,Windows,10,undefined,undefined,1536 x 864,1536 x 864
S013,24,Vrouwelijk,Rechts,2,77,right,no,150,rightarrow,349,true,focus,yes,512443,Chrome,111.0,Windows,10,undefined,undefined,1536 x 864,1536 x 864
S013,24,Vrouwelijk,Rechts,2,78,right,no,150,rightarrow,364,true,focus,yes,513577,Chrome,111.0,Windows,10,undefined,undefined,1536 x 864,1536 x 864
S013,24,Vrouwelijk,Rechts,2,79,left,no,150,leftarrow,342,true,focus,yes,514700,Chrome,111.0,Windows,10,undefined,undefined,1536 x 864,1536 x 864
S013,24,Vrouwelijk,Rechts,2,80,left,no,150,leftarrow,409,true,focus,yes,515872,Chrome,111.0,Windows,10,undefined,undefined,1536 x 864,1536 x 864
S013,24,Vrouwelijk,Rechts,2,81,right,no,150,rightarrow,426,true,focus,yes,517079,Chrome,111.0,Windows,10,undefined,undefined,1536 x 864,1536 x 864
S013,24,Vrouwelijk,Rechts,2,82,left,yes,150,leftarrow,379,false,focus,yes,518248,Chrome,111.0,Windows,10,undefined,undefined,1536 x 864,1536 x 864
S013,24,Vrouwelijk,Rechts,2,83,left,no,100,leftarrow,483,true,focus,yes,519514,Chrome,111.0,Windows,10,undefined,undefined,1536 x 864,1536 x 864
S013,24,Vrouwelijk,Rechts,2,84,right,yes,100,undefined,null,true,focus,yes,521560,Chrome,111.0,Windows,10,undefined,undefined,1536 x 864,1536 x 864
S013,24,Vrouwelijk,Rechts,2,85,left,no,150,leftarrow,375,true,focus,yes,522723,Chrome,111.0,Windows,10,undefined,undefined,1536 x 864,1536 x 864
S013,24,Vrouwelijk,Rechts,2,86,right,no,150,rightarrow,328,true,focus,yes,523819,Chrome,111.0,Windows,10,undefined,undefined,1536 x 864,1536 x 864
S013,24,Vrouwelijk,Rechts,2,87,left,no,150,leftarrow,693,true,focus,yes,525291,Chrome,111.0,Windows,10,undefined,undefined,1536 x 864,1536 x 864
S013,24,Vrouwelijk,Rechts,2,88,right,no,150,rightarrow,363,true,focus,yes,526437,Chrome,111.0,Windows,10,undefined,undefined,1536 x 864,1536 x 864
S013,24,Vrouwelijk,Rechts,2,89,right,no,150,rightarrow,489,true,focus,yes,527697,Chrome,111.0,Windows,10,undefined,undefined,1536 x 864,1536 x 864
S013,24,Vrouwelijk,Rechts,2,90,left,no,150,leftarrow,339,true,focus,yes,528822,Chrome,111.0,Windows,10,undefined,undefined,1536 x 864,1536 x 864
S013,24,Vrouwelijk,Rechts,2,91,right,no,150,rightarrow,388,true,focus,yes,529971,Chrome,111.0,Windows,10,undefined,undefined,1536 x 864,1536 x 864
S013,24,Vrouwelijk,Rechts,2,92,left,no,150,leftarrow,335,true,focus,yes,531086,Chrome,111.0,Windows,10,undefined,undefined,1536 x 864,1536 x 864
S013,24,Vrouwelijk,Rechts,2,93,right,yes,150,undefined,null,true,focus,yes,533113,Chrome,111.0,Windows,10,undefined,undefined,1536 x 864,1536 x 864
S013,24,Vrouwelijk,Rechts,2,94,left,yes,200,leftarrow,328,false,focus,yes,534229,Chrome,111.0,Windows,10,undefined,undefined,1536 x 864,1536 x 864
S013,24,Vrouwelijk,Rechts,2,95,left,no,150,leftarrow,425,true,focus,yes,535426,Chrome,111.0,Windows,10,undefined,undefined,1536 x 864,1536 x 864
S013,24,Vrouwelijk,Rechts,2,96,right,no,150,rightarrow,368,true,focus,yes,536562,Chrome,111.0,Windows,10,undefined,undefined,1536 x 864,1536 x 864
S013,24,Vrouwelijk,Rechts,2,97,left,no,150,rightarrow,329,false,focus,yes,537668,Chrome,111.0,Windows,10,undefined,undefined,1536 x 864,1536 x 864
S013,24,Vrouwelijk,Rechts,2,98,right,no,150,rightarrow,384,true,focus,yes,538839,Chrome,111.0,Windows,10,undefined,undefined,1536 x 864,1536 x 864
S013,24,Vrouwelijk,Rechts,2,99,left,no,150,leftarrow,382,true,focus,yes,539987,Chrome,111.0,Windows,10,undefined,undefined,1536 x 864,1536 x 864
S013,24,Vrouwelijk,Rechts,2,100,right,no,150,rightarrow,377,true,focus,yes,541139,Chrome,111.0,Windows,10,undefined,undefined,1536 x 864,1536 x 864
S013,24,Vrouwelijk,Rechts,2,101,right,yes,150,rightarrow,375,false,focus,yes,542295,Chrome,111.0,Windows,10,undefined,undefined,1536 x 864,1536 x 864
S013,24,Vrouwelijk,Rechts,2,102,left,no,100,leftarrow,264,true,focus,yes,543347,Chrome,111.0,Windows,10,undefined,undefined,1536 x 864,1536 x 864
S013,24,Vrouwelijk,Rechts,2,103,right,no,100,rightarrow,806,true,focus,yes,544940,Chrome,111.0,Windows,10,undefined,undefined,1536 x 864,1536 x 864
S013,24,Vrouwelijk,Rechts,2,104,left,yes,100,undefined,null,true,focus,yes,546984,Chrome,111.0,Windows,10,undefined,undefined,1536 x 864,1536 x 864
S013,24,Vrouwelijk,Rechts,2,105,right,no,150,rightarrow,323,true,focus,yes,548090,Chrome,111.0,Windows,10,undefined,undefined,1536 x 864,1536 x 864
S013,24,Vrouwelijk,Rechts,2,106,left,no,150,leftarrow,452,true,focus,yes,549319,Chrome,111.0,Windows,10,undefined,undefined,1536 x 864,1536 x 864
S013,24,Vrouwelijk,Rechts,2,107,right,no,150,rightarrow,366,true,focus,yes,550459,Chrome,111.0,Windows,10,undefined,undefined,1536 x 864,1536 x 864
S013,24,Vrouwelijk,Rechts,2,108,left,yes,150,undefined,null,true,focus,yes,552493,Chrome,111.0,Windows,10,undefined,undefined,1536 x 864,1536 x 864
S013,24,Vrouwelijk,Rechts,2,109,left,no,200,leftarrow,391,true,focus,yes,553670,Chrome,111.0,Windows,10,undefined,undefined,1536 x 864,1536 x 864
S013,24,Vrouwelijk,Rechts,2,110,right,yes,200,undefined,null,true,focus,yes,555700,Chrome,111.0,Windows,10,undefined,undefined,1536 x 864,1536 x 864
S013,24,Vrouwelijk,Rechts,2,111,right,no,250,rightarrow,352,true,focus,yes,556840,Chrome,111.0,Windows,10,undefined,undefined,1536 x 864,1536 x 864
S013,24,Vrouwelijk,Rechts,2,112,left,no,250,leftarrow,404,true,focus,yes,558025,Chrome,111.0,Windows,10,undefined,undefined,1536 x 864,1536 x 864
S013,24,Vrouwelijk,Rechts,2,113,right,no,250,rightarrow,476,true,focus,yes,559282,Chrome,111.0,Windows,10,undefined,undefined,1536 x 864,1536 x 864
S013,24,Vrouwelijk,Rechts,2,114,right,no,250,rightarrow,397,true,focus,yes,560460,Chrome,111.0,Windows,10,undefined,undefined,1536 x 864,1536 x 864
S013,24,Vrouwelijk,Rechts,2,115,left,no,250,leftarrow,655,true,focus,yes,561895,Chrome,111.0,Windows,10,undefined,undefined,1536 x 864,1536 x 864
S013,24,Vrouwelijk,Rechts,2,116,left,no,250,leftarrow,385,true,focus,yes,563061,Chrome,111.0,Windows,10,undefined,undefined,1536 x 864,1536 x 864
S013,24,Vrouwelijk,Rechts,2,117,right,no,250,rightarrow,345,true,focus,yes,564179,Chrome,111.0,Windows,10,undefined,undefined,1536 x 864,1536 x 864
S013,24,Vrouwelijk,Rechts,2,118,left,no,250,leftarrow,368,true,focus,yes,565337,Chrome,111.0,Windows,10,undefined,undefined,1536 x 864,1536 x 864
S013,24,Vrouwelijk,Rechts,2,119,left,yes,250,leftarrow,456,false,focus,yes,566576,Chrome,111.0,Windows,10,undefined,undefined,1536 x 864,1536 x 864
S013,24,Vrouwelijk,Rechts,2,120,right,yes,200,rightarrow,354,false,focus,yes,567697,Chrome,111.0,Windows,10,undefined,undefined,1536 x 864,1536 x 864
S013,24,Vrouwelijk,Rechts,2,121,right,no,150,rightarrow,388,true,focus,yes,568861,Chrome,111.0,Windows,10,undefined,undefined,1536 x 864,1536 x 864
S013,24,Vrouwelijk,Rechts,2,122,right,yes,150,undefined,null,true,focus,yes,570891,Chrome,111.0,Windows,10,undefined,undefined,1536 x 864,1536 x 864
S013,24,Vrouwelijk,Rechts,2,123,left,no,200,leftarrow,321,true,focus,yes,571998,Chrome,111.0,Windows,10,undefined,undefined,1536 x 864,1536 x 864
S013,24,Vrouwelijk,Rechts,2,124,left,no,200,leftarrow,465,true,focus,yes,573244,Chrome,111.0,Windows,10,undefined,undefined,1536 x 864,1536 x 864
S013,24,Vrouwelijk,Rechts,2,125,left,no,200,leftarrow,392,true,focus,yes,574409,Chrome,111.0,Windows,10,undefined,undefined,1536 x 864,1536 x 864
S013,24,Vrouwelijk,Rechts,2,126,left,yes,200,leftarrow,390,false,focus,yes,575559,Chrome,111.0,Windows,10,undefined,undefined,1536 x 864,1536 x 864
S013,24,Vrouwelijk,Rechts,2,127,right,no,150,rightarrow,475,true,focus,yes,576821,Chrome,111.0,Windows,10,undefined,undefined,1536 x 864,1536 x 864
S013,24,Vrouwelijk,Rechts,2,128,right,no,150,rightarrow,426,true,focus,yes,578027,Chrome,111.0,Windows,10,undefined,undefined,1536 x 864,1536 x 864
S013,24,Vrouwelijk,Rechts,3,1,right,yes,150,undefined,null,true,focus,yes,597413,Chrome,111.0,Windows,10,undefined,undefined,1536 x 864,1536 x 864
S013,24,Vrouwelijk,Rechts,3,2,right,no,200,rightarrow,413,true,focus,yes,598612,Chrome,111.0,Windows,10,undefined,undefined,1536 x 864,1536 x 864
S013,24,Vrouwelijk,Rechts,3,3,left,no,200,leftarrow,447,true,focus,yes,599826,Chrome,111.0,Windows,10,undefined,undefined,1536 x 864,1536 x 864
S013,24,Vrouwelijk,Rechts,3,4,left,yes,200,leftarrow,369,false,focus,yes,600971,Chrome,111.0,Windows,10,undefined,undefined,1536 x 864,1536 x 864
S013,24,Vrouwelijk,Rechts,3,5,left,no,150,leftarrow,426,true,focus,yes,602170,Chrome,111.0,Windows,10,undefined,undefined,1536 x 864,1536 x 864
S013,24,Vrouwelijk,Rechts,3,6,right,no,150,rightarrow,408,true,focus,yes,603360,Chrome,111.0,Windows,10,undefined,undefined,1536 x 864,1536 x 864
S013,24,Vrouwelijk,Rechts,3,7,left,no,150,leftarrow,396,true,focus,yes,604545,Chrome,111.0,Windows,10,undefined,undefined,1536 x 864,1536 x 864
S013,24,Vrouwelijk,Rechts,3,8,right,no,150,rightarrow,391,true,focus,yes,605725,Chrome,111.0,Windows,10,undefined,undefined,1536 x 864,1536 x 864
S013,24,Vrouwelijk,Rechts,3,9,right,no,150,rightarrow,372,true,focus,yes,606859,Chrome,111.0,Windows,10,undefined,undefined,1536 x 864,1536 x 864
S013,24,Vrouwelijk,Rechts,3,10,right,yes,150,undefined,null,true,focus,yes,608884,Chrome,111.0,Windows,10,undefined,undefined,1536 x 864,1536 x 864
S013,24,Vrouwelijk,Rechts,3,11,left,no,200,leftarrow,319,true,focus,yes,609986,Chrome,111.0,Windows,10,undefined,undefined,1536 x 864,1536 x 864
S013,24,Vrouwelijk,Rechts,3,12,right,no,200,rightarrow,440,true,focus,yes,611206,Chrome,111.0,Windows,10,undefined,undefined,1536 x 864,1536 x 864
S013,24,Vrouwelijk,Rechts,3,13,right,no,200,rightarrow,412,true,focus,yes,612389,Chrome,111.0,Windows,10,undefined,undefined,1536 x 864,1536 x 864
S013,24,Vrouwelijk,Rechts,3,14,left,no,200,leftarrow,362,true,focus,yes,613519,Chrome,111.0,Windows,10,undefined,undefined,1536 x 864,1536 x 864
S013,24,Vrouwelijk,Rechts,3,15,left,no,200,leftarrow,368,true,focus,yes,614656,Chrome,111.0,Windows,10,undefined,undefined,1536 x 864,1536 x 864
S013,24,Vrouwelijk,Rechts,3,16,left,yes,200,leftarrow,353,false,focus,yes,615786,Chrome,111.0,Windows,10,undefined,undefined,1536 x 864,1536 x 864
S013,24,Vrouwelijk,Rechts,3,17,right,yes,150,undefined,null,true,focus,yes,617831,Chrome,111.0,Windows,10,undefined,undefined,1536 x 864,1536 x 864
S013,24,Vrouwelijk,Rechts,3,18,right,no,200,rightarrow,442,true,focus,yes,619064,Chrome,111.0,Windows,10,undefined,undefined,1536 x 864,1536 x 864
S013,24,Vrouwelijk,Rechts,3,19,left,no,200,leftarrow,382,true,focus,yes,620214,Chrome,111.0,Windows,10,undefined,undefined,1536 x 864,1536 x 864
S013,24,Vrouwelijk,Rechts,3,20,right,no,200,rightarrow,329,true,focus,yes,621313,Chrome,111.0,Windows,10,undefined,undefined,1536 x 864,1536 x 864
S013,24,Vrouwelijk,Rechts,3,21,left,no,200,leftarrow,362,true,focus,yes,622458,Chrome,111.0,Windows,10,undefined,undefined,1536 x 864,1536 x 864
S013,24,Vrouwelijk,Rechts,3,22,right,no,200,rightarrow,569,true,focus,yes,623812,Chrome,111.0,Windows,10,undefined,undefined,1536 x 864,1536 x 864
S013,24,Vrouwelijk,Rechts,3,23,left,yes,200,leftarrow,344,false,focus,yes,624927,Chrome,111.0,Windows,10,undefined,undefined,1536 x 864,1536 x 864
S013,24,Vrouwelijk,Rechts,3,24,left,no,150,leftarrow,451,true,focus,yes,626139,Chrome,111.0,Windows,10,undefined,undefined,1536 x 864,1536 x 864
S013,24,Vrouwelijk,Rechts,3,25,right,no,150,rightarrow,345,true,focus,yes,627257,Chrome,111.0,Windows,10,undefined,undefined,1536 x 864,1536 x 864
S013,24,Vrouwelijk,Rechts,3,26,right,no,150,rightarrow,373,true,focus,yes,628412,Chrome,111.0,Windows,10,undefined,undefined,1536 x 864,1536 x 864
S013,24,Vrouwelijk,Rechts,3,27,right,no,150,rightarrow,315,true,focus,yes,629518,Chrome,111.0,Windows,10,undefined,undefined,1536 x 864,1536 x 864
S013,24,Vrouwelijk,Rechts,3,28,left,yes,150,undefined,null,true,focus,yes,631566,Chrome,111.0,Windows,10,undefined,undefined,1536 x 864,1536 x 864
S013,24,Vrouwelijk,Rechts,3,29,right,yes,200,rightarrow,329,false,focus,yes,632682,Chrome,111.0,Windows,10,undefined,undefined,1536 x 864,1536 x 864
S013,24,Vrouwelijk,Rechts,3,30,left,no,150,leftarrow,383,true,focus,yes,633853,Chrome,111.0,Windows,10,undefined,undefined,1536 x 864,1536 x 864
S013,24,Vrouwelijk,Rechts,3,31,left,no,150,leftarrow,375,true,focus,yes,634993,Chrome,111.0,Windows,10,undefined,undefined,1536 x 864,1536 x 864
S013,24,Vrouwelijk,Rechts,3,32,left,no,150,leftarrow,460,true,focus,yes,636226,Chrome,111.0,Windows,10,undefined,undefined,1536 x 864,1536 x 864
S013,24,Vrouwelijk,Rechts,3,33,left,yes,150,undefined,null,true,focus,yes,638262,Chrome,111.0,Windows,10,undefined,undefined,1536 x 864,1536 x 864
S013,24,Vrouwelijk,Rechts,3,34,left,no,200,leftarrow,396,true,focus,yes,639445,Chrome,111.0,Windows,10,undefined,undefined,1536 x 864,1536 x 864
S013,24,Vrouwelijk,Rechts,3,35,right,no,200,rightarrow,479,true,focus,yes,640705,Chrome,111.0,Windows,10,undefined,undefined,1536 x 864,1536 x 864
S013,24,Vrouwelijk,Rechts,3,36,right,no,200,rightarrow,350,true,focus,yes,641818,Chrome,111.0,Windows,10,undefined,undefined,1536 x 864,1536 x 864
S013,24,Vrouwelijk,Rechts,3,37,left,no,200,leftarrow,343,true,focus,yes,642945,Chrome,111.0,Windows,10,undefined,undefined,1536 x 864,1536 x 864
S013,24,Vrouwelijk,Rechts,3,38,right,no,200,rightarrow,395,true,focus,yes,644112,Chrome,111.0,Windows,10,undefined,undefined,1536 x 864,1536 x 864
S013,24,Vrouwelijk,Rechts,3,39,left,no,200,leftarrow,359,true,focus,yes,645255,Chrome,111.0,Windows,10,undefined,undefined,1536 x 864,1536 x 864
S013,24,Vrouwelijk,Rechts,3,40,right,yes,200,undefined,null,true,focus,yes,647288,Chrome,111.0,Windows,10,undefined,undefined,1536 x 864,1536 x 864
S013,24,Vrouwelijk,Rechts,3,41,left,no,250,leftarrow,325,true,focus,yes,648386,Chrome,111.0,Windows,10,undefined,undefined,1536 x 864,1536 x 864
S013,24,Vrouwelijk,Rechts,3,42,right,no,250,rightarrow,410,true,focus,yes,649555,Chrome,111.0,Windows,10,undefined,undefined,1536 x 864,1536 x 864
S013,24,Vrouwelijk,Rechts,3,43,right,no,250,rightarrow,363,true,focus,yes,650701,Chrome,111.0,Windows,10,undefined,undefined,1536 x 864,1536 x 864
S013,24,Vrouwelijk,Rechts,3,44,right,yes,250,rightarrow,415,false,focus,yes,651901,Chrome,111.0,Windows,10,undefined,undefined,1536 x 864,1536 x 864
S013,24,Vrouwelijk,Rechts,3,45,right,no,200,rightarrow,547,true,focus,yes,653229,Chrome,111.0,Windows,10,undefined,undefined,1536 x 864,1536 x 864
S013,24,Vrouwelijk,Rechts,3,46,left,no,200,leftarrow,380,true,focus,yes,654377,Chrome,111.0,Windows,10,undefined,undefined,1536 x 864,1536 x 864
S013,24,Vrouwelijk,Rechts,3,47,left,yes,200,leftarrow,366,false,focus,yes,655516,Chrome,111.0,Windows,10,undefined,undefined,1536 x 864,1536 x 864
S013,24,Vrouwelijk,Rechts,3,48,left,no,150,leftarrow,420,true,focus,yes,656716,Chrome,111.0,Windows,10,undefined,undefined,1536 x 864,1536 x 864
S013,24,Vrouwelijk,Rechts,3,49,left,no,150,leftarrow,658,true,focus,yes,658139,Chrome,111.0,Windows,10,undefined,undefined,1536 x 864,1536 x 864
S013,24,Vrouwelijk,Rechts,3,50,right,no,150,rightarrow,389,true,focus,yes,659297,Chrome,111.0,Windows,10,undefined,undefined,1536 x 864,1536 x 864
S013,24,Vrouwelijk,Rechts,3,51,left,no,150,leftarrow,369,true,focus,yes,660449,Chrome,111.0,Windows,10,undefined,undefined,1536 x 864,1536 x 864
S013,24,Vrouwelijk,Rechts,3,52,right,no,150,rightarrow,412,true,focus,yes,661651,Chrome,111.0,Windows,10,undefined,undefined,1536 x 864,1536 x 864
S013,24,Vrouwelijk,Rechts,3,53,left,yes,150,undefined,null,true,focus,yes,663684,Chrome,111.0,Windows,10,undefined,undefined,1536 x 864,1536 x 864
S013,24,Vrouwelijk,Rechts,3,54,right,no,200,rightarrow,384,true,focus,yes,664853,Chrome,111.0,Windows,10,undefined,undefined,1536 x 864,1536 x 864
S013,24,Vrouwelijk,Rechts,3,55,left,no,200,leftarrow,843,true,focus,yes,666476,Chrome,111.0,Windows,10,undefined,undefined,1536 x 864,1536 x 864
S013,24,Vrouwelijk,Rechts,3,56,right,yes,200,rightarrow,331,false,focus,yes,667569,Chrome,111.0,Windows,10,undefined,undefined,1536 x 864,1536 x 864
S013,24,Vrouwelijk,Rechts,3,57,left,no,150,leftarrow,286,true,focus,yes,668637,Chrome,111.0,Windows,10,undefined,undefined,1536 x 864,1536 x 864
S013,24,Vrouwelijk,Rechts,3,58,left,no,150,leftarrow,443,true,focus,yes,669861,Chrome,111.0,Windows,10,undefined,undefined,1536 x 864,1536 x 864
S013,24,Vrouwelijk,Rechts,3,59,left,yes,150,leftarrow,348,false,focus,yes,670992,Chrome,111.0,Windows,10,undefined,undefined,1536 x 864,1536 x 864
S013,24,Vrouwelijk,Rechts,3,60,right,no,100,rightarrow,339,true,focus,yes,672117,Chrome,111.0,Windows,10,undefined,undefined,1536 x 864,1536 x 864
S013,24,Vrouwelijk,Rechts,3,61,right,yes,100,undefined,null,true,focus,yes,674139,Chrome,111.0,Windows,10,undefined,undefined,1536 x 864,1536 x 864
S013,24,Vrouwelijk,Rechts,3,62,right,no,150,rightarrow,418,true,focus,yes,675342,Chrome,111.0,Windows,10,undefined,undefined,1536 x 864,1536 x 864
S013,24,Vrouwelijk,Rechts,3,63,right,no,150,rightarrow,355,true,focus,yes,676488,Chrome,111.0,Windows,10,undefined,undefined,1536 x 864,1536 x 864
S013,24,Vrouwelijk,Rechts,3,64,left,no,150,leftarrow,760,true,focus,yes,678011,Chrome,111.0,Windows,10,undefined,undefined,1536 x 864,1536 x 864
S013,24,Vrouwelijk,Rechts,3,65,left,no,150,leftarrow,391,true,focus,yes,679187,Chrome,111.0,Windows,10,undefined,undefined,1536 x 864,1536 x 864
S013,24,Vrouwelijk,Rechts,3,66,right,yes,150,undefined,null,true,focus,yes,681229,Chrome,111.0,Windows,10,undefined,undefined,1536 x 864,1536 x 864
S013,24,Vrouwelijk,Rechts,3,67,right,no,200,rightarrow,514,true,focus,yes,682521,Chrome,111.0,Windows,10,undefined,undefined,1536 x 864,1536 x 864
S013,24,Vrouwelijk,Rechts,3,68,right,no,200,rightarrow,364,true,focus,yes,683651,Chrome,111.0,Windows,10,undefined,undefined,1536 x 864,1536 x 864
S013,24,Vrouwelijk,Rechts,3,69,left,no,200,rightarrow,337,false,focus,yes,684773,Chrome,111.0,Windows,10,undefined,undefined,1536 x 864,1536 x 864
S013,24,Vrouwelijk,Rechts,3,70,right,no,200,rightarrow,337,true,focus,yes,685888,Chrome,111.0,Windows,10,undefined,undefined,1536 x 864,1536 x 864
S013,24,Vrouwelijk,Rechts,3,71,left,yes,200,leftarrow,360,false,focus,yes,687028,Chrome,111.0,Windows,10,undefined,undefined,1536 x 864,1536 x 864
S013,24,Vrouwelijk,Rechts,3,72,left,no,150,leftarrow,369,true,focus,yes,688184,Chrome,111.0,Windows,10,undefined,undefined,1536 x 864,1536 x 864
S013,24,Vrouwelijk,Rechts,3,73,right,no,150,rightarrow,388,true,focus,yes,689349,Chrome,111.0,Windows,10,undefined,undefined,1536 x 864,1536 x 864
S013,24,Vrouwelijk,Rechts,3,74,right,yes,150,rightarrow,376,false,focus,yes,690513,Chrome,111.0,Windows,10,undefined,undefined,1536 x 864,1536 x 864
S013,24,Vrouwelijk,Rechts,3,75,left,no,100,leftarrow,584,true,focus,yes,691877,Chrome,111.0,Windows,10,undefined,undefined,1536 x 864,1536 x 864
S013,24,Vrouwelijk,Rechts,3,76,right,no,100,rightarrow,541,true,focus,yes,693201,Chrome,111.0,Windows,10,undefined,undefined,1536 x 864,1536 x 864
S013,24,Vrouwelijk,Rechts,3,77,right,no,100,rightarrow,580,true,focus,yes,694560,Chrome,111.0,Windows,10,undefined,undefined,1536 x 864,1536 x 864
S013,24,Vrouwelijk,Rechts,3,78,left,no,100,leftarrow,379,true,focus,yes,695727,Chrome,111.0,Windows,10,undefined,undefined,1536 x 864,1536 x 864
S013,24,Vrouwelijk,Rechts,3,79,left,yes,100,undefined,null,true,focus,yes,697760,Chrome,111.0,Windows,10,undefined,undefined,1536 x 864,1536 x 864
S013,24,Vrouwelijk,Rechts,3,80,left,no,150,leftarrow,458,true,focus,yes,699005,Chrome,111.0,Windows,10,undefined,undefined,1536 x 864,1536 x 864
S013,24,Vrouwelijk,Rechts,3,81,left,no,150,leftarrow,459,true,focus,yes,700250,Chrome,111.0,Windows,10,undefined,undefined,1536 x 864,1536 x 864
S013,24,Vrouwelijk,Rechts,3,82,right,no,150,rightarrow,636,true,focus,yes,701658,Chrome,111.0,Windows,10,undefined,undefined,1536 x 864,1536 x 864
S013,24,Vrouwelijk,Rechts,3,83,left,no,150,leftarrow,345,true,focus,yes,702783,Chrome,111.0,Windows,10,undefined,undefined,1536 x 864,1536 x 864
S013,24,Vrouwelijk,Rechts,3,84,right,yes,150,rightarrow,352,false,focus,yes,703924,Chrome,111.0,Windows,10,undefined,undefined,1536 x 864,1536 x 864
S013,24,Vrouwelijk,Rechts,3,85,left,no,100,leftarrow,371,true,focus,yes,705082,Chrome,111.0,Windows,10,undefined,undefined,1536 x 864,1536 x 864
S013,24,Vrouwelijk,Rechts,3,86,left,yes,100,undefined,null,true,focus,yes,707117,Chrome,111.0,Windows,10,undefined,undefined,1536 x 864,1536 x 864
S013,24,Vrouwelijk,Rechts,3,87,right,no,150,rightarrow,472,true,focus,yes,708374,Chrome,111.0,Windows,10,undefined,undefined,1536 x 864,1536 x 864
S013,24,Vrouwelijk,Rechts,3,88,right,no,150,rightarrow,901,true,focus,yes,710047,Chrome,111.0,Windows,10,undefined,undefined,1536 x 864,1536 x 864
S013,24,Vrouwelijk,Rechts,3,89,left,no,150,leftarrow,680,true,focus,yes,711501,Chrome,111.0,Windows,10,undefined,undefined,1536 x 864,1536 x 864
S013,24,Vrouwelijk,Rechts,3,90,left,no,150,leftarrow,621,true,focus,yes,712890,Chrome,111.0,Windows,10,undefined,undefined,1536 x 864,1536 x 864
S013,24,Vrouwelijk,Rechts,3,91,right,no,150,rightarrow,551,true,focus,yes,714220,Chrome,111.0,Windows,10,undefined,undefined,1536 x 864,1536 x 864
S013,24,Vrouwelijk,Rechts,3,92,right,no,150,rightarrow,502,true,focus,yes,715497,Chrome,111.0,Windows,10,undefined,undefined,1536 x 864,1536 x 864
S013,24,Vrouwelijk,Rechts,3,93,right,yes,150,undefined,null,true,focus,yes,717533,Chrome,111.0,Windows,10,undefined,undefined,1536 x 864,1536 x 864
S013,24,Vrouwelijk,Rechts,3,94,right,no,200,rightarrow,434,true,focus,yes,718751,Chrome,111.0,Windows,10,undefined,undefined,1536 x 864,1536 x 864
S013,24,Vrouwelijk,Rechts,3,95,left,yes,200,undefined,null,true,focus,yes,720798,Chrome,111.0,Windows,10,undefined,undefined,1536 x 864,1536 x 864
S013,24,Vrouwelijk,Rechts,3,96,left,no,250,leftarrow,509,true,focus,yes,722078,Chrome,111.0,Windows,10,undefined,undefined,1536 x 864,1536 x 864
S013,24,Vrouwelijk,Rechts,3,97,right,no,250,rightarrow,647,true,focus,yes,723503,Chrome,111.0,Windows,10,undefined,undefined,1536 x 864,1536 x 864
S013,24,Vrouwelijk,Rechts,3,98,right,yes,250,rightarrow,383,false,focus,yes,724655,Chrome,111.0,Windows,10,undefined,undefined,1536 x 864,1536 x 864
S013,24,Vrouwelijk,Rechts,3,99,left,yes,200,leftarrow,339,false,focus,yes,725774,Chrome,111.0,Windows,10,undefined,undefined,1536 x 864,1536 x 864
S013,24,Vrouwelijk,Rechts,3,100,left,no,150,leftarrow,523,true,focus,yes,727087,Chrome,111.0,Windows,10,undefined,undefined,1536 x 864,1536 x 864
S013,24,Vrouwelijk,Rechts,3,101,right,no,150,rightarrow,518,true,focus,yes,728389,Chrome,111.0,Windows,10,undefined,undefined,1536 x 864,1536 x 864
S013,24,Vrouwelijk,Rechts,3,102,right,no,150,rightarrow,417,true,focus,yes,729590,Chrome,111.0,Windows,10,undefined,undefined,1536 x 864,1536 x 864
S013,24,Vrouwelijk,Rechts,3,103,left,no,150,leftarrow,904,true,focus,yes,731259,Chrome,111.0,Windows,10,undefined,undefined,1536 x 864,1536 x 864
S013,24,Vrouwelijk,Rechts,3,104,left,no,150,leftarrow,372,true,focus,yes,732420,Chrome,111.0,Windows,10,undefined,undefined,1536 x 864,1536 x 864
S013,24,Vrouwelijk,Rechts,3,105,left,no,150,leftarrow,362,true,focus,yes,733542,Chrome,111.0,Windows,10,undefined,undefined,1536 x 864,1536 x 864
S013,24,Vrouwelijk,Rechts,3,106,right,no,150,rightarrow,382,true,focus,yes,734703,Chrome,111.0,Windows,10,undefined,undefined,1536 x 864,1536 x 864
S013,24,Vrouwelijk,Rechts,3,107,left,yes,150,undefined,null,true,focus,yes,736751,Chrome,111.0,Windows,10,undefined,undefined,1536 x 864,1536 x 864
S013,24,Vrouwelijk,Rechts,3,108,right,no,200,rightarrow,405,true,focus,yes,737940,Chrome,111.0,Windows,10,undefined,undefined,1536 x 864,1536 x 864
S013,24,Vrouwelijk,Rechts,3,109,left,no,200,leftarrow,415,true,focus,yes,739132,Chrome,111.0,Windows,10,undefined,undefined,1536 x 864,1536 x 864
S013,24,Vrouwelijk,Rechts,3,110,right,no,200,rightarrow,397,true,focus,yes,740313,Chrome,111.0,Windows,10,undefined,undefined,1536 x 864,1536 x 864
S013,24,Vrouwelijk,Rechts,3,111,left,no,200,leftarrow,404,true,focus,yes,741489,Chrome,111.0,Windows,10,undefined,undefined,1536 x 864,1536 x 864
S013,24,Vrouwelijk,Rechts,3,112,right,yes,200,rightarrow,460,false,focus,yes,742715,Chrome,111.0,Windows,10,undefined,undefined,1536 x 864,1536 x 864
S013,24,Vrouwelijk,Rechts,3,113,left,yes,150,leftarrow,301,false,focus,yes,743793,Chrome,111.0,Windows,10,undefined,undefined,1536 x 864,1536 x 864
S013,24,Vrouwelijk,Rechts,3,114,left,no,100,leftarrow,357,true,focus,yes,744917,Chrome,111.0,Windows,10,undefined,undefined,1536 x 864,1536 x 864
S013,24,Vrouwelijk,Rechts,3,115,right,no,100,rightarrow,378,true,focus,yes,746083,Chrome,111.0,Windows,10,undefined,undefined,1536 x 864,1536 x 864
S013,24,Vrouwelijk,Rechts,3,116,right,no,100,rightarrow,389,true,focus,yes,747245,Chrome,111.0,Windows,10,undefined,undefined,1536 x 864,1536 x 864
S013,24,Vrouwelijk,Rechts,3,117,right,yes,100,undefined,null,true,focus,yes,749291,Chrome,111.0,Windows,10,undefined,undefined,1536 x 864,1536 x 864
S013,24,Vrouwelijk,Rechts,3,118,right,no,150,rightarrow,406,true,focus,yes,750483,Chrome,111.0,Windows,10,undefined,undefined,1536 x 864,1536 x 864
S013,24,Vrouwelijk,Rechts,3,119,left,no,150,leftarrow,345,true,focus,yes,751614,Chrome,111.0,Windows,10,undefined,undefined,1536 x 864,1536 x 864
S013,24,Vrouwelijk,Rechts,3,120,left,no,150,leftarrow,516,true,focus,yes,752911,Chrome,111.0,Windows,10,undefined,undefined,1536 x 864,1536 x 864
S013,24,Vrouwelijk,Rechts,3,121,right,no,150,rightarrow,337,true,focus,yes,754036,Chrome,111.0,Windows,10,undefined,undefined,1536 x 864,1536 x 864
S013,24,Vrouwelijk,Rechts,3,122,right,no,150,rightarrow,382,true,focus,yes,755196,Chrome,111.0,Windows,10,undefined,undefined,1536 x 864,1536 x 864
S013,24,Vrouwelijk,Rechts,3,123,left,no,150,leftarrow,448,true,focus,yes,756409,Chrome,111.0,Windows,10,undefined,undefined,1536 x 864,1536 x 864
S013,24,Vrouwelijk,Rechts,3,124,left,no,150,leftarrow,377,true,focus,yes,757567,Chrome,111.0,Windows,10,undefined,undefined,1536 x 864,1536 x 864
S013,24,Vrouwelijk,Rechts,3,125,right,yes,150,rightarrow,384,false,focus,yes,758735,Chrome,111.0,Windows,10,undefined,undefined,1536 x 864,1536 x 864
S013,24,Vrouwelijk,Rechts,3,126,left,yes,100,undefined,null,true,focus,yes,760772,Chrome,111.0,Windows,10,undefined,undefined,1536 x 864,1536 x 864
S013,24,Vrouwelijk,Rechts,3,127,right,no,150,rightarrow,392,true,focus,yes,761943,Chrome,111.0,Windows,10,undefined,undefined,1536 x 864,1536 x 864
S013,24,Vrouwelijk,Rechts,3,128,left,no,150,leftarrow,458,true,focus,yes,763188,Chrome,111.0,Windows,10,undefined,undefined,1536 x 864,1536 x 864
S013,24,Vrouwelijk,Rechts,4,1,right,no,150,rightarrow,502,true,focus,yes,783080,Chrome,111.0,Windows,10,undefined,undefined,1536 x 864,1536 x 864
S013,24,Vrouwelijk,Rechts,4,2,right,yes,150,undefined,null,true,focus,yes,785121,Chrome,111.0,Windows,10,undefined,undefined,1536 x 864,1536 x 864
S013,24,Vrouwelijk,Rechts,4,3,left,yes,200,undefined,null,true,focus,yes,787167,Chrome,111.0,Windows,10,undefined,undefined,1536 x 864,1536 x 864
S013,24,Vrouwelijk,Rechts,4,4,right,no,250,rightarrow,336,true,focus,yes,788289,Chrome,111.0,Windows,10,undefined,undefined,1536 x 864,1536 x 864
S013,24,Vrouwelijk,Rechts,4,5,left,no,250,leftarrow,466,true,focus,yes,789531,Chrome,111.0,Windows,10,undefined,undefined,1536 x 864,1536 x 864
S013,24,Vrouwelijk,Rechts,4,6,right,no,250,rightarrow,358,true,focus,yes,790665,Chrome,111.0,Windows,10,undefined,undefined,1536 x 864,1536 x 864
S013,24,Vrouwelijk,Rechts,4,7,left,no,250,leftarrow,418,true,focus,yes,791844,Chrome,111.0,Windows,10,undefined,undefined,1536 x 864,1536 x 864
S013,24,Vrouwelijk,Rechts,4,8,left,no,250,leftarrow,540,true,focus,yes,793149,Chrome,111.0,Windows,10,undefined,undefined,1536 x 864,1536 x 864
S013,24,Vrouwelijk,Rechts,4,9,left,yes,250,leftarrow,416,false,focus,yes,794331,Chrome,111.0,Windows,10,undefined,undefined,1536 x 864,1536 x 864
S013,24,Vrouwelijk,Rechts,4,10,left,no,200,leftarrow,456,true,focus,yes,795564,Chrome,111.0,Windows,10,undefined,undefined,1536 x 864,1536 x 864
S013,24,Vrouwelijk,Rechts,4,11,right,no,200,rightarrow,495,true,focus,yes,796842,Chrome,111.0,Windows,10,undefined,undefined,1536 x 864,1536 x 864
S013,24,Vrouwelijk,Rechts,4,12,right,no,200,rightarrow,441,true,focus,yes,798048,Chrome,111.0,Windows,10,undefined,undefined,1536 x 864,1536 x 864
S013,24,Vrouwelijk,Rechts,4,13,left,no,200,leftarrow,359,true,focus,yes,799189,Chrome,111.0,Windows,10,undefined,undefined,1536 x 864,1536 x 864
S013,24,Vrouwelijk,Rechts,4,14,right,no,200,rightarrow,352,true,focus,yes,800320,Chrome,111.0,Windows,10,undefined,undefined,1536 x 864,1536 x 864
S013,24,Vrouwelijk,Rechts,4,15,right,yes,200,undefined,null,true,focus,yes,802349,Chrome,111.0,Windows,10,undefined,undefined,1536 x 864,1536 x 864
S013,24,Vrouwelijk,Rechts,4,16,left,no,250,leftarrow,305,true,focus,yes,803441,Chrome,111.0,Windows,10,undefined,undefined,1536 x 864,1536 x 864
S013,24,Vrouwelijk,Rechts,4,17,right,no,250,rightarrow,406,true,focus,yes,804626,Chrome,111.0,Windows,10,undefined,undefined,1536 x 864,1536 x 864
S013,24,Vrouwelijk,Rechts,4,18,left,yes,250,leftarrow,421,false,focus,yes,805837,Chrome,111.0,Windows,10,undefined,undefined,1536 x 864,1536 x 864
S013,24,Vrouwelijk,Rechts,4,19,left,no,200,leftarrow,404,true,focus,yes,807027,Chrome,111.0,Windows,10,undefined,undefined,1536 x 864,1536 x 864
S013,24,Vrouwelijk,Rechts,4,20,right,no,200,rightarrow,402,true,focus,yes,808208,Chrome,111.0,Windows,10,undefined,undefined,1536 x 864,1536 x 864
S013,24,Vrouwelijk,Rechts,4,21,left,no,200,leftarrow,459,true,focus,yes,809449,Chrome,111.0,Windows,10,undefined,undefined,1536 x 864,1536 x 864
S013,24,Vrouwelijk,Rechts,4,22,right,yes,200,undefined,null,true,focus,yes,811473,Chrome,111.0,Windows,10,undefined,undefined,1536 x 864,1536 x 864
S013,24,Vrouwelijk,Rechts,4,23,left,no,250,leftarrow,488,true,focus,yes,812735,Chrome,111.0,Windows,10,undefined,undefined,1536 x 864,1536 x 864
S013,24,Vrouwelijk,Rechts,4,24,right,no,250,rightarrow,416,true,focus,yes,813921,Chrome,111.0,Windows,10,undefined,undefined,1536 x 864,1536 x 864
S013,24,Vrouwelijk,Rechts,4,25,left,yes,250,leftarrow,362,false,focus,yes,815069,Chrome,111.0,Windows,10,undefined,undefined,1536 x 864,1536 x 864
S013,24,Vrouwelijk,Rechts,4,26,right,no,200,rightarrow,425,true,focus,yes,816270,Chrome,111.0,Windows,10,undefined,undefined,1536 x 864,1536 x 864
S013,24,Vrouwelijk,Rechts,4,27,left,no,200,leftarrow,452,true,focus,yes,817495,Chrome,111.0,Windows,10,undefined,undefined,1536 x 864,1536 x 864
S013,24,Vrouwelijk,Rechts,4,28,right,no,200,rightarrow,418,true,focus,yes,818673,Chrome,111.0,Windows,10,undefined,undefined,1536 x 864,1536 x 864
S013,24,Vrouwelijk,Rechts,4,29,right,yes,200,undefined,null,true,focus,yes,820719,Chrome,111.0,Windows,10,undefined,undefined,1536 x 864,1536 x 864
S013,24,Vrouwelijk,Rechts,4,30,left,no,250,leftarrow,391,true,focus,yes,821901,Chrome,111.0,Windows,10,undefined,undefined,1536 x 864,1536 x 864
S013,24,Vrouwelijk,Rechts,4,31,left,no,250,leftarrow,460,true,focus,yes,823141,Chrome,111.0,Windows,10,undefined,undefined,1536 x 864,1536 x 864
S013,24,Vrouwelijk,Rechts,4,32,right,no,250,rightarrow,437,true,focus,yes,824362,Chrome,111.0,Windows,10,undefined,undefined,1536 x 864,1536 x 864
S013,24,Vrouwelijk,Rechts,4,33,left,no,250,leftarrow,416,true,focus,yes,825562,Chrome,111.0,Windows,10,undefined,undefined,1536 x 864,1536 x 864
S013,24,Vrouwelijk,Rechts,4,34,left,yes,250,undefined,null,true,focus,yes,827599,Chrome,111.0,Windows,10,undefined,undefined,1536 x 864,1536 x 864
S013,24,Vrouwelijk,Rechts,4,35,right,yes,300,rightarrow,414,false,focus,yes,828786,Chrome,111.0,Windows,10,undefined,undefined,1536 x 864,1536 x 864
S013,24,Vrouwelijk,Rechts,4,36,right,no,250,rightarrow,569,true,focus,yes,830134,Chrome,111.0,Windows,10,undefined,undefined,1536 x 864,1536 x 864
S013,24,Vrouwelijk,Rechts,4,37,right,no,250,rightarrow,407,true,focus,yes,831309,Chrome,111.0,Windows,10,undefined,undefined,1536 x 864,1536 x 864
S013,24,Vrouwelijk,Rechts,4,38,left,no,250,leftarrow,736,true,focus,yes,832816,Chrome,111.0,Windows,10,undefined,undefined,1536 x 864,1536 x 864
S013,24,Vrouwelijk,Rechts,4,39,right,no,250,rightarrow,615,true,focus,yes,834205,Chrome,111.0,Windows,10,undefined,undefined,1536 x 864,1536 x 864
S013,24,Vrouwelijk,Rechts,4,40,left,no,250,leftarrow,365,true,focus,yes,835359,Chrome,111.0,Windows,10,undefined,undefined,1536 x 864,1536 x 864
S013,24,Vrouwelijk,Rechts,4,41,left,yes,250,leftarrow,390,false,focus,yes,836519,Chrome,111.0,Windows,10,undefined,undefined,1536 x 864,1536 x 864
S013,24,Vrouwelijk,Rechts,4,42,right,no,200,rightarrow,425,true,focus,yes,837716,Chrome,111.0,Windows,10,undefined,undefined,1536 x 864,1536 x 864
S013,24,Vrouwelijk,Rechts,4,43,right,no,200,rightarrow,391,true,focus,yes,838895,Chrome,111.0,Windows,10,undefined,undefined,1536 x 864,1536 x 864
S013,24,Vrouwelijk,Rechts,4,44,left,no,200,leftarrow,375,true,focus,yes,840049,Chrome,111.0,Windows,10,undefined,undefined,1536 x 864,1536 x 864
S013,24,Vrouwelijk,Rechts,4,45,left,no,200,leftarrow,382,true,focus,yes,841211,Chrome,111.0,Windows,10,undefined,undefined,1536 x 864,1536 x 864
S013,24,Vrouwelijk,Rechts,4,46,right,yes,200,undefined,null,true,focus,yes,843257,Chrome,111.0,Windows,10,undefined,undefined,1536 x 864,1536 x 864
S013,24,Vrouwelijk,Rechts,4,47,right,no,250,rightarrow,424,true,focus,yes,844467,Chrome,111.0,Windows,10,undefined,undefined,1536 x 864,1536 x 864
S013,24,Vrouwelijk,Rechts,4,48,left,no,250,leftarrow,405,true,focus,yes,845645,Chrome,111.0,Windows,10,undefined,undefined,1536 x 864,1536 x 864
S013,24,Vrouwelijk,Rechts,4,49,right,no,250,rightarrow,402,true,focus,yes,846839,Chrome,111.0,Windows,10,undefined,undefined,1536 x 864,1536 x 864
S013,24,Vrouwelijk,Rechts,4,50,left,no,250,leftarrow,403,true,focus,yes,848006,Chrome,111.0,Windows,10,undefined,undefined,1536 x 864,1536 x 864
S013,24,Vrouwelijk,Rechts,4,51,left,yes,250,leftarrow,394,false,focus,yes,849173,Chrome,111.0,Windows,10,undefined,undefined,1536 x 864,1536 x 864
S013,24,Vrouwelijk,Rechts,4,52,left,no,200,leftarrow,572,true,focus,yes,850527,Chrome,111.0,Windows,10,undefined,undefined,1536 x 864,1536 x 864
S013,24,Vrouwelijk,Rechts,4,53,right,no,200,rightarrow,484,true,focus,yes,851791,Chrome,111.0,Windows,10,undefined,undefined,1536 x 864,1536 x 864
S013,24,Vrouwelijk,Rechts,4,54,right,no,200,rightarrow,393,true,focus,yes,852976,Chrome,111.0,Windows,10,undefined,undefined,1536 x 864,1536 x 864
S013,24,Vrouwelijk,Rechts,4,55,left,no,200,leftarrow,388,true,focus,yes,854148,Chrome,111.0,Windows,10,undefined,undefined,1536 x 864,1536 x 864
S013,24,Vrouwelijk,Rechts,4,56,right,yes,200,undefined,null,true,focus,yes,856186,Chrome,111.0,Windows,10,undefined,undefined,1536 x 864,1536 x 864
S013,24,Vrouwelijk,Rechts,4,57,left,no,250,leftarrow,576,true,focus,yes,857547,Chrome,111.0,Windows,10,undefined,undefined,1536 x 864,1536 x 864
S013,24,Vrouwelijk,Rechts,4,58,left,no,250,leftarrow,383,true,focus,yes,858713,Chrome,111.0,Windows,10,undefined,undefined,1536 x 864,1536 x 864
S013,24,Vrouwelijk,Rechts,4,59,left,yes,250,undefined,null,true,focus,yes,860760,Chrome,111.0,Windows,10,undefined,undefined,1536 x 864,1536 x 864
S013,24,Vrouwelijk,Rechts,4,60,right,no,300,rightarrow,426,true,focus,yes,861973,Chrome,111.0,Windows,10,undefined,undefined,1536 x 864,1536 x 864
S013,24,Vrouwelijk,Rechts,4,61,right,yes,300,rightarrow,398,false,focus,yes,863155,Chrome,111.0,Windows,10,undefined,undefined,1536 x 864,1536 x 864
S013,24,Vrouwelijk,Rechts,4,62,right,no,250,rightarrow,432,true,focus,yes,864370,Chrome,111.0,Windows,10,undefined,undefined,1536 x 864,1536 x 864
S013,24,Vrouwelijk,Rechts,4,63,right,no,250,rightarrow,440,true,focus,yes,865574,Chrome,111.0,Windows,10,undefined,undefined,1536 x 864,1536 x 864
S013,24,Vrouwelijk,Rechts,4,64,left,no,250,leftarrow,379,true,focus,yes,866730,Chrome,111.0,Windows,10,undefined,undefined,1536 x 864,1536 x 864
S013,24,Vrouwelijk,Rechts,4,65,right,no,250,rightarrow,461,true,focus,yes,867973,Chrome,111.0,Windows,10,undefined,undefined,1536 x 864,1536 x 864
S013,24,Vrouwelijk,Rechts,4,66,left,no,250,leftarrow,428,true,focus,yes,869170,Chrome,111.0,Windows,10,undefined,undefined,1536 x 864,1536 x 864
S013,24,Vrouwelijk,Rechts,4,67,right,yes,250,rightarrow,404,false,focus,yes,870356,Chrome,111.0,Windows,10,undefined,undefined,1536 x 864,1536 x 864
S013,24,Vrouwelijk,Rechts,4,68,right,no,200,rightarrow,378,true,focus,yes,871524,Chrome,111.0,Windows,10,undefined,undefined,1536 x 864,1536 x 864
S013,24,Vrouwelijk,Rechts,4,69,right,no,200,rightarrow,370,true,focus,yes,872681,Chrome,111.0,Windows,10,undefined,undefined,1536 x 864,1536 x 864
S013,24,Vrouwelijk,Rechts,4,70,left,no,200,leftarrow,462,true,focus,yes,873905,Chrome,111.0,Windows,10,undefined,undefined,1536 x 864,1536 x 864
S013,24,Vrouwelijk,Rechts,4,71,left,yes,200,leftarrow,370,false,focus,yes,875062,Chrome,111.0,Windows,10,undefined,undefined,1536 x 864,1536 x 864
S013,24,Vrouwelijk,Rechts,4,72,left,no,150,leftarrow,425,true,focus,yes,876279,Chrome,111.0,Windows,10,undefined,undefined,1536 x 864,1536 x 864
S013,24,Vrouwelijk,Rechts,4,73,left,no,150,leftarrow,522,true,focus,yes,877576,Chrome,111.0,Windows,10,undefined,undefined,1536 x 864,1536 x 864
S013,24,Vrouwelijk,Rechts,4,74,right,no,150,leftarrow,495,false,focus,yes,878853,Chrome,111.0,Windows,10,undefined,undefined,1536 x 864,1536 x 864
S013,24,Vrouwelijk,Rechts,4,75,left,yes,150,undefined,null,true,focus,yes,880876,Chrome,111.0,Windows,10,undefined,undefined,1536 x 864,1536 x 864
S013,24,Vrouwelijk,Rechts,4,76,right,no,200,rightarrow,361,true,focus,yes,882011,Chrome,111.0,Windows,10,undefined,undefined,1536 x 864,1536 x 864
S013,24,Vrouwelijk,Rechts,4,77,right,yes,200,rightarrow,352,false,focus,yes,883149,Chrome,111.0,Windows,10,undefined,undefined,1536 x 864,1536 x 864
S013,24,Vrouwelijk,Rechts,4,78,left,no,150,leftarrow,527,true,focus,yes,884455,Chrome,111.0,Windows,10,undefined,undefined,1536 x 864,1536 x 864
S013,24,Vrouwelijk,Rechts,4,79,right,no,150,rightarrow,344,true,focus,yes,885584,Chrome,111.0,Windows,10,undefined,undefined,1536 x 864,1536 x 864
S013,24,Vrouwelijk,Rechts,4,80,left,no,150,leftarrow,437,true,focus,yes,886811,Chrome,111.0,Windows,10,undefined,undefined,1536 x 864,1536 x 864
S013,24,Vrouwelijk,Rechts,4,81,right,no,150,rightarrow,362,true,focus,yes,887936,Chrome,111.0,Windows,10,undefined,undefined,1536 x 864,1536 x 864
S013,24,Vrouwelijk,Rechts,4,82,right,no,150,rightarrow,426,true,focus,yes,889138,Chrome,111.0,Windows,10,undefined,undefined,1536 x 864,1536 x 864
S013,24,Vrouwelijk,Rechts,4,83,left,no,150,leftarrow,418,true,focus,yes,890339,Chrome,111.0,Windows,10,undefined,undefined,1536 x 864,1536 x 864
S013,24,Vrouwelijk,Rechts,4,84,right,yes,150,undefined,null,true,focus,yes,892374,Chrome,111.0,Windows,10,undefined,undefined,1536 x 864,1536 x 864
S013,24,Vrouwelijk,Rechts,4,85,left,yes,200,undefined,null,true,focus,yes,894408,Chrome,111.0,Windows,10,undefined,undefined,1536 x 864,1536 x 864
S013,24,Vrouwelijk,Rechts,4,86,left,no,250,leftarrow,498,true,focus,yes,895681,Chrome,111.0,Windows,10,undefined,undefined,1536 x 864,1536 x 864
S013,24,Vrouwelijk,Rechts,4,87,right,no,250,rightarrow,331,true,focus,yes,896772,Chrome,111.0,Windows,10,undefined,undefined,1536 x 864,1536 x 864
S013,24,Vrouwelijk,Rechts,4,88,left,no,250,leftarrow,439,true,focus,yes,897973,Chrome,111.0,Windows,10,undefined,undefined,1536 x 864,1536 x 864
S013,24,Vrouwelijk,Rechts,4,89,right,no,250,rightarrow,497,true,focus,yes,899248,Chrome,111.0,Windows,10,undefined,undefined,1536 x 864,1536 x 864
S013,24,Vrouwelijk,Rechts,4,90,left,no,250,leftarrow,412,true,focus,yes,900436,Chrome,111.0,Windows,10,undefined,undefined,1536 x 864,1536 x 864
S013,24,Vrouwelijk,Rechts,4,91,left,no,250,leftarrow,702,true,focus,yes,901918,Chrome,111.0,Windows,10,undefined,undefined,1536 x 864,1536 x 864
S013,24,Vrouwelijk,Rechts,4,92,left,no,250,leftarrow,361,true,focus,yes,903046,Chrome,111.0,Windows,10,undefined,undefined,1536 x 864,1536 x 864
S013,24,Vrouwelijk,Rechts,4,93,right,no,250,leftarrow,368,false,focus,yes,904201,Chrome,111.0,Windows,10,undefined,undefined,1536 x 864,1536 x 864
S013,24,Vrouwelijk,Rechts,4,94,right,yes,250,rightarrow,410,false,focus,yes,905390,Chrome,111.0,Windows,10,undefined,undefined,1536 x 864,1536 x 864
S013,24,Vrouwelijk,Rechts,4,95,right,no,200,rightarrow,461,true,focus,yes,906641,Chrome,111.0,Windows,10,undefined,undefined,1536 x 864,1536 x 864
S013,24,Vrouwelijk,Rechts,4,96,left,yes,200,undefined,null,true,focus,yes,908681,Chrome,111.0,Windows,10,undefined,undefined,1536 x 864,1536 x 864
S013,24,Vrouwelijk,Rechts,4,97,left,no,250,leftarrow,423,true,focus,yes,909891,Chrome,111.0,Windows,10,undefined,undefined,1536 x 864,1536 x 864
S013,24,Vrouwelijk,Rechts,4,98,left,no,250,leftarrow,681,true,focus,yes,911342,Chrome,111.0,Windows,10,undefined,undefined,1536 x 864,1536 x 864
S013,24,Vrouwelijk,Rechts,4,99,left,yes,250,leftarrow,456,false,focus,yes,912583,Chrome,111.0,Windows,10,undefined,undefined,1536 x 864,1536 x 864
S013,24,Vrouwelijk,Rechts,4,100,right,no,200,rightarrow,391,true,focus,yes,913744,Chrome,111.0,Windows,10,undefined,undefined,1536 x 864,1536 x 864
S013,24,Vrouwelijk,Rechts,4,101,left,no,200,rightarrow,364,false,focus,yes,914878,Chrome,111.0,Windows,10,undefined,undefined,1536 x 864,1536 x 864
S013,24,Vrouwelijk,Rechts,4,102,right,no,200,rightarrow,345,true,focus,yes,916005,Chrome,111.0,Windows,10,undefined,undefined,1536 x 864,1536 x 864
S013,24,Vrouwelijk,Rechts,4,103,right,yes,200,undefined,null,true,focus,yes,918046,Chrome,111.0,Windows,10,undefined,undefined,1536 x 864,1536 x 864
S013,24,Vrouwelijk,Rechts,4,104,right,no,250,rightarrow,480,true,focus,yes,919301,Chrome,111.0,Windows,10,undefined,undefined,1536 x 864,1536 x 864
S013,24,Vrouwelijk,Rechts,4,105,left,no,250,leftarrow,599,true,focus,yes,920674,Chrome,111.0,Windows,10,undefined,undefined,1536 x 864,1536 x 864
S013,24,Vrouwelijk,Rechts,4,106,right,yes,250,rightarrow,397,false,focus,yes,921842,Chrome,111.0,Windows,10,undefined,undefined,1536 x 864,1536 x 864
S013,24,Vrouwelijk,Rechts,4,107,left,no,200,leftarrow,420,true,focus,yes,923045,Chrome,111.0,Windows,10,undefined,undefined,1536 x 864,1536 x 864
S013,24,Vrouwelijk,Rechts,4,108,right,no,200,rightarrow,436,true,focus,yes,924269,Chrome,111.0,Windows,10,undefined,undefined,1536 x 864,1536 x 864
S013,24,Vrouwelijk,Rechts,4,109,right,no,200,rightarrow,530,true,focus,yes,925560,Chrome,111.0,Windows,10,undefined,undefined,1536 x 864,1536 x 864
S013,24,Vrouwelijk,Rechts,4,110,left,yes,200,undefined,null,true,focus,yes,927589,Chrome,111.0,Windows,10,undefined,undefined,1536 x 864,1536 x 864
S013,24,Vrouwelijk,Rechts,4,111,right,no,250,rightarrow,419,true,focus,yes,928794,Chrome,111.0,Windows,10,undefined,undefined,1536 x 864,1536 x 864
S013,24,Vrouwelijk,Rechts,4,112,left,no,250,leftarrow,377,true,focus,yes,929949,Chrome,111.0,Windows,10,undefined,undefined,1536 x 864,1536 x 864
S013,24,Vrouwelijk,Rechts,4,113,right,no,250,rightarrow,464,true,focus,yes,931200,Chrome,111.0,Windows,10,undefined,undefined,1536 x 864,1536 x 864
S013,24,Vrouwelijk,Rechts,4,114,left,yes,250,leftarrow,414,false,focus,yes,932387,Chrome,111.0,Windows,10,undefined,undefined,1536 x 864,1536 x 864
S013,24,Vrouwelijk,Rechts,4,115,left,no,200,leftarrow,419,true,focus,yes,933591,Chrome,111.0,Windows,10,undefined,undefined,1536 x 864,1536 x 864
S013,24,Vrouwelijk,Rechts,4,116,right,no,200,rightarrow,516,true,focus,yes,934882,Chrome,111.0,Windows,10,undefined,undefined,1536 x 864,1536 x 864
S013,24,Vrouwelijk,Rechts,4,117,left,no,200,leftarrow,362,true,focus,yes,936021,Chrome,111.0,Windows,10,undefined,undefined,1536 x 864,1536 x 864
S013,24,Vrouwelijk,Rechts,4,118,right,yes,200,rightarrow,273,false,focus,yes,937080,Chrome,111.0,Windows,10,undefined,undefined,1536 x 864,1536 x 864
S013,24,Vrouwelijk,Rechts,4,119,left,no,150,leftarrow,333,true,focus,yes,938176,Chrome,111.0,Windows,10,undefined,undefined,1536 x 864,1536 x 864
S013,24,Vrouwelijk,Rechts,4,120,right,no,150,rightarrow,390,true,focus,yes,939351,Chrome,111.0,Windows,10,undefined,undefined,1536 x 864,1536 x 864
S013,24,Vrouwelijk,Rechts,4,121,left,no,150,leftarrow,481,true,focus,yes,940617,Chrome,111.0,Windows,10,undefined,undefined,1536 x 864,1536 x 864
S013,24,Vrouwelijk,Rechts,4,122,left,no,150,leftarrow,522,true,focus,yes,941904,Chrome,111.0,Windows,10,undefined,undefined,1536 x 864,1536 x 864
S013,24,Vrouwelijk,Rechts,4,123,right,no,150,rightarrow,496,true,focus,yes,943184,Chrome,111.0,Windows,10,undefined,undefined,1536 x 864,1536 x 864
S013,24,Vrouwelijk,Rechts,4,124,left,yes,150,undefined,null,true,focus,yes,945207,Chrome,111.0,Windows,10,undefined,undefined,1536 x 864,1536 x 864
S013,24,Vrouwelijk,Rechts,4,125,right,no,200,rightarrow,484,true,focus,yes,946465,Chrome,111.0,Windows,10,undefined,undefined,1536 x 864,1536 x 864
S013,24,Vrouwelijk,Rechts,4,126,right,no,200,rightarrow,411,true,focus,yes,947662,Chrome,111.0,Windows,10,undefined,undefined,1536 x 864,1536 x 864
S013,24,Vrouwelijk,Rechts,4,127,right,yes,200,undefined,null,true,focus,yes,949702,Chrome,111.0,Windows,10,undefined,undefined,1536 x 864,1536 x 864
S013,24,Vrouwelijk,Rechts,4,128,left,no,250,leftarrow,544,true,focus,yes,951019,Chrome,111.0,Windows,10,undefined,undefined,1536 x 864,1536 x 864
S013,24,Vrouwelijk,Rechts,5,1,left,yes,250,leftarrow,501,false,focus,yes,985496,Chrome,111.0,Windows,10,undefined,undefined,1536 x 864,1536 x 864
S013,24,Vrouwelijk,Rechts,5,2,right,no,200,rightarrow,389,true,focus,yes,986661,Chrome,111.0,Windows,10,undefined,undefined,1536 x 864,1536 x 864
S013,24,Vrouwelijk,Rechts,5,3,right,yes,200,rightarrow,354,false,focus,yes,987790,Chrome,111.0,Windows,10,undefined,undefined,1536 x 864,1536 x 864
S013,24,Vrouwelijk,Rechts,5,4,right,no,150,rightarrow,438,true,focus,yes,988991,Chrome,111.0,Windows,10,undefined,undefined,1536 x 864,1536 x 864
S013,24,Vrouwelijk,Rechts,5,5,left,no,150,leftarrow,371,true,focus,yes,990136,Chrome,111.0,Windows,10,undefined,undefined,1536 x 864,1536 x 864
S013,24,Vrouwelijk,Rechts,5,6,left,no,150,leftarrow,395,true,focus,yes,991323,Chrome,111.0,Windows,10,undefined,undefined,1536 x 864,1536 x 864
S013,24,Vrouwelijk,Rechts,5,7,right,no,150,rightarrow,442,true,focus,yes,992551,Chrome,111.0,Windows,10,undefined,undefined,1536 x 864,1536 x 864
S013,24,Vrouwelijk,Rechts,5,8,left,no,150,leftarrow,419,true,focus,yes,993744,Chrome,111.0,Windows,10,undefined,undefined,1536 x 864,1536 x 864
S013,24,Vrouwelijk,Rechts,5,9,left,no,150,leftarrow,391,true,focus,yes,994902,Chrome,111.0,Windows,10,undefined,undefined,1536 x 864,1536 x 864
S013,24,Vrouwelijk,Rechts,5,10,right,yes,150,undefined,null,true,focus,yes,996938,Chrome,111.0,Windows,10,undefined,undefined,1536 x 864,1536 x 864
S013,24,Vrouwelijk,Rechts,5,11,right,no,200,rightarrow,460,true,focus,yes,998180,Chrome,111.0,Windows,10,undefined,undefined,1536 x 864,1536 x 864
S013,24,Vrouwelijk,Rechts,5,12,left,yes,200,undefined,null,true,focus,yes,1000213,Chrome,111.0,Windows,10,undefined,undefined,1536 x 864,1536 x 864
S013,24,Vrouwelijk,Rechts,5,13,left,no,250,leftarrow,402,true,focus,yes,1001386,Chrome,111.0,Windows,10,undefined,undefined,1536 x 864,1536 x 864
S013,24,Vrouwelijk,Rechts,5,14,right,no,250,rightarrow,521,true,focus,yes,1002684,Chrome,111.0,Windows,10,undefined,undefined,1536 x 864,1536 x 864
S013,24,Vrouwelijk,Rechts,5,15,left,no,250,leftarrow,487,true,focus,yes,1003946,Chrome,111.0,Windows,10,undefined,undefined,1536 x 864,1536 x 864
S013,24,Vrouwelijk,Rechts,5,16,right,no,250,rightarrow,398,true,focus,yes,1005133,Chrome,111.0,Windows,10,undefined,undefined,1536 x 864,1536 x 864
S013,24,Vrouwelijk,Rechts,5,17,left,no,250,leftarrow,410,true,focus,yes,1006321,Chrome,111.0,Windows,10,undefined,undefined,1536 x 864,1536 x 864
S013,24,Vrouwelijk,Rechts,5,18,right,no,250,leftarrow,480,false,focus,yes,1007588,Chrome,111.0,Windows,10,undefined,undefined,1536 x 864,1536 x 864
S013,24,Vrouwelijk,Rechts,5,19,right,no,250,rightarrow,456,true,focus,yes,1008819,Chrome,111.0,Windows,10,undefined,undefined,1536 x 864,1536 x 864
S013,24,Vrouwelijk,Rechts,5,20,left,no,250,leftarrow,416,true,focus,yes,1010002,Chrome,111.0,Windows,10,undefined,undefined,1536 x 864,1536 x 864
S013,24,Vrouwelijk,Rechts,5,21,left,yes,250,undefined,null,true,focus,yes,1012024,Chrome,111.0,Windows,10,undefined,undefined,1536 x 864,1536 x 864
S013,24,Vrouwelijk,Rechts,5,22,right,no,300,rightarrow,354,true,focus,yes,1013166,Chrome,111.0,Windows,10,undefined,undefined,1536 x 864,1536 x 864
S013,24,Vrouwelijk,Rechts,5,23,left,no,300,leftarrow,562,true,focus,yes,1014517,Chrome,111.0,Windows,10,undefined,undefined,1536 x 864,1536 x 864
S013,24,Vrouwelijk,Rechts,5,24,right,yes,300,undefined,null,true,focus,yes,1016559,Chrome,111.0,Windows,10,undefined,undefined,1536 x 864,1536 x 864
S013,24,Vrouwelijk,Rechts,5,25,left,no,350,leftarrow,407,true,focus,yes,1017737,Chrome,111.0,Windows,10,undefined,undefined,1536 x 864,1536 x 864
S013,24,Vrouwelijk,Rechts,5,26,left,yes,350,undefined,null,true,focus,yes,1019756,Chrome,111.0,Windows,10,undefined,undefined,1536 x 864,1536 x 864
S013,24,Vrouwelijk,Rechts,5,27,right,no,400,rightarrow,347,true,focus,yes,1020892,Chrome,111.0,Windows,10,undefined,undefined,1536 x 864,1536 x 864
S013,24,Vrouwelijk,Rechts,5,28,right,yes,400,rightarrow,430,false,focus,yes,1022105,Chrome,111.0,Windows,10,undefined,undefined,1536 x 864,1536 x 864
S013,24,Vrouwelijk,Rechts,5,29,left,no,350,leftarrow,365,true,focus,yes,1023248,Chrome,111.0,Windows,10,undefined,undefined,1536 x 864,1536 x 864
S013,24,Vrouwelijk,Rechts,5,30,right,no,350,rightarrow,330,true,focus,yes,1024359,Chrome,111.0,Windows,10,undefined,undefined,1536 x 864,1536 x 864
S013,24,Vrouwelijk,Rechts,5,31,right,no,350,rightarrow,389,true,focus,yes,1025536,Chrome,111.0,Windows,10,undefined,undefined,1536 x 864,1536 x 864
S013,24,Vrouwelijk,Rechts,5,32,left,no,350,leftarrow,327,true,focus,yes,1026639,Chrome,111.0,Windows,10,undefined,undefined,1536 x 864,1536 x 864
S013,24,Vrouwelijk,Rechts,5,33,left,no,350,leftarrow,489,true,focus,yes,1027916,Chrome,111.0,Windows,10,undefined,undefined,1536 x 864,1536 x 864
S013,24,Vrouwelijk,Rechts,5,34,right,no,350,rightarrow,479,true,focus,yes,1029168,Chrome,111.0,Windows,10,undefined,undefined,1536 x 864,1536 x 864
S013,24,Vrouwelijk,Rechts,5,35,right,no,350,rightarrow,432,true,focus,yes,1030383,Chrome,111.0,Windows,10,undefined,undefined,1536 x 864,1536 x 864
S013,24,Vrouwelijk,Rechts,5,36,right,no,350,rightarrow,408,true,focus,yes,1031584,Chrome,111.0,Windows,10,undefined,undefined,1536 x 864,1536 x 864
S013,24,Vrouwelijk,Rechts,5,37,left,no,350,leftarrow,547,true,focus,yes,1032900,Chrome,111.0,Windows,10,undefined,undefined,1536 x 864,1536 x 864
S013,24,Vrouwelijk,Rechts,5,38,left,yes,350,leftarrow,426,false,focus,yes,1034101,Chrome,111.0,Windows,10,undefined,undefined,1536 x 864,1536 x 864
S013,24,Vrouwelijk,Rechts,5,39,left,no,300,leftarrow,397,true,focus,yes,1035285,Chrome,111.0,Windows,10,undefined,undefined,1536 x 864,1536 x 864
S013,24,Vrouwelijk,Rechts,5,40,right,yes,300,rightarrow,356,false,focus,yes,1036409,Chrome,111.0,Windows,10,undefined,undefined,1536 x 864,1536 x 864
S013,24,Vrouwelijk,Rechts,5,41,right,yes,250,undefined,null,true,focus,yes,1038442,Chrome,111.0,Windows,10,undefined,undefined,1536 x 864,1536 x 864
S013,24,Vrouwelijk,Rechts,5,42,right,no,300,rightarrow,441,true,focus,yes,1039671,Chrome,111.0,Windows,10,undefined,undefined,1536 x 864,1536 x 864
S013,24,Vrouwelijk,Rechts,5,43,left,no,300,leftarrow,394,true,focus,yes,1040850,Chrome,111.0,Windows,10,undefined,undefined,1536 x 864,1536 x 864
S013,24,Vrouwelijk,Rechts,5,44,right,no,300,rightarrow,372,true,focus,yes,1042002,Chrome,111.0,Windows,10,undefined,undefined,1536 x 864,1536 x 864
S013,24,Vrouwelijk,Rechts,5,45,left,no,300,leftarrow,401,true,focus,yes,1043164,Chrome,111.0,Windows,10,undefined,undefined,1536 x 864,1536 x 864
S013,24,Vrouwelijk,Rechts,5,46,right,no,300,rightarrow,701,true,focus,yes,1044641,Chrome,111.0,Windows,10,undefined,undefined,1536 x 864,1536 x 864
S013,24,Vrouwelijk,Rechts,5,47,left,no,300,leftarrow,525,true,focus,yes,1045941,Chrome,111.0,Windows,10,undefined,undefined,1536 x 864,1536 x 864
S013,24,Vrouwelijk,Rechts,5,48,left,yes,300,leftarrow,421,false,focus,yes,1047147,Chrome,111.0,Windows,10,undefined,undefined,1536 x 864,1536 x 864
S013,24,Vrouwelijk,Rechts,5,49,right,no,250,rightarrow,363,true,focus,yes,1048282,Chrome,111.0,Windows,10,undefined,undefined,1536 x 864,1536 x 864
S013,24,Vrouwelijk,Rechts,5,50,right,yes,250,rightarrow,393,false,focus,yes,1049461,Chrome,111.0,Windows,10,undefined,undefined,1536 x 864,1536 x 864
S013,24,Vrouwelijk,Rechts,5,51,left,no,200,leftarrow,482,true,focus,yes,1050725,Chrome,111.0,Windows,10,undefined,undefined,1536 x 864,1536 x 864
S013,24,Vrouwelijk,Rechts,5,52,right,no,200,rightarrow,449,true,focus,yes,1051947,Chrome,111.0,Windows,10,undefined,undefined,1536 x 864,1536 x 864
S013,24,Vrouwelijk,Rechts,5,53,left,no,200,leftarrow,436,true,focus,yes,1053162,Chrome,111.0,Windows,10,undefined,undefined,1536 x 864,1536 x 864
S013,24,Vrouwelijk,Rechts,5,54,left,yes,200,undefined,null,true,focus,yes,1055205,Chrome,111.0,Windows,10,undefined,undefined,1536 x 864,1536 x 864
S013,24,Vrouwelijk,Rechts,5,55,left,no,250,leftarrow,574,true,focus,yes,1056555,Chrome,111.0,Windows,10,undefined,undefined,1536 x 864,1536 x 864
S013,24,Vrouwelijk,Rechts,5,56,right,no,250,rightarrow,599,true,focus,yes,1057930,Chrome,111.0,Windows,10,undefined,undefined,1536 x 864,1536 x 864
S013,24,Vrouwelijk,Rechts,5,57,right,no,250,rightarrow,518,true,focus,yes,1059226,Chrome,111.0,Windows,10,undefined,undefined,1536 x 864,1536 x 864
S013,24,Vrouwelijk,Rechts,5,58,right,yes,250,undefined,null,true,focus,yes,1061267,Chrome,111.0,Windows,10,undefined,undefined,1536 x 864,1536 x 864
S013,24,Vrouwelijk,Rechts,5,59,left,no,300,leftarrow,345,true,focus,yes,1062397,Chrome,111.0,Windows,10,undefined,undefined,1536 x 864,1536 x 864
S013,24,Vrouwelijk,Rechts,5,60,left,yes,300,undefined,null,true,focus,yes,1064443,Chrome,111.0,Windows,10,undefined,undefined,1536 x 864,1536 x 864
S013,24,Vrouwelijk,Rechts,5,61,left,no,350,leftarrow,429,true,focus,yes,1065652,Chrome,111.0,Windows,10,undefined,undefined,1536 x 864,1536 x 864
S013,24,Vrouwelijk,Rechts,5,62,right,no,350,rightarrow,619,true,focus,yes,1067057,Chrome,111.0,Windows,10,undefined,undefined,1536 x 864,1536 x 864
S013,24,Vrouwelijk,Rechts,5,63,left,no,350,leftarrow,310,true,focus,yes,1068151,Chrome,111.0,Windows,10,undefined,undefined,1536 x 864,1536 x 864
S013,24,Vrouwelijk,Rechts,5,64,right,no,350,rightarrow,590,true,focus,yes,1069531,Chrome,111.0,Windows,10,undefined,undefined,1536 x 864,1536 x 864
S013,24,Vrouwelijk,Rechts,5,65,right,yes,350,rightarrow,364,false,focus,yes,1070660,Chrome,111.0,Windows,10,undefined,undefined,1536 x 864,1536 x 864
S013,24,Vrouwelijk,Rechts,5,66,left,yes,300,leftarrow,403,false,focus,yes,1071851,Chrome,111.0,Windows,10,undefined,undefined,1536 x 864,1536 x 864
S013,24,Vrouwelijk,Rechts,5,67,right,no,250,rightarrow,470,true,focus,yes,1073097,Chrome,111.0,Windows,10,undefined,undefined,1536 x 864,1536 x 864
S013,24,Vrouwelijk,Rechts,5,68,right,no,250,rightarrow,408,true,focus,yes,1074292,Chrome,111.0,Windows,10,undefined,undefined,1536 x 864,1536 x 864
S013,24,Vrouwelijk,Rechts,5,69,left,no,250,leftarrow,432,true,focus,yes,1075511,Chrome,111.0,Windows,10,undefined,undefined,1536 x 864,1536 x 864
S013,24,Vrouwelijk,Rechts,5,70,right,no,250,rightarrow,377,true,focus,yes,1076670,Chrome,111.0,Windows,10,undefined,undefined,1536 x 864,1536 x 864
S013,24,Vrouwelijk,Rechts,5,71,left,no,250,leftarrow,393,true,focus,yes,1077852,Chrome,111.0,Windows,10,undefined,undefined,1536 x 864,1536 x 864
S013,24,Vrouwelijk,Rechts,5,72,left,no,250,leftarrow,354,true,focus,yes,1078980,Chrome,111.0,Windows,10,undefined,undefined,1536 x 864,1536 x 864
S013,24,Vrouwelijk,Rechts,5,73,left,no,250,rightarrow,327,false,focus,yes,1080095,Chrome,111.0,Windows,10,undefined,undefined,1536 x 864,1536 x 864
S013,24,Vrouwelijk,Rechts,5,74,left,yes,250,leftarrow,405,false,focus,yes,1081264,Chrome,111.0,Windows,10,undefined,undefined,1536 x 864,1536 x 864
S013,24,Vrouwelijk,Rechts,5,75,left,no,200,rightarrow,272,false,focus,yes,1082300,Chrome,111.0,Windows,10,undefined,undefined,1536 x 864,1536 x 864
S013,24,Vrouwelijk,Rechts,5,76,right,no,200,rightarrow,500,true,focus,yes,1083576,Chrome,111.0,Windows,10,undefined,undefined,1536 x 864,1536 x 864
S013,24,Vrouwelijk,Rechts,5,77,left,no,200,leftarrow,805,true,focus,yes,1085169,Chrome,111.0,Windows,10,undefined,undefined,1536 x 864,1536 x 864
S013,24,Vrouwelijk,Rechts,5,78,right,no,200,undefined,null,false,focus,yes,1087205,Chrome,111.0,Windows,10,undefined,undefined,1536 x 864,1536 x 864
S013,24,Vrouwelijk,Rechts,5,79,right,no,200,rightarrow,503,true,focus,yes,1088737,Chrome,111.0,Windows,10,undefined,undefined,1536 x 864,1536 x 864
S013,24,Vrouwelijk,Rechts,5,80,right,yes,200,undefined,null,true,focus,yes,1090786,Chrome,111.0,Windows,10,undefined,undefined,1536 x 864,1536 x 864
S013,24,Vrouwelijk,Rechts,5,81,right,yes,250,rightarrow,430,false,focus,yes,1092272,Chrome,111.0,Windows,10,undefined,undefined,1536 x 864,1536 x 864
S013,24,Vrouwelijk,Rechts,5,82,left,no,200,leftarrow,388,true,focus,yes,1093440,Chrome,111.0,Windows,10,undefined,undefined,1536 x 864,1536 x 864
S013,24,Vrouwelijk,Rechts,5,83,right,no,200,leftarrow,427,false,focus,yes,1094649,Chrome,111.0,Windows,10,undefined,undefined,1536 x 864,1536 x 864
S013,24,Vrouwelijk,Rechts,5,84,right,no,200,rightarrow,510,true,focus,yes,1095940,Chrome,111.0,Windows,10,undefined,undefined,1536 x 864,1536 x 864
S013,24,Vrouwelijk,Rechts,5,85,left,no,200,leftarrow,515,true,focus,yes,1097235,Chrome,111.0,Windows,10,undefined,undefined,1536 x 864,1536 x 864
S013,24,Vrouwelijk,Rechts,5,86,left,yes,200,undefined,null,true,focus,yes,1099262,Chrome,111.0,Windows,10,undefined,undefined,1536 x 864,1536 x 864
S013,24,Vrouwelijk,Rechts,5,87,left,no,250,leftarrow,440,true,focus,yes,1100491,Chrome,111.0,Windows,10,undefined,undefined,1536 x 864,1536 x 864
S013,24,Vrouwelijk,Rechts,5,88,right,no,250,rightarrow,575,true,focus,yes,1101851,Chrome,111.0,Windows,10,undefined,undefined,1536 x 864,1536 x 864
S013,24,Vrouwelijk,Rechts,5,89,left,no,250,leftarrow,704,true,focus,yes,1103333,Chrome,111.0,Windows,10,undefined,undefined,1536 x 864,1536 x 864
S013,24,Vrouwelijk,Rechts,5,90,left,no,250,leftarrow,472,true,focus,yes,1104580,Chrome,111.0,Windows,10,undefined,undefined,1536 x 864,1536 x 864
S013,24,Vrouwelijk,Rechts,5,91,left,yes,250,leftarrow,456,false,focus,yes,1105824,Chrome,111.0,Windows,10,undefined,undefined,1536 x 864,1536 x 864
S013,24,Vrouwelijk,Rechts,5,92,right,no,200,rightarrow,638,true,focus,yes,1107248,Chrome,111.0,Windows,10,undefined,undefined,1536 x 864,1536 x 864
S013,24,Vrouwelijk,Rechts,5,93,right,yes,200,undefined,null,true,focus,yes,1109287,Chrome,111.0,Windows,10,undefined,undefined,1536 x 864,1536 x 864
S013,24,Vrouwelijk,Rechts,5,94,right,no,250,rightarrow,388,true,focus,yes,1110461,Chrome,111.0,Windows,10,undefined,undefined,1536 x 864,1536 x 864
S013,24,Vrouwelijk,Rechts,5,95,right,no,250,rightarrow,408,true,focus,yes,1111634,Chrome,111.0,Windows,10,undefined,undefined,1536 x 864,1536 x 864
S013,24,Vrouwelijk,Rechts,5,96,left,no,250,leftarrow,418,true,focus,yes,1112834,Chrome,111.0,Windows,10,undefined,undefined,1536 x 864,1536 x 864
S013,24,Vrouwelijk,Rechts,5,97,left,no,250,leftarrow,396,true,focus,yes,1113994,Chrome,111.0,Windows,10,undefined,undefined,1536 x 864,1536 x 864
S013,24,Vrouwelijk,Rechts,5,98,right,yes,250,undefined,null,true,focus,yes,1116044,Chrome,111.0,Windows,10,undefined,undefined,1536 x 864,1536 x 864
S013,24,Vrouwelijk,Rechts,5,99,left,no,300,leftarrow,687,true,focus,yes,1117517,Chrome,111.0,Windows,10,undefined,undefined,1536 x 864,1536 x 864
S013,24,Vrouwelijk,Rechts,5,100,right,no,300,rightarrow,527,true,focus,yes,1118809,Chrome,111.0,Windows,10,undefined,undefined,1536 x 864,1536 x 864
S013,24,Vrouwelijk,Rechts,5,101,right,no,300,rightarrow,651,true,focus,yes,1120236,Chrome,111.0,Windows,10,undefined,undefined,1536 x 864,1536 x 864
S013,24,Vrouwelijk,Rechts,5,102,right,no,300,rightarrow,525,true,focus,yes,1121531,Chrome,111.0,Windows,10,undefined,undefined,1536 x 864,1536 x 864
S013,24,Vrouwelijk,Rechts,5,103,left,no,300,leftarrow,372,true,focus,yes,1122687,Chrome,111.0,Windows,10,undefined,undefined,1536 x 864,1536 x 864
S013,24,Vrouwelijk,Rechts,5,104,left,yes,300,undefined,null,true,focus,yes,1124737,Chrome,111.0,Windows,10,undefined,undefined,1536 x 864,1536 x 864
S013,24,Vrouwelijk,Rechts,5,105,right,no,350,rightarrow,364,true,focus,yes,1125888,Chrome,111.0,Windows,10,undefined,undefined,1536 x 864,1536 x 864
S013,24,Vrouwelijk,Rechts,5,106,left,no,350,leftarrow,552,true,focus,yes,1127208,Chrome,111.0,Windows,10,undefined,undefined,1536 x 864,1536 x 864
S013,24,Vrouwelijk,Rechts,5,107,left,no,350,leftarrow,477,true,focus,yes,1128471,Chrome,111.0,Windows,10,undefined,undefined,1536 x 864,1536 x 864
S013,24,Vrouwelijk,Rechts,5,108,right,no,350,rightarrow,909,true,focus,yes,1130161,Chrome,111.0,Windows,10,undefined,undefined,1536 x 864,1536 x 864
S013,24,Vrouwelijk,Rechts,5,109,right,yes,350,rightarrow,497,false,focus,yes,1131436,Chrome,111.0,Windows,10,undefined,undefined,1536 x 864,1536 x 864
S013,24,Vrouwelijk,Rechts,5,110,left,no,300,leftarrow,633,true,focus,yes,1132846,Chrome,111.0,Windows,10,undefined,undefined,1536 x 864,1536 x 864
S013,24,Vrouwelijk,Rechts,5,111,right,no,300,rightarrow,392,true,focus,yes,1134025,Chrome,111.0,Windows,10,undefined,undefined,1536 x 864,1536 x 864
S013,24,Vrouwelijk,Rechts,5,112,left,yes,300,undefined,null,true,focus,yes,1136070,Chrome,111.0,Windows,10,undefined,undefined,1536 x 864,1536 x 864
S013,24,Vrouwelijk,Rechts,5,113,right,yes,350,rightarrow,432,false,focus,yes,1137274,Chrome,111.0,Windows,10,undefined,undefined,1536 x 864,1536 x 864
S013,24,Vrouwelijk,Rechts,5,114,left,yes,300,undefined,null,true,focus,yes,1139299,Chrome,111.0,Windows,10,undefined,undefined,1536 x 864,1536 x 864
S013,24,Vrouwelijk,Rechts,5,115,left,no,350,leftarrow,653,true,focus,yes,1140726,Chrome,111.0,Windows,10,undefined,undefined,1536 x 864,1536 x 864
S013,24,Vrouwelijk,Rechts,5,116,right,no,350,rightarrow,636,true,focus,yes,1142139,Chrome,111.0,Windows,10,undefined,undefined,1536 x 864,1536 x 864
S013,24,Vrouwelijk,Rechts,5,117,right,no,350,rightarrow,590,true,focus,yes,1143496,Chrome,111.0,Windows,10,undefined,undefined,1536 x 864,1536 x 864
S013,24,Vrouwelijk,Rechts,5,118,left,no,350,leftarrow,494,true,focus,yes,1144773,Chrome,111.0,Windows,10,undefined,undefined,1536 x 864,1536 x 864
S013,24,Vrouwelijk,Rechts,5,119,right,no,350,rightarrow,396,true,focus,yes,1145936,Chrome,111.0,Windows,10,undefined,undefined,1536 x 864,1536 x 864
S013,24,Vrouwelijk,Rechts,5,120,left,no,350,leftarrow,439,true,focus,yes,1147162,Chrome,111.0,Windows,10,undefined,undefined,1536 x 864,1536 x 864
S013,24,Vrouwelijk,Rechts,5,121,left,yes,350,leftarrow,387,false,focus,yes,1148321,Chrome,111.0,Windows,10,undefined,undefined,1536 x 864,1536 x 864
S013,24,Vrouwelijk,Rechts,5,122,right,no,300,rightarrow,380,true,focus,yes,1149479,Chrome,111.0,Windows,10,undefined,undefined,1536 x 864,1536 x 864
S013,24,Vrouwelijk,Rechts,5,123,left,no,300,leftarrow,550,true,focus,yes,1150799,Chrome,111.0,Windows,10,undefined,undefined,1536 x 864,1536 x 864
S013,24,Vrouwelijk,Rechts,5,124,left,no,300,leftarrow,424,true,focus,yes,1152012,Chrome,111.0,Windows,10,undefined,undefined,1536 x 864,1536 x 864
S013,24,Vrouwelijk,Rechts,5,125,right,no,300,rightarrow,426,true,focus,yes,1153220,Chrome,111.0,Windows,10,undefined,undefined,1536 x 864,1536 x 864
S013,24,Vrouwelijk,Rechts,5,126,left,no,300,leftarrow,389,true,focus,yes,1154371,Chrome,111.0,Windows,10,undefined,undefined,1536 x 864,1536 x 864
S013,24,Vrouwelijk,Rechts,5,127,right,yes,300,rightarrow,382,false,focus,yes,1155529,Chrome,111.0,Windows,10,undefined,undefined,1536 x 864,1536 x 864
S013,24,Vrouwelijk,Rechts,5,128,right,no,250,rightarrow,395,true,focus,yes,1156711,Chrome,111.0,Windows,10,undefined,undefined,1536 x 864,1536 x 864
S013,24,Vrouwelijk,Rechts,6,1,left,yes,250,leftarrow,438,false,focus,yes,1175415,Chrome,111.0,Windows,10,undefined,undefined,1536 x 864,1536 x 864
S013,24,Vrouwelijk,Rechts,6,2,left,no,200,leftarrow,346,true,focus,yes,1176548,Chrome,111.0,Windows,10,undefined,undefined,1536 x 864,1536 x 864
S013,24,Vrouwelijk,Rechts,6,3,left,no,200,leftarrow,397,true,focus,yes,1177730,Chrome,111.0,Windows,10,undefined,undefined,1536 x 864,1536 x 864
S013,24,Vrouwelijk,Rechts,6,4,left,no,200,leftarrow,391,true,focus,yes,1178905,Chrome,111.0,Windows,10,undefined,undefined,1536 x 864,1536 x 864
S013,24,Vrouwelijk,Rechts,6,5,right,no,200,rightarrow,429,true,focus,yes,1180126,Chrome,111.0,Windows,10,undefined,undefined,1536 x 864,1536 x 864
S013,24,Vrouwelijk,Rechts,6,6,right,no,200,rightarrow,440,true,focus,yes,1181594,Chrome,111.0,Windows,10,undefined,undefined,1536 x 864,1536 x 864
S013,24,Vrouwelijk,Rechts,6,7,right,no,200,rightarrow,413,true,focus,yes,1183306,Chrome,111.0,Windows,10,undefined,undefined,1536 x 864,1536 x 864
S013,24,Vrouwelijk,Rechts,6,8,right,yes,200,undefined,null,true,focus,yes,1185346,Chrome,111.0,Windows,10,undefined,undefined,1536 x 864,1536 x 864
S013,24,Vrouwelijk,Rechts,6,9,left,no,250,leftarrow,457,true,focus,yes,1186590,Chrome,111.0,Windows,10,undefined,undefined,1536 x 864,1536 x 864
S013,24,Vrouwelijk,Rechts,6,10,right,yes,250,undefined,null,true,focus,yes,1188638,Chrome,111.0,Windows,10,undefined,undefined,1536 x 864,1536 x 864
S013,24,Vrouwelijk,Rechts,6,11,left,no,300,leftarrow,364,true,focus,yes,1189789,Chrome,111.0,Windows,10,undefined,undefined,1536 x 864,1536 x 864
S013,24,Vrouwelijk,Rechts,6,12,right,no,300,rightarrow,457,true,focus,yes,1191014,Chrome,111.0,Windows,10,undefined,undefined,1536 x 864,1536 x 864
S013,24,Vrouwelijk,Rechts,6,13,left,no,300,leftarrow,396,true,focus,yes,1192197,Chrome,111.0,Windows,10,undefined,undefined,1536 x 864,1536 x 864
S013,24,Vrouwelijk,Rechts,6,14,right,no,300,rightarrow,476,true,focus,yes,1193461,Chrome,111.0,Windows,10,undefined,undefined,1536 x 864,1536 x 864
S013,24,Vrouwelijk,Rechts,6,15,left,yes,300,leftarrow,343,false,focus,yes,1194570,Chrome,111.0,Windows,10,undefined,undefined,1536 x 864,1536 x 864
S013,24,Vrouwelijk,Rechts,6,16,right,no,250,leftarrow,317,false,focus,yes,1195649,Chrome,111.0,Windows,10,undefined,undefined,1536 x 864,1536 x 864
S013,24,Vrouwelijk,Rechts,6,17,left,no,250,leftarrow,418,true,focus,yes,1196849,Chrome,111.0,Windows,10,undefined,undefined,1536 x 864,1536 x 864
S013,24,Vrouwelijk,Rechts,6,18,right,yes,250,undefined,null,true,focus,yes,1198887,Chrome,111.0,Windows,10,undefined,undefined,1536 x 864,1536 x 864
S013,24,Vrouwelijk,Rechts,6,19,left,no,300,leftarrow,492,true,focus,yes,1200151,Chrome,111.0,Windows,10,undefined,undefined,1536 x 864,1536 x 864
S013,24,Vrouwelijk,Rechts,6,20,left,yes,300,undefined,null,true,focus,yes,1202200,Chrome,111.0,Windows,10,undefined,undefined,1536 x 864,1536 x 864
S013,24,Vrouwelijk,Rechts,6,21,right,no,350,rightarrow,398,true,focus,yes,1203387,Chrome,111.0,Windows,10,undefined,undefined,1536 x 864,1536 x 864
S013,24,Vrouwelijk,Rechts,6,22,right,no,350,rightarrow,350,true,focus,yes,1204530,Chrome,111.0,Windows,10,undefined,undefined,1536 x 864,1536 x 864
S013,24,Vrouwelijk,Rechts,6,23,right,no,350,rightarrow,532,true,focus,yes,1205832,Chrome,111.0,Windows,10,undefined,undefined,1536 x 864,1536 x 864
S013,24,Vrouwelijk,Rechts,6,24,left,no,350,leftarrow,421,true,focus,yes,1207038,Chrome,111.0,Windows,10,undefined,undefined,1536 x 864,1536 x 864
S013,24,Vrouwelijk,Rechts,6,25,left,no,350,leftarrow,388,true,focus,yes,1208207,Chrome,111.0,Windows,10,undefined,undefined,1536 x 864,1536 x 864
S013,24,Vrouwelijk,Rechts,6,26,left,yes,350,leftarrow,393,false,focus,yes,1209369,Chrome,111.0,Windows,10,undefined,undefined,1536 x 864,1536 x 864
S013,24,Vrouwelijk,Rechts,6,27,left,no,300,leftarrow,500,true,focus,yes,1210643,Chrome,111.0,Windows,10,undefined,undefined,1536 x 864,1536 x 864
S013,24,Vrouwelijk,Rechts,6,28,right,no,300,leftarrow,343,false,focus,yes,1211764,Chrome,111.0,Windows,10,undefined,undefined,1536 x 864,1536 x 864
S013,24,Vrouwelijk,Rechts,6,29,left,no,300,leftarrow,426,true,focus,yes,1212954,Chrome,111.0,Windows,10,undefined,undefined,1536 x 864,1536 x 864
S013,24,Vrouwelijk,Rechts,6,30,right,no,300,rightarrow,527,true,focus,yes,1214268,Chrome,111.0,Windows,10,undefined,undefined,1536 x 864,1536 x 864
S013,24,Vrouwelijk,Rechts,6,31,right,no,300,rightarrow,442,true,focus,yes,1215472,Chrome,111.0,Windows,10,undefined,undefined,1536 x 864,1536 x 864
S013,24,Vrouwelijk,Rechts,6,32,right,yes,300,rightarrow,437,false,focus,yes,1216684,Chrome,111.0,Windows,10,undefined,undefined,1536 x 864,1536 x 864
