participantID;age;gender;handedness;block_i;trial_i;stim;signal;SSD;response;rt;correct;focus;Fullscreen;time_elapsed;browser_name;browser_version;os_name;os_version;tablet;mobile;screen_resolution;window_resolution
H037;50;Mannelijk;Links;0;1;left;no;200;leftarrow;673;true;focus;yes;152097;Chrome;112.0;Windows;10;undefined;undefined;1366 x 768;1366 x 768
H037;50;Mannelijk;Links;0;2;right;yes;200;rightarrow;514;false;focus;yes;154159;Chrome;112.0;Windows;10;undefined;undefined;1366 x 768;1366 x 768
H037;50;Mannelijk;Links;0;3;left;no;150;leftarrow;410;true;focus;yes;156093;Chrome;112.0;Windows;10;undefined;undefined;1366 x 768;1366 x 768
H037;50;Mannelijk;Links;0;4;right;no;150;rightarrow;482;true;focus;yes;158109;Chrome;112.0;Windows;10;undefined;undefined;1366 x 768;1366 x 768
H037;50;Mannelijk;Links;0;5;left;yes;150;leftarrow;535;false;focus;yes;160165;Chrome;112.0;Windows;10;undefined;undefined;1366 x 768;1366 x 768
H037;50;Mannelijk;Links;0;6;left;no;100;leftarrow;545;true;focus;yes;162241;Chrome;112.0;Windows;10;undefined;undefined;1366 x 768;1366 x 768
H037;50;Mannelijk;Links;0;7;right;no;100;rightarrow;569;true;focus;yes;164338;Chrome;112.0;Windows;10;undefined;undefined;1366 x 768;1366 x 768
H037;50;Mannelijk;Links;0;8;right;no;100;rightarrow;565;true;focus;yes;166430;Chrome;112.0;Windows;10;undefined;undefined;1366 x 768;1366 x 768
H037;50;Mannelijk;Links;1;1;left;yes;100;undefined;null;true;focus;yes;187628;Chrome;112.0;Windows;10;undefined;undefined;1366 x 768;1366 x 768
H037;50;Mannelijk;Links;1;2;left;no;150;leftarrow;559;true;focus;yes;188974;Chrome;112.0;Windows;10;undefined;undefined;1366 x 768;1366 x 768
H037;50;Mannelijk;Links;1;3;left;no;150;leftarrow;610;true;focus;yes;190348;Chrome;112.0;Windows;10;undefined;undefined;1366 x 768;1366 x 768
H037;50;Mannelijk;Links;1;4;right;yes;150;undefined;null;true;focus;yes;192384;Chrome;112.0;Windows;10;undefined;undefined;1366 x 768;1366 x 768
H037;50;Mannelijk;Links;1;5;left;no;200;leftarrow;535;true;focus;yes;193697;Chrome;112.0;Windows;10;undefined;undefined;1366 x 768;1366 x 768
H037;50;Mannelijk;Links;1;6;right;no;200;rightarrow;641;true;focus;yes;195097;Chrome;112.0;Windows;10;undefined;undefined;1366 x 768;1366 x 768
H037;50;Mannelijk;Links;1;7;right;no;200;rightarrow;455;true;focus;yes;196319;Chrome;112.0;Windows;10;undefined;undefined;1366 x 768;1366 x 768
H037;50;Mannelijk;Links;1;8;right;no;200;rightarrow;597;true;focus;yes;197681;Chrome;112.0;Windows;10;undefined;undefined;1366 x 768;1366 x 768
H037;50;Mannelijk;Links;1;9;left;no;200;leftarrow;594;true;focus;yes;199036;Chrome;112.0;Windows;10;undefined;undefined;1366 x 768;1366 x 768
H037;50;Mannelijk;Links;1;10;left;yes;200;undefined;null;true;focus;yes;201070;Chrome;112.0;Windows;10;undefined;undefined;1366 x 768;1366 x 768
H037;50;Mannelijk;Links;1;11;left;no;250;leftarrow;576;true;focus;yes;202413;Chrome;112.0;Windows;10;undefined;undefined;1366 x 768;1366 x 768
H037;50;Mannelijk;Links;1;12;left;no;250;leftarrow;564;true;focus;yes;203742;Chrome;112.0;Windows;10;undefined;undefined;1366 x 768;1366 x 768
H037;50;Mannelijk;Links;1;13;right;no;250;rightarrow;536;true;focus;yes;205053;Chrome;112.0;Windows;10;undefined;undefined;1366 x 768;1366 x 768
H037;50;Mannelijk;Links;1;14;right;yes;250;undefined;null;true;focus;yes;207098;Chrome;112.0;Windows;10;undefined;undefined;1366 x 768;1366 x 768
H037;50;Mannelijk;Links;1;15;right;no;300;rightarrow;513;true;focus;yes;208383;Chrome;112.0;Windows;10;undefined;undefined;1366 x 768;1366 x 768
H037;50;Mannelijk;Links;1;16;right;no;300;rightarrow;567;true;focus;yes;209711;Chrome;112.0;Windows;10;undefined;undefined;1366 x 768;1366 x 768
H037;50;Mannelijk;Links;1;17;right;no;300;rightarrow;530;true;focus;yes;211012;Chrome;112.0;Windows;10;undefined;undefined;1366 x 768;1366 x 768
H037;50;Mannelijk;Links;1;18;right;no;300;rightarrow;563;true;focus;yes;212339;Chrome;112.0;Windows;10;undefined;undefined;1366 x 768;1366 x 768
H037;50;Mannelijk;Links;1;19;left;no;300;leftarrow;693;true;focus;yes;213805;Chrome;112.0;Windows;10;undefined;undefined;1366 x 768;1366 x 768
H037;50;Mannelijk;Links;1;20;left;yes;300;leftarrow;415;false;focus;yes;214997;Chrome;112.0;Windows;10;undefined;undefined;1366 x 768;1366 x 768
H037;50;Mannelijk;Links;1;21;right;no;250;rightarrow;629;true;focus;yes;216412;Chrome;112.0;Windows;10;undefined;undefined;1366 x 768;1366 x 768
H037;50;Mannelijk;Links;1;22;right;yes;250;undefined;null;true;focus;yes;218450;Chrome;112.0;Windows;10;undefined;undefined;1366 x 768;1366 x 768
H037;50;Mannelijk;Links;1;23;left;no;300;leftarrow;450;true;focus;yes;219687;Chrome;112.0;Windows;10;undefined;undefined;1366 x 768;1366 x 768
H037;50;Mannelijk;Links;1;24;left;no;300;leftarrow;616;true;focus;yes;221077;Chrome;112.0;Windows;10;undefined;undefined;1366 x 768;1366 x 768
H037;50;Mannelijk;Links;1;25;right;no;300;rightarrow;596;true;focus;yes;222441;Chrome;112.0;Windows;10;undefined;undefined;1366 x 768;1366 x 768
H037;50;Mannelijk;Links;1;26;left;yes;300;undefined;null;true;focus;yes;224470;Chrome;112.0;Windows;10;undefined;undefined;1366 x 768;1366 x 768
H037;50;Mannelijk;Links;1;27;right;yes;350;rightarrow;520;false;focus;yes;225764;Chrome;112.0;Windows;10;undefined;undefined;1366 x 768;1366 x 768
H037;50;Mannelijk;Links;1;28;left;no;300;leftarrow;679;true;focus;yes;227223;Chrome;112.0;Windows;10;undefined;undefined;1366 x 768;1366 x 768
H037;50;Mannelijk;Links;1;29;left;no;300;leftarrow;720;true;focus;yes;228705;Chrome;112.0;Windows;10;undefined;undefined;1366 x 768;1366 x 768
H037;50;Mannelijk;Links;1;30;left;no;300;leftarrow;650;true;focus;yes;230122;Chrome;112.0;Windows;10;undefined;undefined;1366 x 768;1366 x 768
H037;50;Mannelijk;Links;1;31;right;no;300;rightarrow;530;true;focus;yes;231423;Chrome;112.0;Windows;10;undefined;undefined;1366 x 768;1366 x 768
H037;50;Mannelijk;Links;1;32;right;no;300;rightarrow;590;true;focus;yes;232772;Chrome;112.0;Windows;10;undefined;undefined;1366 x 768;1366 x 768
H037;50;Mannelijk;Links;1;33;right;no;300;rightarrow;765;true;focus;yes;234305;Chrome;112.0;Windows;10;undefined;undefined;1366 x 768;1366 x 768
H037;50;Mannelijk;Links;1;34;right;no;300;rightarrow;498;true;focus;yes;235573;Chrome;112.0;Windows;10;undefined;undefined;1366 x 768;1366 x 768
H037;50;Mannelijk;Links;1;35;left;no;300;leftarrow;516;true;focus;yes;236853;Chrome;112.0;Windows;10;undefined;undefined;1366 x 768;1366 x 768
H037;50;Mannelijk;Links;1;36;right;yes;300;rightarrow;538;false;focus;yes;238180;Chrome;112.0;Windows;10;undefined;undefined;1366 x 768;1366 x 768
H037;50;Mannelijk;Links;1;37;left;no;250;leftarrow;648;true;focus;yes;239591;Chrome;112.0;Windows;10;undefined;undefined;1366 x 768;1366 x 768
H037;50;Mannelijk;Links;1;38;left;no;250;leftarrow;633;true;focus;yes;240996;Chrome;112.0;Windows;10;undefined;undefined;1366 x 768;1366 x 768
H037;50;Mannelijk;Links;1;39;left;yes;250;undefined;null;true;focus;yes;243037;Chrome;112.0;Windows;10;undefined;undefined;1366 x 768;1366 x 768
H037;50;Mannelijk;Links;1;40;right;no;300;rightarrow;537;true;focus;yes;244336;Chrome;112.0;Windows;10;undefined;undefined;1366 x 768;1366 x 768
H037;50;Mannelijk;Links;1;41;right;no;300;rightarrow;593;true;focus;yes;245697;Chrome;112.0;Windows;10;undefined;undefined;1366 x 768;1366 x 768
H037;50;Mannelijk;Links;1;42;right;yes;300;undefined;null;true;focus;yes;247741;Chrome;112.0;Windows;10;undefined;undefined;1366 x 768;1366 x 768
H037;50;Mannelijk;Links;1;43;right;no;350;rightarrow;621;true;focus;yes;249122;Chrome;112.0;Windows;10;undefined;undefined;1366 x 768;1366 x 768
H037;50;Mannelijk;Links;1;44;right;no;350;rightarrow;595;true;focus;yes;250486;Chrome;112.0;Windows;10;undefined;undefined;1366 x 768;1366 x 768
H037;50;Mannelijk;Links;1;45;left;no;350;leftarrow;477;true;focus;yes;251737;Chrome;112.0;Windows;10;undefined;undefined;1366 x 768;1366 x 768
H037;50;Mannelijk;Links;1;46;left;yes;350;undefined;null;true;focus;yes;253764;Chrome;112.0;Windows;10;undefined;undefined;1366 x 768;1366 x 768
H037;50;Mannelijk;Links;1;47;left;no;400;leftarrow;490;true;focus;yes;255041;Chrome;112.0;Windows;10;undefined;undefined;1366 x 768;1366 x 768
H037;50;Mannelijk;Links;1;48;left;no;400;leftarrow;737;true;focus;yes;256542;Chrome;112.0;Windows;10;undefined;undefined;1366 x 768;1366 x 768
H037;50;Mannelijk;Links;1;49;left;no;400;leftarrow;739;true;focus;yes;258048;Chrome;112.0;Windows;10;undefined;undefined;1366 x 768;1366 x 768
H037;50;Mannelijk;Links;1;50;left;no;400;leftarrow;817;true;focus;yes;259634;Chrome;112.0;Windows;10;undefined;undefined;1366 x 768;1366 x 768
H037;50;Mannelijk;Links;1;51;right;yes;400;undefined;null;true;focus;yes;261662;Chrome;112.0;Windows;10;undefined;undefined;1366 x 768;1366 x 768
H037;50;Mannelijk;Links;1;52;right;no;450;rightarrow;662;true;focus;yes;263094;Chrome;112.0;Windows;10;undefined;undefined;1366 x 768;1366 x 768
H037;50;Mannelijk;Links;1;53;left;no;450;leftarrow;567;true;focus;yes;264450;Chrome;112.0;Windows;10;undefined;undefined;1366 x 768;1366 x 768
H037;50;Mannelijk;Links;1;54;right;no;450;rightarrow;606;true;focus;yes;265815;Chrome;112.0;Windows;10;undefined;undefined;1366 x 768;1366 x 768
H037;50;Mannelijk;Links;1;55;left;yes;450;leftarrow;612;false;focus;yes;267202;Chrome;112.0;Windows;10;undefined;undefined;1366 x 768;1366 x 768
H037;50;Mannelijk;Links;1;56;right;no;400;rightarrow;711;true;focus;yes;268687;Chrome;112.0;Windows;10;undefined;undefined;1366 x 768;1366 x 768
H037;50;Mannelijk;Links;1;57;right;no;400;rightarrow;658;true;focus;yes;270114;Chrome;112.0;Windows;10;undefined;undefined;1366 x 768;1366 x 768
H037;50;Mannelijk;Links;1;58;left;no;400;leftarrow;639;true;focus;yes;271537;Chrome;112.0;Windows;10;undefined;undefined;1366 x 768;1366 x 768
H037;50;Mannelijk;Links;1;59;left;no;400;leftarrow;647;true;focus;yes;272960;Chrome;112.0;Windows;10;undefined;undefined;1366 x 768;1366 x 768
H037;50;Mannelijk;Links;1;60;right;yes;400;rightarrow;564;false;focus;yes;274307;Chrome;112.0;Windows;10;undefined;undefined;1366 x 768;1366 x 768
H037;50;Mannelijk;Links;1;61;left;no;350;leftarrow;625;true;focus;yes;275693;Chrome;112.0;Windows;10;undefined;undefined;1366 x 768;1366 x 768
H037;50;Mannelijk;Links;1;62;left;yes;350;undefined;null;true;focus;yes;277716;Chrome;112.0;Windows;10;undefined;undefined;1366 x 768;1366 x 768
H037;50;Mannelijk;Links;1;63;right;no;400;rightarrow;563;true;focus;yes;279048;Chrome;112.0;Windows;10;undefined;undefined;1366 x 768;1366 x 768
H037;50;Mannelijk;Links;1;64;right;no;400;rightarrow;672;true;focus;yes;280483;Chrome;112.0;Windows;10;undefined;undefined;1366 x 768;1366 x 768
H037;50;Mannelijk;Links;1;65;left;no;400;leftarrow;478;true;focus;yes;281748;Chrome;112.0;Windows;10;undefined;undefined;1366 x 768;1366 x 768
H037;50;Mannelijk;Links;1;66;right;no;400;rightarrow;536;true;focus;yes;283057;Chrome;112.0;Windows;10;undefined;undefined;1366 x 768;1366 x 768
H037;50;Mannelijk;Links;1;67;left;no;400;leftarrow;705;true;focus;yes;284544;Chrome;112.0;Windows;10;undefined;undefined;1366 x 768;1366 x 768
H037;50;Mannelijk;Links;1;68;right;no;400;rightarrow;448;true;focus;yes;285780;Chrome;112.0;Windows;10;undefined;undefined;1366 x 768;1366 x 768
H037;50;Mannelijk;Links;1;69;right;no;400;rightarrow;632;true;focus;yes;287194;Chrome;112.0;Windows;10;undefined;undefined;1366 x 768;1366 x 768
H037;50;Mannelijk;Links;1;70;right;yes;400;rightarrow;617;false;focus;yes;288591;Chrome;112.0;Windows;10;undefined;undefined;1366 x 768;1366 x 768
H037;50;Mannelijk;Links;1;71;left;yes;350;undefined;null;true;focus;yes;290607;Chrome;112.0;Windows;10;undefined;undefined;1366 x 768;1366 x 768
H037;50;Mannelijk;Links;1;72;left;no;400;leftarrow;537;true;focus;yes;291915;Chrome;112.0;Windows;10;undefined;undefined;1366 x 768;1366 x 768
H037;50;Mannelijk;Links;1;73;right;yes;400;rightarrow;580;false;focus;yes;293278;Chrome;112.0;Windows;10;undefined;undefined;1366 x 768;1366 x 768
H037;50;Mannelijk;Links;1;74;right;no;350;rightarrow;778;true;focus;yes;294836;Chrome;112.0;Windows;10;undefined;undefined;1366 x 768;1366 x 768
H037;50;Mannelijk;Links;1;75;left;no;350;leftarrow;607;true;focus;yes;296213;Chrome;112.0;Windows;10;undefined;undefined;1366 x 768;1366 x 768
H037;50;Mannelijk;Links;1;76;left;no;350;leftarrow;547;true;focus;yes;297528;Chrome;112.0;Windows;10;undefined;undefined;1366 x 768;1366 x 768
H037;50;Mannelijk;Links;1;77;right;no;350;rightarrow;657;true;focus;yes;298964;Chrome;112.0;Windows;10;undefined;undefined;1366 x 768;1366 x 768
H037;50;Mannelijk;Links;1;78;left;no;350;leftarrow;536;true;focus;yes;300271;Chrome;112.0;Windows;10;undefined;undefined;1366 x 768;1366 x 768
H037;50;Mannelijk;Links;1;79;right;no;350;rightarrow;633;true;focus;yes;301679;Chrome;112.0;Windows;10;undefined;undefined;1366 x 768;1366 x 768
H037;50;Mannelijk;Links;1;80;left;yes;350;undefined;null;true;focus;yes;303705;Chrome;112.0;Windows;10;undefined;undefined;1366 x 768;1366 x 768
H037;50;Mannelijk;Links;1;81;right;no;400;rightarrow;565;true;focus;yes;305042;Chrome;112.0;Windows;10;undefined;undefined;1366 x 768;1366 x 768
H037;50;Mannelijk;Links;1;82;left;yes;400;leftarrow;628;false;focus;yes;306462;Chrome;112.0;Windows;10;undefined;undefined;1366 x 768;1366 x 768
H037;50;Mannelijk;Links;1;83;right;yes;350;undefined;null;true;focus;yes;308479;Chrome;112.0;Windows;10;undefined;undefined;1366 x 768;1366 x 768
H037;50;Mannelijk;Links;1;84;left;no;400;leftarrow;593;true;focus;yes;309848;Chrome;112.0;Windows;10;undefined;undefined;1366 x 768;1366 x 768
H037;50;Mannelijk;Links;1;85;left;no;400;leftarrow;711;true;focus;yes;311339;Chrome;112.0;Windows;10;undefined;undefined;1366 x 768;1366 x 768
H037;50;Mannelijk;Links;1;86;right;no;400;rightarrow;656;true;focus;yes;312783;Chrome;112.0;Windows;10;undefined;undefined;1366 x 768;1366 x 768
H037;50;Mannelijk;Links;1;87;right;no;400;rightarrow;837;true;focus;yes;314392;Chrome;112.0;Windows;10;undefined;undefined;1366 x 768;1366 x 768
H037;50;Mannelijk;Links;1;88;left;no;400;leftarrow;433;true;focus;yes;315596;Chrome;112.0;Windows;10;undefined;undefined;1366 x 768;1366 x 768
H037;50;Mannelijk;Links;1;89;left;no;400;leftarrow;644;true;focus;yes;317017;Chrome;112.0;Windows;10;undefined;undefined;1366 x 768;1366 x 768
H037;50;Mannelijk;Links;1;90;right;yes;400;rightarrow;521;false;focus;yes;318311;Chrome;112.0;Windows;10;undefined;undefined;1366 x 768;1366 x 768
H037;50;Mannelijk;Links;1;91;left;no;350;leftarrow;723;true;focus;yes;319818;Chrome;112.0;Windows;10;undefined;undefined;1366 x 768;1366 x 768
H037;50;Mannelijk;Links;1;92;left;no;350;leftarrow;529;true;focus;yes;321119;Chrome;112.0;Windows;10;undefined;undefined;1366 x 768;1366 x 768
H037;50;Mannelijk;Links;1;93;left;yes;350;undefined;null;true;focus;yes;323147;Chrome;112.0;Windows;10;undefined;undefined;1366 x 768;1366 x 768
H037;50;Mannelijk;Links;1;94;right;no;400;rightarrow;565;true;focus;yes;324500;Chrome;112.0;Windows;10;undefined;undefined;1366 x 768;1366 x 768
H037;50;Mannelijk;Links;1;95;right;no;400;rightarrow;549;true;focus;yes;325823;Chrome;112.0;Windows;10;undefined;undefined;1366 x 768;1366 x 768
H037;50;Mannelijk;Links;1;96;right;no;400;rightarrow;668;true;focus;yes;327264;Chrome;112.0;Windows;10;undefined;undefined;1366 x 768;1366 x 768
H037;50;Mannelijk;Links;1;97;right;no;400;rightarrow;721;true;focus;yes;328758;Chrome;112.0;Windows;10;undefined;undefined;1366 x 768;1366 x 768
H037;50;Mannelijk;Links;1;98;right;yes;400;rightarrow;597;false;focus;yes;330142;Chrome;112.0;Windows;10;undefined;undefined;1366 x 768;1366 x 768
H037;50;Mannelijk;Links;1;99;left;no;350;leftarrow;626;true;focus;yes;331537;Chrome;112.0;Windows;10;undefined;undefined;1366 x 768;1366 x 768
H037;50;Mannelijk;Links;1;100;left;no;350;leftarrow;696;true;focus;yes;333014;Chrome;112.0;Windows;10;undefined;undefined;1366 x 768;1366 x 768
H037;50;Mannelijk;Links;1;101;left;no;350;leftarrow;568;true;focus;yes;334352;Chrome;112.0;Windows;10;undefined;undefined;1366 x 768;1366 x 768
H037;50;Mannelijk;Links;1;102;right;no;350;rightarrow;574;true;focus;yes;335701;Chrome;112.0;Windows;10;undefined;undefined;1366 x 768;1366 x 768
H037;50;Mannelijk;Links;1;103;left;yes;350;undefined;null;true;focus;yes;337746;Chrome;112.0;Windows;10;undefined;undefined;1366 x 768;1366 x 768
H037;50;Mannelijk;Links;1;104;right;no;400;rightarrow;525;true;focus;yes;339041;Chrome;112.0;Windows;10;undefined;undefined;1366 x 768;1366 x 768
H037;50;Mannelijk;Links;1;105;left;no;400;leftarrow;539;true;focus;yes;340364;Chrome;112.0;Windows;10;undefined;undefined;1366 x 768;1366 x 768
H037;50;Mannelijk;Links;1;106;left;no;400;leftarrow;635;true;focus;yes;341786;Chrome;112.0;Windows;10;undefined;undefined;1366 x 768;1366 x 768
H037;50;Mannelijk;Links;1;107;right;no;400;rightarrow;775;true;focus;yes;343345;Chrome;112.0;Windows;10;undefined;undefined;1366 x 768;1366 x 768
H037;50;Mannelijk;Links;1;108;right;no;400;rightarrow;552;true;focus;yes;344674;Chrome;112.0;Windows;10;undefined;undefined;1366 x 768;1366 x 768
H037;50;Mannelijk;Links;1;109;right;no;400;rightarrow;710;true;focus;yes;346142;Chrome;112.0;Windows;10;undefined;undefined;1366 x 768;1366 x 768
H037;50;Mannelijk;Links;1;110;left;yes;400;undefined;null;true;focus;yes;348166;Chrome;112.0;Windows;10;undefined;undefined;1366 x 768;1366 x 768
H037;50;Mannelijk;Links;1;111;right;yes;450;rightarrow;636;false;focus;yes;349587;Chrome;112.0;Windows;10;undefined;undefined;1366 x 768;1366 x 768
H037;50;Mannelijk;Links;1;112;left;no;400;leftarrow;585;true;focus;yes;350952;Chrome;112.0;Windows;10;undefined;undefined;1366 x 768;1366 x 768
H037;50;Mannelijk;Links;1;113;left;yes;400;leftarrow;565;false;focus;yes;352281;Chrome;112.0;Windows;10;undefined;undefined;1366 x 768;1366 x 768
H037;50;Mannelijk;Links;1;114;right;yes;350;undefined;null;true;focus;yes;354325;Chrome;112.0;Windows;10;undefined;undefined;1366 x 768;1366 x 768
H037;50;Mannelijk;Links;1;115;right;no;400;rightarrow;598;true;focus;yes;355696;Chrome;112.0;Windows;10;undefined;undefined;1366 x 768;1366 x 768
H037;50;Mannelijk;Links;1;116;right;no;400;rightarrow;653;true;focus;yes;357136;Chrome;112.0;Windows;10;undefined;undefined;1366 x 768;1366 x 768
H037;50;Mannelijk;Links;1;117;left;no;400;leftarrow;753;true;focus;yes;358651;Chrome;112.0;Windows;10;undefined;undefined;1366 x 768;1366 x 768
H037;50;Mannelijk;Links;1;118;left;no;400;leftarrow;897;true;focus;yes;360313;Chrome;112.0;Windows;10;undefined;undefined;1366 x 768;1366 x 768
H037;50;Mannelijk;Links;1;119;right;no;400;rightarrow;777;true;focus;yes;361872;Chrome;112.0;Windows;10;undefined;undefined;1366 x 768;1366 x 768
H037;50;Mannelijk;Links;1;120;left;no;400;leftarrow;699;true;focus;yes;363360;Chrome;112.0;Windows;10;undefined;undefined;1366 x 768;1366 x 768
H037;50;Mannelijk;Links;1;121;right;no;400;rightarrow;687;true;focus;yes;364820;Chrome;112.0;Windows;10;undefined;undefined;1366 x 768;1366 x 768
H037;50;Mannelijk;Links;1;122;left;no;400;leftarrow;717;true;focus;yes;366308;Chrome;112.0;Windows;10;undefined;undefined;1366 x 768;1366 x 768
H037;50;Mannelijk;Links;1;123;left;yes;400;undefined;null;true;focus;yes;368332;Chrome;112.0;Windows;10;undefined;undefined;1366 x 768;1366 x 768
H037;50;Mannelijk;Links;1;124;right;yes;450;rightarrow;634;false;focus;yes;369751;Chrome;112.0;Windows;10;undefined;undefined;1366 x 768;1366 x 768
H037;50;Mannelijk;Links;1;125;left;no;400;leftarrow;675;true;focus;yes;371214;Chrome;112.0;Windows;10;undefined;undefined;1366 x 768;1366 x 768
H037;50;Mannelijk;Links;1;126;right;no;400;rightarrow;573;true;focus;yes;372551;Chrome;112.0;Windows;10;undefined;undefined;1366 x 768;1366 x 768
H037;50;Mannelijk;Links;1;127;left;no;400;leftarrow;568;true;focus;yes;373886;Chrome;112.0;Windows;10;undefined;undefined;1366 x 768;1366 x 768
H037;50;Mannelijk;Links;1;128;right;no;400;rightarrow;642;true;focus;yes;375296;Chrome;112.0;Windows;10;undefined;undefined;1366 x 768;1366 x 768
H037;50;Mannelijk;Links;2;1;right;no;400;rightarrow;411;true;focus;yes;395130;Chrome;112.0;Windows;10;undefined;undefined;1366 x 768;1366 x 768
H037;50;Mannelijk;Links;2;2;left;no;400;leftarrow;511;true;focus;yes;396417;Chrome;112.0;Windows;10;undefined;undefined;1366 x 768;1366 x 768
H037;50;Mannelijk;Links;2;3;right;no;400;rightarrow;505;true;focus;yes;397696;Chrome;112.0;Windows;10;undefined;undefined;1366 x 768;1366 x 768
H037;50;Mannelijk;Links;2;4;left;yes;400;leftarrow;505;false;focus;yes;398991;Chrome;112.0;Windows;10;undefined;undefined;1366 x 768;1366 x 768
H037;50;Mannelijk;Links;2;5;left;no;350;leftarrow;546;true;focus;yes;400318;Chrome;112.0;Windows;10;undefined;undefined;1366 x 768;1366 x 768
H037;50;Mannelijk;Links;2;6;left;no;350;leftarrow;582;true;focus;yes;401674;Chrome;112.0;Windows;10;undefined;undefined;1366 x 768;1366 x 768
H037;50;Mannelijk;Links;2;7;right;yes;350;rightarrow;498;false;focus;yes;402943;Chrome;112.0;Windows;10;undefined;undefined;1366 x 768;1366 x 768
H037;50;Mannelijk;Links;2;8;right;no;300;rightarrow;595;true;focus;yes;404313;Chrome;112.0;Windows;10;undefined;undefined;1366 x 768;1366 x 768
H037;50;Mannelijk;Links;2;9;right;no;300;rightarrow;595;true;focus;yes;405688;Chrome;112.0;Windows;10;undefined;undefined;1366 x 768;1366 x 768
H037;50;Mannelijk;Links;2;10;right;yes;300;undefined;null;true;focus;yes;407706;Chrome;112.0;Windows;10;undefined;undefined;1366 x 768;1366 x 768
H037;50;Mannelijk;Links;2;11;left;yes;350;leftarrow;512;false;focus;yes;408995;Chrome;112.0;Windows;10;undefined;undefined;1366 x 768;1366 x 768
H037;50;Mannelijk;Links;2;12;right;no;300;rightarrow;658;true;focus;yes;410425;Chrome;112.0;Windows;10;undefined;undefined;1366 x 768;1366 x 768
H037;50;Mannelijk;Links;2;13;left;no;300;leftarrow;656;true;focus;yes;411865;Chrome;112.0;Windows;10;undefined;undefined;1366 x 768;1366 x 768
H037;50;Mannelijk;Links;2;14;right;no;300;rightarrow;606;true;focus;yes;413244;Chrome;112.0;Windows;10;undefined;undefined;1366 x 768;1366 x 768
H037;50;Mannelijk;Links;2;15;left;no;300;leftarrow;556;true;focus;yes;414574;Chrome;112.0;Windows;10;undefined;undefined;1366 x 768;1366 x 768
H037;50;Mannelijk;Links;2;16;left;no;300;leftarrow;618;true;focus;yes;415960;Chrome;112.0;Windows;10;undefined;undefined;1366 x 768;1366 x 768
H037;50;Mannelijk;Links;2;17;left;no;300;leftarrow;828;true;focus;yes;417572;Chrome;112.0;Windows;10;undefined;undefined;1366 x 768;1366 x 768
H037;50;Mannelijk;Links;2;18;right;no;300;rightarrow;425;true;focus;yes;418774;Chrome;112.0;Windows;10;undefined;undefined;1366 x 768;1366 x 768
H037;50;Mannelijk;Links;2;19;left;no;300;leftarrow;692;true;focus;yes;420249;Chrome;112.0;Windows;10;undefined;undefined;1366 x 768;1366 x 768
H037;50;Mannelijk;Links;2;20;right;no;300;rightarrow;535;true;focus;yes;421554;Chrome;112.0;Windows;10;undefined;undefined;1366 x 768;1366 x 768
H037;50;Mannelijk;Links;2;21;left;no;300;leftarrow;546;true;focus;yes;422864;Chrome;112.0;Windows;10;undefined;undefined;1366 x 768;1366 x 768
H037;50;Mannelijk;Links;2;22;right;no;300;rightarrow;552;true;focus;yes;424207;Chrome;112.0;Windows;10;undefined;undefined;1366 x 768;1366 x 768
H037;50;Mannelijk;Links;2;23;left;yes;300;undefined;null;true;focus;yes;426263;Chrome;112.0;Windows;10;undefined;undefined;1366 x 768;1366 x 768
H037;50;Mannelijk;Links;2;24;right;yes;350;rightarrow;512;false;focus;yes;427553;Chrome;112.0;Windows;10;undefined;undefined;1366 x 768;1366 x 768
H037;50;Mannelijk;Links;2;25;left;yes;300;undefined;null;true;focus;yes;429579;Chrome;112.0;Windows;10;undefined;undefined;1366 x 768;1366 x 768
H037;50;Mannelijk;Links;2;26;left;no;350;leftarrow;586;true;focus;yes;430936;Chrome;112.0;Windows;10;undefined;undefined;1366 x 768;1366 x 768
H037;50;Mannelijk;Links;2;27;right;no;350;rightarrow;560;true;focus;yes;432256;Chrome;112.0;Windows;10;undefined;undefined;1366 x 768;1366 x 768
H037;50;Mannelijk;Links;2;28;right;yes;350;undefined;null;true;focus;yes;434315;Chrome;112.0;Windows;10;undefined;undefined;1366 x 768;1366 x 768
H037;50;Mannelijk;Links;2;29;left;no;400;leftarrow;467;true;focus;yes;435558;Chrome;112.0;Windows;10;undefined;undefined;1366 x 768;1366 x 768
H037;50;Mannelijk;Links;2;30;right;no;400;rightarrow;609;true;focus;yes;436948;Chrome;112.0;Windows;10;undefined;undefined;1366 x 768;1366 x 768
H037;50;Mannelijk;Links;2;31;left;no;400;leftarrow;491;true;focus;yes;438218;Chrome;112.0;Windows;10;undefined;undefined;1366 x 768;1366 x 768
H037;50;Mannelijk;Links;2;32;right;no;400;rightarrow;553;true;focus;yes;439549;Chrome;112.0;Windows;10;undefined;undefined;1366 x 768;1366 x 768
H037;50;Mannelijk;Links;2;33;right;no;400;rightarrow;684;true;focus;yes;441001;Chrome;112.0;Windows;10;undefined;undefined;1366 x 768;1366 x 768
H037;50;Mannelijk;Links;2;34;left;no;400;leftarrow;514;true;focus;yes;442301;Chrome;112.0;Windows;10;undefined;undefined;1366 x 768;1366 x 768
H037;50;Mannelijk;Links;2;35;right;no;400;rightarrow;567;true;focus;yes;443641;Chrome;112.0;Windows;10;undefined;undefined;1366 x 768;1366 x 768
H037;50;Mannelijk;Links;2;36;left;no;400;leftarrow;555;true;focus;yes;444976;Chrome;112.0;Windows;10;undefined;undefined;1366 x 768;1366 x 768
H037;50;Mannelijk;Links;2;37;right;yes;400;rightarrow;601;false;focus;yes;446337;Chrome;112.0;Windows;10;undefined;undefined;1366 x 768;1366 x 768
H037;50;Mannelijk;Links;2;38;right;no;350;rightarrow;619;true;focus;yes;447741;Chrome;112.0;Windows;10;undefined;undefined;1366 x 768;1366 x 768
H037;50;Mannelijk;Links;2;39;left;no;350;leftarrow;582;true;focus;yes;449093;Chrome;112.0;Windows;10;undefined;undefined;1366 x 768;1366 x 768
H037;50;Mannelijk;Links;2;40;left;yes;350;undefined;null;true;focus;yes;451105;Chrome;112.0;Windows;10;undefined;undefined;1366 x 768;1366 x 768
H037;50;Mannelijk;Links;2;41;right;no;400;rightarrow;516;true;focus;yes;452407;Chrome;112.0;Windows;10;undefined;undefined;1366 x 768;1366 x 768
H037;50;Mannelijk;Links;2;42;left;yes;400;leftarrow;487;false;focus;yes;453681;Chrome;112.0;Windows;10;undefined;undefined;1366 x 768;1366 x 768
H037;50;Mannelijk;Links;2;43;right;no;350;rightarrow;611;true;focus;yes;455060;Chrome;112.0;Windows;10;undefined;undefined;1366 x 768;1366 x 768
H037;50;Mannelijk;Links;2;44;left;no;350;leftarrow;554;true;focus;yes;456391;Chrome;112.0;Windows;10;undefined;undefined;1366 x 768;1366 x 768
H037;50;Mannelijk;Links;2;45;right;no;350;rightarrow;588;true;focus;yes;457752;Chrome;112.0;Windows;10;undefined;undefined;1366 x 768;1366 x 768
H037;50;Mannelijk;Links;2;46;left;no;350;leftarrow;513;true;focus;yes;459030;Chrome;112.0;Windows;10;undefined;undefined;1366 x 768;1366 x 768
H037;50;Mannelijk;Links;2;47;left;no;350;leftarrow;543;true;focus;yes;460367;Chrome;112.0;Windows;10;undefined;undefined;1366 x 768;1366 x 768
H037;50;Mannelijk;Links;2;48;right;yes;350;rightarrow;525;false;focus;yes;461664;Chrome;112.0;Windows;10;undefined;undefined;1366 x 768;1366 x 768
H037;50;Mannelijk;Links;2;49;left;no;300;leftarrow;491;true;focus;yes;462919;Chrome;112.0;Windows;10;undefined;undefined;1366 x 768;1366 x 768
H037;50;Mannelijk;Links;2;50;right;no;300;rightarrow;563;true;focus;yes;464257;Chrome;112.0;Windows;10;undefined;undefined;1366 x 768;1366 x 768
H037;50;Mannelijk;Links;2;51;left;no;300;leftarrow;637;true;focus;yes;465675;Chrome;112.0;Windows;10;undefined;undefined;1366 x 768;1366 x 768
H037;50;Mannelijk;Links;2;52;left;yes;300;undefined;null;true;focus;yes;467712;Chrome;112.0;Windows;10;undefined;undefined;1366 x 768;1366 x 768
H037;50;Mannelijk;Links;2;53;left;no;350;leftarrow;545;true;focus;yes;469045;Chrome;112.0;Windows;10;undefined;undefined;1366 x 768;1366 x 768
H037;50;Mannelijk;Links;2;54;right;yes;350;rightarrow;509;false;focus;yes;470321;Chrome;112.0;Windows;10;undefined;undefined;1366 x 768;1366 x 768
H037;50;Mannelijk;Links;2;55;right;no;300;rightarrow;707;true;focus;yes;471803;Chrome;112.0;Windows;10;undefined;undefined;1366 x 768;1366 x 768
H037;50;Mannelijk;Links;2;56;right;no;300;rightarrow;589;true;focus;yes;473159;Chrome;112.0;Windows;10;undefined;undefined;1366 x 768;1366 x 768
H037;50;Mannelijk;Links;2;57;left;no;300;leftarrow;660;true;focus;yes;474580;Chrome;112.0;Windows;10;undefined;undefined;1366 x 768;1366 x 768
H037;50;Mannelijk;Links;2;58;left;yes;300;undefined;null;true;focus;yes;476615;Chrome;112.0;Windows;10;undefined;undefined;1366 x 768;1366 x 768
H037;50;Mannelijk;Links;2;59;right;yes;350;rightarrow;546;false;focus;yes;477938;Chrome;112.0;Windows;10;undefined;undefined;1366 x 768;1366 x 768
H037;50;Mannelijk;Links;2;60;right;no;300;rightarrow;671;true;focus;yes;479373;Chrome;112.0;Windows;10;undefined;undefined;1366 x 768;1366 x 768
H037;50;Mannelijk;Links;2;61;right;no;300;rightarrow;592;true;focus;yes;480748;Chrome;112.0;Windows;10;undefined;undefined;1366 x 768;1366 x 768
H037;50;Mannelijk;Links;2;62;left;no;300;leftarrow;649;true;focus;yes;482171;Chrome;112.0;Windows;10;undefined;undefined;1366 x 768;1366 x 768
H037;50;Mannelijk;Links;2;63;left;no;300;leftarrow;804;true;focus;yes;483756;Chrome;112.0;Windows;10;undefined;undefined;1366 x 768;1366 x 768
H037;50;Mannelijk;Links;2;64;right;no;300;rightarrow;553;true;focus;yes;485073;Chrome;112.0;Windows;10;undefined;undefined;1366 x 768;1366 x 768
H037;50;Mannelijk;Links;2;65;right;no;300;rightarrow;559;true;focus;yes;486403;Chrome;112.0;Windows;10;undefined;undefined;1366 x 768;1366 x 768
H037;50;Mannelijk;Links;2;66;right;yes;300;undefined;null;true;focus;yes;488451;Chrome;112.0;Windows;10;undefined;undefined;1366 x 768;1366 x 768
H037;50;Mannelijk;Links;2;67;right;no;350;rightarrow;586;true;focus;yes;489825;Chrome;112.0;Windows;10;undefined;undefined;1366 x 768;1366 x 768
H037;50;Mannelijk;Links;2;68;left;no;350;leftarrow;423;true;focus;yes;491020;Chrome;112.0;Windows;10;undefined;undefined;1366 x 768;1366 x 768
H037;50;Mannelijk;Links;2;69;left;yes;350;undefined;null;true;focus;yes;493041;Chrome;112.0;Windows;10;undefined;undefined;1366 x 768;1366 x 768
H037;50;Mannelijk;Links;2;70;right;no;400;rightarrow;535;true;focus;yes;494341;Chrome;112.0;Windows;10;undefined;undefined;1366 x 768;1366 x 768
H037;50;Mannelijk;Links;2;71;left;no;400;leftarrow;542;true;focus;yes;495666;Chrome;112.0;Windows;10;undefined;undefined;1366 x 768;1366 x 768
H037;50;Mannelijk;Links;2;72;left;no;400;leftarrow;510;true;focus;yes;496943;Chrome;112.0;Windows;10;undefined;undefined;1366 x 768;1366 x 768
H037;50;Mannelijk;Links;2;73;left;no;400;leftarrow;559;true;focus;yes;498271;Chrome;112.0;Windows;10;undefined;undefined;1366 x 768;1366 x 768
H037;50;Mannelijk;Links;2;74;left;yes;400;leftarrow;592;false;focus;yes;499636;Chrome;112.0;Windows;10;undefined;undefined;1366 x 768;1366 x 768
H037;50;Mannelijk;Links;2;75;left;no;350;leftarrow;635;true;focus;yes;501047;Chrome;112.0;Windows;10;undefined;undefined;1366 x 768;1366 x 768
H037;50;Mannelijk;Links;2;76;right;no;350;rightarrow;721;true;focus;yes;502528;Chrome;112.0;Windows;10;undefined;undefined;1366 x 768;1366 x 768
H037;50;Mannelijk;Links;2;77;right;yes;350;undefined;null;true;focus;yes;504568;Chrome;112.0;Windows;10;undefined;undefined;1366 x 768;1366 x 768
H037;50;Mannelijk;Links;2;78;left;no;400;leftarrow;508;true;focus;yes;505859;Chrome;112.0;Windows;10;undefined;undefined;1366 x 768;1366 x 768
H037;50;Mannelijk;Links;2;79;right;no;400;rightarrow;715;true;focus;yes;507355;Chrome;112.0;Windows;10;undefined;undefined;1366 x 768;1366 x 768
H037;50;Mannelijk;Links;2;80;right;no;400;rightarrow;593;true;focus;yes;508721;Chrome;112.0;Windows;10;undefined;undefined;1366 x 768;1366 x 768
H037;50;Mannelijk;Links;2;81;right;yes;400;undefined;null;true;focus;yes;510754;Chrome;112.0;Windows;10;undefined;undefined;1366 x 768;1366 x 768
H037;50;Mannelijk;Links;2;82;left;no;450;leftarrow;636;true;focus;yes;512174;Chrome;112.0;Windows;10;undefined;undefined;1366 x 768;1366 x 768
H037;50;Mannelijk;Links;2;83;right;no;450;rightarrow;481;true;focus;yes;513428;Chrome;112.0;Windows;10;undefined;undefined;1366 x 768;1366 x 768
H037;50;Mannelijk;Links;2;84;left;yes;450;leftarrow;572;false;focus;yes;514769;Chrome;112.0;Windows;10;undefined;undefined;1366 x 768;1366 x 768
H037;50;Mannelijk;Links;2;85;right;no;400;rightarrow;581;true;focus;yes;516135;Chrome;112.0;Windows;10;undefined;undefined;1366 x 768;1366 x 768
H037;50;Mannelijk;Links;2;86;left;no;400;leftarrow;537;true;focus;yes;517461;Chrome;112.0;Windows;10;undefined;undefined;1366 x 768;1366 x 768
H037;50;Mannelijk;Links;2;87;left;no;400;leftarrow;601;true;focus;yes;518851;Chrome;112.0;Windows;10;undefined;undefined;1366 x 768;1366 x 768
H037;50;Mannelijk;Links;2;88;right;no;400;rightarrow;621;true;focus;yes;520250;Chrome;112.0;Windows;10;undefined;undefined;1366 x 768;1366 x 768
H037;50;Mannelijk;Links;2;89;right;no;400;rightarrow;640;true;focus;yes;521650;Chrome;112.0;Windows;10;undefined;undefined;1366 x 768;1366 x 768
H037;50;Mannelijk;Links;2;90;right;no;400;rightarrow;630;true;focus;yes;523055;Chrome;112.0;Windows;10;undefined;undefined;1366 x 768;1366 x 768
H037;50;Mannelijk;Links;2;91;left;no;400;leftarrow;584;true;focus;yes;524410;Chrome;112.0;Windows;10;undefined;undefined;1366 x 768;1366 x 768
H037;50;Mannelijk;Links;2;92;left;no;400;leftarrow;583;true;focus;yes;525758;Chrome;112.0;Windows;10;undefined;undefined;1366 x 768;1366 x 768
H037;50;Mannelijk;Links;2;93;right;no;400;rightarrow;691;true;focus;yes;527223;Chrome;112.0;Windows;10;undefined;undefined;1366 x 768;1366 x 768
H037;50;Mannelijk;Links;2;94;left;no;400;leftarrow;667;true;focus;yes;528665;Chrome;112.0;Windows;10;undefined;undefined;1366 x 768;1366 x 768
H037;50;Mannelijk;Links;2;95;right;yes;400;rightarrow;522;false;focus;yes;529960;Chrome;112.0;Windows;10;undefined;undefined;1366 x 768;1366 x 768
H037;50;Mannelijk;Links;2;96;left;yes;350;leftarrow;510;false;focus;yes;531265;Chrome;112.0;Windows;10;undefined;undefined;1366 x 768;1366 x 768
H037;50;Mannelijk;Links;2;97;right;no;300;rightarrow;504;true;focus;yes;532535;Chrome;112.0;Windows;10;undefined;undefined;1366 x 768;1366 x 768
H037;50;Mannelijk;Links;2;98;left;no;300;leftarrow;527;true;focus;yes;533836;Chrome;112.0;Windows;10;undefined;undefined;1366 x 768;1366 x 768
H037;50;Mannelijk;Links;2;99;right;no;300;rightarrow;517;true;focus;yes;535113;Chrome;112.0;Windows;10;undefined;undefined;1366 x 768;1366 x 768
H037;50;Mannelijk;Links;2;100;left;no;300;leftarrow;587;true;focus;yes;536479;Chrome;112.0;Windows;10;undefined;undefined;1366 x 768;1366 x 768
H037;50;Mannelijk;Links;2;101;right;no;300;rightarrow;531;true;focus;yes;537775;Chrome;112.0;Windows;10;undefined;undefined;1366 x 768;1366 x 768
H037;50;Mannelijk;Links;2;102;right;yes;300;undefined;null;true;focus;yes;539813;Chrome;112.0;Windows;10;undefined;undefined;1366 x 768;1366 x 768
H037;50;Mannelijk;Links;2;103;left;no;350;leftarrow;542;true;focus;yes;541129;Chrome;112.0;Windows;10;undefined;undefined;1366 x 768;1366 x 768
H037;50;Mannelijk;Links;2;104;left;yes;350;undefined;null;true;focus;yes;543159;Chrome;112.0;Windows;10;undefined;undefined;1366 x 768;1366 x 768
H037;50;Mannelijk;Links;2;105;right;yes;400;rightarrow;418;false;focus;yes;544360;Chrome;112.0;Windows;10;undefined;undefined;1366 x 768;1366 x 768
H037;50;Mannelijk;Links;2;106;left;no;350;leftarrow;556;true;focus;yes;545692;Chrome;112.0;Windows;10;undefined;undefined;1366 x 768;1366 x 768
H037;50;Mannelijk;Links;2;107;left;yes;350;leftarrow;570;false;focus;yes;547028;Chrome;112.0;Windows;10;undefined;undefined;1366 x 768;1366 x 768
H037;50;Mannelijk;Links;2;108;left;no;300;leftarrow;742;true;focus;yes;548546;Chrome;112.0;Windows;10;undefined;undefined;1366 x 768;1366 x 768
H037;50;Mannelijk;Links;2;109;left;no;300;leftarrow;583;true;focus;yes;549913;Chrome;112.0;Windows;10;undefined;undefined;1366 x 768;1366 x 768
H037;50;Mannelijk;Links;2;110;right;no;300;rightarrow;524;true;focus;yes;551213;Chrome;112.0;Windows;10;undefined;undefined;1366 x 768;1366 x 768
H037;50;Mannelijk;Links;2;111;right;no;300;rightarrow;651;true;focus;yes;552647;Chrome;112.0;Windows;10;undefined;undefined;1366 x 768;1366 x 768
H037;50;Mannelijk;Links;2;112;right;no;300;rightarrow;754;true;focus;yes;554169;Chrome;112.0;Windows;10;undefined;undefined;1366 x 768;1366 x 768
H037;50;Mannelijk;Links;2;113;right;no;300;rightarrow;592;true;focus;yes;555539;Chrome;112.0;Windows;10;undefined;undefined;1366 x 768;1366 x 768
H037;50;Mannelijk;Links;2;114;left;no;300;leftarrow;469;true;focus;yes;556779;Chrome;112.0;Windows;10;undefined;undefined;1366 x 768;1366 x 768
H037;50;Mannelijk;Links;2;115;left;no;300;leftarrow;616;true;focus;yes;558174;Chrome;112.0;Windows;10;undefined;undefined;1366 x 768;1366 x 768
H037;50;Mannelijk;Links;2;116;left;yes;300;undefined;null;true;focus;yes;560202;Chrome;112.0;Windows;10;undefined;undefined;1366 x 768;1366 x 768
H037;50;Mannelijk;Links;2;117;right;no;350;rightarrow;565;true;focus;yes;561558;Chrome;112.0;Windows;10;undefined;undefined;1366 x 768;1366 x 768
H037;50;Mannelijk;Links;2;118;right;no;350;rightarrow;579;true;focus;yes;562910;Chrome;112.0;Windows;10;undefined;undefined;1366 x 768;1366 x 768
H037;50;Mannelijk;Links;2;119;right;yes;350;rightarrow;575;false;focus;yes;564258;Chrome;112.0;Windows;10;undefined;undefined;1366 x 768;1366 x 768
H037;50;Mannelijk;Links;2;120;left;no;300;leftarrow;548;true;focus;yes;565572;Chrome;112.0;Windows;10;undefined;undefined;1366 x 768;1366 x 768
H037;50;Mannelijk;Links;2;121;left;no;300;leftarrow;579;true;focus;yes;566924;Chrome;112.0;Windows;10;undefined;undefined;1366 x 768;1366 x 768
H037;50;Mannelijk;Links;2;122;right;yes;300;undefined;null;true;focus;yes;568949;Chrome;112.0;Windows;10;undefined;undefined;1366 x 768;1366 x 768
H037;50;Mannelijk;Links;2;123;right;no;350;rightarrow;707;true;focus;yes;570432;Chrome;112.0;Windows;10;undefined;undefined;1366 x 768;1366 x 768
H037;50;Mannelijk;Links;2;124;right;no;350;rightarrow;428;true;focus;yes;571643;Chrome;112.0;Windows;10;undefined;undefined;1366 x 768;1366 x 768
H037;50;Mannelijk;Links;2;125;left;yes;350;leftarrow;479;false;focus;yes;572890;Chrome;112.0;Windows;10;undefined;undefined;1366 x 768;1366 x 768
H037;50;Mannelijk;Links;2;126;left;no;300;leftarrow;515;true;focus;yes;574176;Chrome;112.0;Windows;10;undefined;undefined;1366 x 768;1366 x 768
H037;50;Mannelijk;Links;2;127;left;no;300;leftarrow;588;true;focus;yes;575555;Chrome;112.0;Windows;10;undefined;undefined;1366 x 768;1366 x 768
H037;50;Mannelijk;Links;2;128;right;no;300;rightarrow;550;true;focus;yes;576887;Chrome;112.0;Windows;10;undefined;undefined;1366 x 768;1366 x 768
H037;50;Mannelijk;Links;3;1;left;yes;300;leftarrow;485;false;focus;yes;596428;Chrome;112.0;Windows;10;undefined;undefined;1366 x 768;1366 x 768
H037;50;Mannelijk;Links;3;2;right;no;250;rightarrow;490;true;focus;yes;597714;Chrome;112.0;Windows;10;undefined;undefined;1366 x 768;1366 x 768
H037;50;Mannelijk;Links;3;3;left;no;250;leftarrow;495;true;focus;yes;598982;Chrome;112.0;Windows;10;undefined;undefined;1366 x 768;1366 x 768
H037;50;Mannelijk;Links;3;4;left;no;250;leftarrow;507;true;focus;yes;600265;Chrome;112.0;Windows;10;undefined;undefined;1366 x 768;1366 x 768
H037;50;Mannelijk;Links;3;5;left;no;250;leftarrow;519;true;focus;yes;601547;Chrome;112.0;Windows;10;undefined;undefined;1366 x 768;1366 x 768
H037;50;Mannelijk;Links;3;6;right;no;250;rightarrow;526;true;focus;yes;602859;Chrome;112.0;Windows;10;undefined;undefined;1366 x 768;1366 x 768
H037;50;Mannelijk;Links;3;7;right;yes;250;undefined;null;true;focus;yes;604891;Chrome;112.0;Windows;10;undefined;undefined;1366 x 768;1366 x 768
H037;50;Mannelijk;Links;3;8;right;no;300;rightarrow;515;true;focus;yes;606195;Chrome;112.0;Windows;10;undefined;undefined;1366 x 768;1366 x 768
H037;50;Mannelijk;Links;3;9;left;yes;300;undefined;null;true;focus;yes;608238;Chrome;112.0;Windows;10;undefined;undefined;1366 x 768;1366 x 768
H037;50;Mannelijk;Links;3;10;right;no;350;rightarrow;434;true;focus;yes;609459;Chrome;112.0;Windows;10;undefined;undefined;1366 x 768;1366 x 768
H037;50;Mannelijk;Links;3;11;right;no;350;rightarrow;527;true;focus;yes;610763;Chrome;112.0;Windows;10;undefined;undefined;1366 x 768;1366 x 768
H037;50;Mannelijk;Links;3;12;right;no;350;rightarrow;594;true;focus;yes;612139;Chrome;112.0;Windows;10;undefined;undefined;1366 x 768;1366 x 768
H037;50;Mannelijk;Links;3;13;left;no;350;leftarrow;602;true;focus;yes;613516;Chrome;112.0;Windows;10;undefined;undefined;1366 x 768;1366 x 768
H037;50;Mannelijk;Links;3;14;right;yes;350;rightarrow;504;false;focus;yes;614798;Chrome;112.0;Windows;10;undefined;undefined;1366 x 768;1366 x 768
H037;50;Mannelijk;Links;3;15;left;no;300;leftarrow;508;true;focus;yes;616103;Chrome;112.0;Windows;10;undefined;undefined;1366 x 768;1366 x 768
H037;50;Mannelijk;Links;3;16;left;no;300;leftarrow;576;true;focus;yes;617468;Chrome;112.0;Windows;10;undefined;undefined;1366 x 768;1366 x 768
H037;50;Mannelijk;Links;3;17;left;no;300;leftarrow;587;true;focus;yes;618834;Chrome;112.0;Windows;10;undefined;undefined;1366 x 768;1366 x 768
H037;50;Mannelijk;Links;3;18;left;no;300;leftarrow;691;true;focus;yes;620299;Chrome;112.0;Windows;10;undefined;undefined;1366 x 768;1366 x 768
H037;50;Mannelijk;Links;3;19;right;no;300;rightarrow;550;true;focus;yes;621611;Chrome;112.0;Windows;10;undefined;undefined;1366 x 768;1366 x 768
H037;50;Mannelijk;Links;3;20;right;no;300;rightarrow;512;true;focus;yes;622895;Chrome;112.0;Windows;10;undefined;undefined;1366 x 768;1366 x 768
H037;50;Mannelijk;Links;3;21;left;no;300;leftarrow;596;true;focus;yes;624252;Chrome;112.0;Windows;10;undefined;undefined;1366 x 768;1366 x 768
H037;50;Mannelijk;Links;3;22;right;yes;300;undefined;null;true;focus;yes;626291;Chrome;112.0;Windows;10;undefined;undefined;1366 x 768;1366 x 768
H037;50;Mannelijk;Links;3;23;left;yes;350;leftarrow;553;false;focus;yes;627621;Chrome;112.0;Windows;10;undefined;undefined;1366 x 768;1366 x 768
H037;50;Mannelijk;Links;3;24;right;no;300;rightarrow;582;true;focus;yes;628977;Chrome;112.0;Windows;10;undefined;undefined;1366 x 768;1366 x 768
H037;50;Mannelijk;Links;3;25;right;yes;300;undefined;null;true;focus;yes;631025;Chrome;112.0;Windows;10;undefined;undefined;1366 x 768;1366 x 768
H037;50;Mannelijk;Links;3;26;right;no;350;rightarrow;521;true;focus;yes;632330;Chrome;112.0;Windows;10;undefined;undefined;1366 x 768;1366 x 768
H037;50;Mannelijk;Links;3;27;right;no;350;rightarrow;515;true;focus;yes;633621;Chrome;112.0;Windows;10;undefined;undefined;1366 x 768;1366 x 768
H037;50;Mannelijk;Links;3;28;left;no;350;leftarrow;475;true;focus;yes;634873;Chrome;112.0;Windows;10;undefined;undefined;1366 x 768;1366 x 768
H037;50;Mannelijk;Links;3;29;left;no;350;leftarrow;677;true;focus;yes;636310;Chrome;112.0;Windows;10;undefined;undefined;1366 x 768;1366 x 768
H037;50;Mannelijk;Links;3;30;left;no;350;leftarrow;509;true;focus;yes;637582;Chrome;112.0;Windows;10;undefined;undefined;1366 x 768;1366 x 768
H037;50;Mannelijk;Links;3;31;left;yes;350;undefined;null;true;focus;yes;639596;Chrome;112.0;Windows;10;undefined;undefined;1366 x 768;1366 x 768
H037;50;Mannelijk;Links;3;32;right;no;400;rightarrow;389;true;focus;yes;640768;Chrome;112.0;Windows;10;undefined;undefined;1366 x 768;1366 x 768
H037;50;Mannelijk;Links;3;33;left;no;400;leftarrow;541;true;focus;yes;642095;Chrome;112.0;Windows;10;undefined;undefined;1366 x 768;1366 x 768
H037;50;Mannelijk;Links;3;34;right;no;400;rightarrow;531;true;focus;yes;643390;Chrome;112.0;Windows;10;undefined;undefined;1366 x 768;1366 x 768
H037;50;Mannelijk;Links;3;35;left;no;400;leftarrow;596;true;focus;yes;644760;Chrome;112.0;Windows;10;undefined;undefined;1366 x 768;1366 x 768
H037;50;Mannelijk;Links;3;36;right;yes;400;rightarrow;494;false;focus;yes;646029;Chrome;112.0;Windows;10;undefined;undefined;1366 x 768;1366 x 768
H037;50;Mannelijk;Links;3;37;left;yes;350;leftarrow;559;false;focus;yes;647355;Chrome;112.0;Windows;10;undefined;undefined;1366 x 768;1366 x 768
H037;50;Mannelijk;Links;3;38;right;no;300;rightarrow;569;true;focus;yes;648704;Chrome;112.0;Windows;10;undefined;undefined;1366 x 768;1366 x 768
H037;50;Mannelijk;Links;3;39;left;no;300;leftarrow;540;true;focus;yes;650028;Chrome;112.0;Windows;10;undefined;undefined;1366 x 768;1366 x 768
H037;50;Mannelijk;Links;3;40;right;no;300;rightarrow;535;true;focus;yes;651327;Chrome;112.0;Windows;10;undefined;undefined;1366 x 768;1366 x 768
H037;50;Mannelijk;Links;3;41;right;yes;300;undefined;null;true;focus;yes;653362;Chrome;112.0;Windows;10;undefined;undefined;1366 x 768;1366 x 768
H037;50;Mannelijk;Links;3;42;right;no;350;rightarrow;487;true;focus;yes;654623;Chrome;112.0;Windows;10;undefined;undefined;1366 x 768;1366 x 768
H037;50;Mannelijk;Links;3;43;right;no;350;rightarrow;527;true;focus;yes;655930;Chrome;112.0;Windows;10;undefined;undefined;1366 x 768;1366 x 768
H037;50;Mannelijk;Links;3;44;left;yes;350;leftarrow;515;false;focus;yes;657227;Chrome;112.0;Windows;10;undefined;undefined;1366 x 768;1366 x 768
H037;50;Mannelijk;Links;3;45;left;no;300;leftarrow;552;true;focus;yes;658555;Chrome;112.0;Windows;10;undefined;undefined;1366 x 768;1366 x 768
H037;50;Mannelijk;Links;3;46;right;no;300;rightarrow;561;true;focus;yes;659885;Chrome;112.0;Windows;10;undefined;undefined;1366 x 768;1366 x 768
H037;50;Mannelijk;Links;3;47;left;no;300;leftarrow;510;true;focus;yes;661184;Chrome;112.0;Windows;10;undefined;undefined;1366 x 768;1366 x 768
H037;50;Mannelijk;Links;3;48;left;no;300;leftarrow;670;true;focus;yes;662620;Chrome;112.0;Windows;10;undefined;undefined;1366 x 768;1366 x 768
H037;50;Mannelijk;Links;3;49;right;no;300;rightarrow;568;true;focus;yes;663974;Chrome;112.0;Windows;10;undefined;undefined;1366 x 768;1366 x 768
H037;50;Mannelijk;Links;3;50;right;no;300;rightarrow;686;true;focus;yes;665429;Chrome;112.0;Windows;10;undefined;undefined;1366 x 768;1366 x 768
H037;50;Mannelijk;Links;3;51;left;no;300;leftarrow;653;true;focus;yes;666855;Chrome;112.0;Windows;10;undefined;undefined;1366 x 768;1366 x 768
H037;50;Mannelijk;Links;3;52;left;yes;300;undefined;null;true;focus;yes;668889;Chrome;112.0;Windows;10;undefined;undefined;1366 x 768;1366 x 768
H037;50;Mannelijk;Links;3;53;right;yes;350;rightarrow;548;false;focus;yes;670211;Chrome;112.0;Windows;10;undefined;undefined;1366 x 768;1366 x 768
H037;50;Mannelijk;Links;3;54;left;no;300;leftarrow;606;true;focus;yes;671601;Chrome;112.0;Windows;10;undefined;undefined;1366 x 768;1366 x 768
H037;50;Mannelijk;Links;3;55;right;no;300;rightarrow;595;true;focus;yes;672966;Chrome;112.0;Windows;10;undefined;undefined;1366 x 768;1366 x 768
H037;50;Mannelijk;Links;3;56;left;no;300;leftarrow;598;true;focus;yes;674346;Chrome;112.0;Windows;10;undefined;undefined;1366 x 768;1366 x 768
H037;50;Mannelijk;Links;3;57;right;yes;300;rightarrow;519;false;focus;yes;675640;Chrome;112.0;Windows;10;undefined;undefined;1366 x 768;1366 x 768
H037;50;Mannelijk;Links;3;58;right;no;250;rightarrow;627;true;focus;yes;677035;Chrome;112.0;Windows;10;undefined;undefined;1366 x 768;1366 x 768
H037;50;Mannelijk;Links;3;59;left;yes;250;undefined;null;true;focus;yes;679048;Chrome;112.0;Windows;10;undefined;undefined;1366 x 768;1366 x 768
H037;50;Mannelijk;Links;3;60;left;no;300;leftarrow;517;true;focus;yes;680340;Chrome;112.0;Windows;10;undefined;undefined;1366 x 768;1366 x 768
H037;50;Mannelijk;Links;3;61;left;no;300;leftarrow;557;true;focus;yes;681679;Chrome;112.0;Windows;10;undefined;undefined;1366 x 768;1366 x 768
H037;50;Mannelijk;Links;3;62;right;no;300;rightarrow;590;true;focus;yes;683069;Chrome;112.0;Windows;10;undefined;undefined;1366 x 768;1366 x 768
H037;50;Mannelijk;Links;3;63;right;no;300;rightarrow;616;true;focus;yes;684453;Chrome;112.0;Windows;10;undefined;undefined;1366 x 768;1366 x 768
H037;50;Mannelijk;Links;3;64;left;no;300;leftarrow;643;true;focus;yes;685865;Chrome;112.0;Windows;10;undefined;undefined;1366 x 768;1366 x 768
H037;50;Mannelijk;Links;3;65;right;no;300;rightarrow;533;true;focus;yes;687161;Chrome;112.0;Windows;10;undefined;undefined;1366 x 768;1366 x 768
H037;50;Mannelijk;Links;3;66;left;no;300;leftarrow;637;true;focus;yes;688585;Chrome;112.0;Windows;10;undefined;undefined;1366 x 768;1366 x 768
H037;50;Mannelijk;Links;3;67;left;no;300;leftarrow;660;true;focus;yes;690027;Chrome;112.0;Windows;10;undefined;undefined;1366 x 768;1366 x 768
H037;50;Mannelijk;Links;3;68;left;yes;300;undefined;null;true;focus;yes;692068;Chrome;112.0;Windows;10;undefined;undefined;1366 x 768;1366 x 768
H037;50;Mannelijk;Links;3;69;right;no;350;rightarrow;551;true;focus;yes;693405;Chrome;112.0;Windows;10;undefined;undefined;1366 x 768;1366 x 768
H037;50;Mannelijk;Links;3;70;right;yes;350;rightarrow;544;false;focus;yes;694722;Chrome;112.0;Windows;10;undefined;undefined;1366 x 768;1366 x 768
H037;50;Mannelijk;Links;3;71;left;no;300;leftarrow;539;true;focus;yes;696039;Chrome;112.0;Windows;10;undefined;undefined;1366 x 768;1366 x 768
H037;50;Mannelijk;Links;3;72;right;no;300;rightarrow;645;true;focus;yes;697474;Chrome;112.0;Windows;10;undefined;undefined;1366 x 768;1366 x 768
H037;50;Mannelijk;Links;3;73;left;no;300;leftarrow;603;true;focus;yes;698850;Chrome;112.0;Windows;10;undefined;undefined;1366 x 768;1366 x 768
H037;50;Mannelijk;Links;3;74;left;no;300;leftarrow;594;true;focus;yes;700222;Chrome;112.0;Windows;10;undefined;undefined;1366 x 768;1366 x 768
H037;50;Mannelijk;Links;3;75;right;yes;300;rightarrow;739;false;focus;yes;701749;Chrome;112.0;Windows;10;undefined;undefined;1366 x 768;1366 x 768
H037;50;Mannelijk;Links;3;76;left;no;250;leftarrow;604;true;focus;yes;703116;Chrome;112.0;Windows;10;undefined;undefined;1366 x 768;1366 x 768
H037;50;Mannelijk;Links;3;77;left;yes;250;undefined;null;true;focus;yes;705155;Chrome;112.0;Windows;10;undefined;undefined;1366 x 768;1366 x 768
H037;50;Mannelijk;Links;3;78;right;no;300;rightarrow;552;true;focus;yes;706492;Chrome;112.0;Windows;10;undefined;undefined;1366 x 768;1366 x 768
H037;50;Mannelijk;Links;3;79;right;no;300;rightarrow;598;true;focus;yes;707877;Chrome;112.0;Windows;10;undefined;undefined;1366 x 768;1366 x 768
H037;50;Mannelijk;Links;3;80;right;no;300;rightarrow;575;true;focus;yes;709212;Chrome;112.0;Windows;10;undefined;undefined;1366 x 768;1366 x 768
H037;50;Mannelijk;Links;3;81;right;no;300;rightarrow;693;true;focus;yes;710684;Chrome;112.0;Windows;10;undefined;undefined;1366 x 768;1366 x 768
H037;50;Mannelijk;Links;3;82;right;yes;300;undefined;null;true;focus;yes;712707;Chrome;112.0;Windows;10;undefined;undefined;1366 x 768;1366 x 768
H037;50;Mannelijk;Links;3;83;left;no;350;leftarrow;543;true;focus;yes;714046;Chrome;112.0;Windows;10;undefined;undefined;1366 x 768;1366 x 768
H037;50;Mannelijk;Links;3;84;left;yes;350;undefined;null;true;focus;yes;716081;Chrome;112.0;Windows;10;undefined;undefined;1366 x 768;1366 x 768
H037;50;Mannelijk;Links;3;85;left;no;400;leftarrow;618;true;focus;yes;717466;Chrome;112.0;Windows;10;undefined;undefined;1366 x 768;1366 x 768
H037;50;Mannelijk;Links;3;86;left;no;400;leftarrow;545;true;focus;yes;718799;Chrome;112.0;Windows;10;undefined;undefined;1366 x 768;1366 x 768
H037;50;Mannelijk;Links;3;87;right;no;400;rightarrow;610;true;focus;yes;720184;Chrome;112.0;Windows;10;undefined;undefined;1366 x 768;1366 x 768
H037;50;Mannelijk;Links;3;88;right;no;400;rightarrow;518;true;focus;yes;721468;Chrome;112.0;Windows;10;undefined;undefined;1366 x 768;1366 x 768
H037;50;Mannelijk;Links;3;89;left;yes;400;leftarrow;596;false;focus;yes;722846;Chrome;112.0;Windows;10;undefined;undefined;1366 x 768;1366 x 768
H037;50;Mannelijk;Links;3;90;right;no;350;rightarrow;596;true;focus;yes;724244;Chrome;112.0;Windows;10;undefined;undefined;1366 x 768;1366 x 768
H037;50;Mannelijk;Links;3;91;left;no;350;leftarrow;509;true;focus;yes;725532;Chrome;112.0;Windows;10;undefined;undefined;1366 x 768;1366 x 768
H037;50;Mannelijk;Links;3;92;left;no;350;leftarrow;556;true;focus;yes;726866;Chrome;112.0;Windows;10;undefined;undefined;1366 x 768;1366 x 768
H037;50;Mannelijk;Links;3;93;right;yes;350;rightarrow;541;false;focus;yes;728175;Chrome;112.0;Windows;10;undefined;undefined;1366 x 768;1366 x 768
H037;50;Mannelijk;Links;3;94;right;no;300;rightarrow;602;true;focus;yes;729542;Chrome;112.0;Windows;10;undefined;undefined;1366 x 768;1366 x 768
H037;50;Mannelijk;Links;3;95;right;no;300;rightarrow;574;true;focus;yes;730900;Chrome;112.0;Windows;10;undefined;undefined;1366 x 768;1366 x 768
H037;50;Mannelijk;Links;3;96;left;no;300;leftarrow;607;true;focus;yes;732285;Chrome;112.0;Windows;10;undefined;undefined;1366 x 768;1366 x 768
H037;50;Mannelijk;Links;3;97;left;no;300;leftarrow;524;true;focus;yes;733577;Chrome;112.0;Windows;10;undefined;undefined;1366 x 768;1366 x 768
H037;50;Mannelijk;Links;3;98;left;no;300;leftarrow;591;true;focus;yes;734929;Chrome;112.0;Windows;10;undefined;undefined;1366 x 768;1366 x 768
H037;50;Mannelijk;Links;3;99;right;no;300;rightarrow;706;true;focus;yes;736413;Chrome;112.0;Windows;10;undefined;undefined;1366 x 768;1366 x 768
H037;50;Mannelijk;Links;3;100;left;yes;300;undefined;null;true;focus;yes;738452;Chrome;112.0;Windows;10;undefined;undefined;1366 x 768;1366 x 768
H037;50;Mannelijk;Links;3;101;right;no;350;rightarrow;666;true;focus;yes;739909;Chrome;112.0;Windows;10;undefined;undefined;1366 x 768;1366 x 768
H037;50;Mannelijk;Links;3;102;right;no;350;rightarrow;533;true;focus;yes;741214;Chrome;112.0;Windows;10;undefined;undefined;1366 x 768;1366 x 768
H037;50;Mannelijk;Links;3;103;left;no;350;leftarrow;495;true;focus;yes;742499;Chrome;112.0;Windows;10;undefined;undefined;1366 x 768;1366 x 768
H037;50;Mannelijk;Links;3;104;right;yes;350;undefined;null;true;focus;yes;744531;Chrome;112.0;Windows;10;undefined;undefined;1366 x 768;1366 x 768
H037;50;Mannelijk;Links;3;105;right;yes;400;rightarrow;594;false;focus;yes;745914;Chrome;112.0;Windows;10;undefined;undefined;1366 x 768;1366 x 768
H037;50;Mannelijk;Links;3;106;right;no;350;rightarrow;636;true;focus;yes;747328;Chrome;112.0;Windows;10;undefined;undefined;1366 x 768;1366 x 768
H037;50;Mannelijk;Links;3;107;right;no;350;rightarrow;592;true;focus;yes;748709;Chrome;112.0;Windows;10;undefined;undefined;1366 x 768;1366 x 768
H037;50;Mannelijk;Links;3;108;right;no;350;rightarrow;760;true;focus;yes;750247;Chrome;112.0;Windows;10;undefined;undefined;1366 x 768;1366 x 768
H037;50;Mannelijk;Links;3;109;left;no;350;leftarrow;728;true;focus;yes;751739;Chrome;112.0;Windows;10;undefined;undefined;1366 x 768;1366 x 768
H037;50;Mannelijk;Links;3;110;left;no;350;leftarrow;403;true;focus;yes;752920;Chrome;112.0;Windows;10;undefined;undefined;1366 x 768;1366 x 768
H037;50;Mannelijk;Links;3;111;left;no;350;leftarrow;632;true;focus;yes;754335;Chrome;112.0;Windows;10;undefined;undefined;1366 x 768;1366 x 768
H037;50;Mannelijk;Links;3;112;left;yes;350;leftarrow;468;false;focus;yes;755577;Chrome;112.0;Windows;10;undefined;undefined;1366 x 768;1366 x 768
H037;50;Mannelijk;Links;3;113;left;yes;300;undefined;null;true;focus;yes;757601;Chrome;112.0;Windows;10;undefined;undefined;1366 x 768;1366 x 768
H037;50;Mannelijk;Links;3;114;left;no;350;leftarrow;560;true;focus;yes;758935;Chrome;112.0;Windows;10;undefined;undefined;1366 x 768;1366 x 768
H037;50;Mannelijk;Links;3;115;right;no;350;rightarrow;550;true;focus;yes;760272;Chrome;112.0;Windows;10;undefined;undefined;1366 x 768;1366 x 768
H037;50;Mannelijk;Links;3;116;right;no;350;rightarrow;558;true;focus;yes;761615;Chrome;112.0;Windows;10;undefined;undefined;1366 x 768;1366 x 768
H037;50;Mannelijk;Links;3;117;right;no;350;rightarrow;561;true;focus;yes;762955;Chrome;112.0;Windows;10;undefined;undefined;1366 x 768;1366 x 768
H037;50;Mannelijk;Links;3;118;left;no;350;leftarrow;590;true;focus;yes;764312;Chrome;112.0;Windows;10;undefined;undefined;1366 x 768;1366 x 768
H037;50;Mannelijk;Links;3;119;right;yes;350;rightarrow;548;false;focus;yes;765629;Chrome;112.0;Windows;10;undefined;undefined;1366 x 768;1366 x 768
H037;50;Mannelijk;Links;3;120;left;no;300;leftarrow;588;true;focus;yes;766995;Chrome;112.0;Windows;10;undefined;undefined;1366 x 768;1366 x 768
H037;50;Mannelijk;Links;3;121;left;no;300;leftarrow;557;true;focus;yes;768319;Chrome;112.0;Windows;10;undefined;undefined;1366 x 768;1366 x 768
H037;50;Mannelijk;Links;3;122;left;no;300;leftarrow;507;true;focus;yes;769604;Chrome;112.0;Windows;10;undefined;undefined;1366 x 768;1366 x 768
H037;50;Mannelijk;Links;3;123;right;yes;300;undefined;null;true;focus;yes;771646;Chrome;112.0;Windows;10;undefined;undefined;1366 x 768;1366 x 768
H037;50;Mannelijk;Links;3;124;left;yes;350;undefined;null;true;focus;yes;773673;Chrome;112.0;Windows;10;undefined;undefined;1366 x 768;1366 x 768
H037;50;Mannelijk;Links;3;125;right;no;400;rightarrow;532;true;focus;yes;774978;Chrome;112.0;Windows;10;undefined;undefined;1366 x 768;1366 x 768
H037;50;Mannelijk;Links;3;126;right;no;400;rightarrow;530;true;focus;yes;776294;Chrome;112.0;Windows;10;undefined;undefined;1366 x 768;1366 x 768
H037;50;Mannelijk;Links;3;127;right;no;400;rightarrow;579;true;focus;yes;777650;Chrome;112.0;Windows;10;undefined;undefined;1366 x 768;1366 x 768
H037;50;Mannelijk;Links;3;128;left;no;400;leftarrow;548;true;focus;yes;778976;Chrome;112.0;Windows;10;undefined;undefined;1366 x 768;1366 x 768
H037;50;Mannelijk;Links;4;1;left;no;400;leftarrow;444;true;focus;yes;798376;Chrome;112.0;Windows;10;undefined;undefined;1366 x 768;1366 x 768
H037;50;Mannelijk;Links;4;2;left;no;400;leftarrow;545;true;focus;yes;799703;Chrome;112.0;Windows;10;undefined;undefined;1366 x 768;1366 x 768
H037;50;Mannelijk;Links;4;3;right;no;400;rightarrow;599;true;focus;yes;801069;Chrome;112.0;Windows;10;undefined;undefined;1366 x 768;1366 x 768
H037;50;Mannelijk;Links;4;4;left;no;400;leftarrow;526;true;focus;yes;802366;Chrome;112.0;Windows;10;undefined;undefined;1366 x 768;1366 x 768
H037;50;Mannelijk;Links;4;5;right;no;400;rightarrow;527;true;focus;yes;803671;Chrome;112.0;Windows;10;undefined;undefined;1366 x 768;1366 x 768
H037;50;Mannelijk;Links;4;6;right;yes;400;rightarrow;577;false;focus;yes;805026;Chrome;112.0;Windows;10;undefined;undefined;1366 x 768;1366 x 768
H037;50;Mannelijk;Links;4;7;right;no;350;rightarrow;640;true;focus;yes;806431;Chrome;112.0;Windows;10;undefined;undefined;1366 x 768;1366 x 768
H037;50;Mannelijk;Links;4;8;left;yes;350;undefined;null;true;focus;yes;808461;Chrome;112.0;Windows;10;undefined;undefined;1366 x 768;1366 x 768
H037;50;Mannelijk;Links;4;9;left;no;400;leftarrow;603;true;focus;yes;809834;Chrome;112.0;Windows;10;undefined;undefined;1366 x 768;1366 x 768
H037;50;Mannelijk;Links;4;10;left;no;400;leftarrow;570;true;focus;yes;811188;Chrome;112.0;Windows;10;undefined;undefined;1366 x 768;1366 x 768
H037;50;Mannelijk;Links;4;11;right;no;400;rightarrow;568;true;focus;yes;812532;Chrome;112.0;Windows;10;undefined;undefined;1366 x 768;1366 x 768
H037;50;Mannelijk;Links;4;12;right;no;400;rightarrow;540;true;focus;yes;813851;Chrome;112.0;Windows;10;undefined;undefined;1366 x 768;1366 x 768
H037;50;Mannelijk;Links;4;13;left;no;400;leftarrow;590;true;focus;yes;815217;Chrome;112.0;Windows;10;undefined;undefined;1366 x 768;1366 x 768
H037;50;Mannelijk;Links;4;14;right;no;400;rightarrow;541;true;focus;yes;816527;Chrome;112.0;Windows;10;undefined;undefined;1366 x 768;1366 x 768
H037;50;Mannelijk;Links;4;15;left;yes;400;leftarrow;530;false;focus;yes;817831;Chrome;112.0;Windows;10;undefined;undefined;1366 x 768;1366 x 768
H037;50;Mannelijk;Links;4;16;right;yes;350;undefined;null;true;focus;yes;819870;Chrome;112.0;Windows;10;undefined;undefined;1366 x 768;1366 x 768
H037;50;Mannelijk;Links;4;17;left;no;400;leftarrow;539;true;focus;yes;821195;Chrome;112.0;Windows;10;undefined;undefined;1366 x 768;1366 x 768
H037;50;Mannelijk;Links;4;18;right;no;400;rightarrow;607;true;focus;yes;822582;Chrome;112.0;Windows;10;undefined;undefined;1366 x 768;1366 x 768
H037;50;Mannelijk;Links;4;19;right;no;400;rightarrow;564;true;focus;yes;823913;Chrome;112.0;Windows;10;undefined;undefined;1366 x 768;1366 x 768
H037;50;Mannelijk;Links;4;20;left;no;400;leftarrow;747;true;focus;yes;825433;Chrome;112.0;Windows;10;undefined;undefined;1366 x 768;1366 x 768
H037;50;Mannelijk;Links;4;21;right;no;400;rightarrow;537;true;focus;yes;826744;Chrome;112.0;Windows;10;undefined;undefined;1366 x 768;1366 x 768
H037;50;Mannelijk;Links;4;22;left;yes;400;leftarrow;439;false;focus;yes;827967;Chrome;112.0;Windows;10;undefined;undefined;1366 x 768;1366 x 768
H037;50;Mannelijk;Links;4;23;right;yes;350;rightarrow;500;false;focus;yes;829237;Chrome;112.0;Windows;10;undefined;undefined;1366 x 768;1366 x 768
H037;50;Mannelijk;Links;4;24;left;no;300;leftarrow;529;true;focus;yes;830554;Chrome;112.0;Windows;10;undefined;undefined;1366 x 768;1366 x 768
H037;50;Mannelijk;Links;4;25;left;yes;300;undefined;null;true;focus;yes;832589;Chrome;112.0;Windows;10;undefined;undefined;1366 x 768;1366 x 768
H037;50;Mannelijk;Links;4;26;right;no;350;rightarrow;548;true;focus;yes;833898;Chrome;112.0;Windows;10;undefined;undefined;1366 x 768;1366 x 768
H037;50;Mannelijk;Links;4;27;left;no;350;leftarrow;562;true;focus;yes;835236;Chrome;112.0;Windows;10;undefined;undefined;1366 x 768;1366 x 768
H037;50;Mannelijk;Links;4;28;left;no;350;leftarrow;610;true;focus;yes;836622;Chrome;112.0;Windows;10;undefined;undefined;1366 x 768;1366 x 768
H037;50;Mannelijk;Links;4;29;right;no;350;rightarrow;621;true;focus;yes;838039;Chrome;112.0;Windows;10;undefined;undefined;1366 x 768;1366 x 768
H037;50;Mannelijk;Links;4;30;right;no;350;rightarrow;655;true;focus;yes;839462;Chrome;112.0;Windows;10;undefined;undefined;1366 x 768;1366 x 768
H037;50;Mannelijk;Links;4;31;right;yes;350;undefined;null;true;focus;yes;841478;Chrome;112.0;Windows;10;undefined;undefined;1366 x 768;1366 x 768
H037;50;Mannelijk;Links;4;32;left;no;400;leftarrow;571;true;focus;yes;842835;Chrome;112.0;Windows;10;undefined;undefined;1366 x 768;1366 x 768
H037;50;Mannelijk;Links;4;33;right;no;400;rightarrow;572;true;focus;yes;844179;Chrome;112.0;Windows;10;undefined;undefined;1366 x 768;1366 x 768
H037;50;Mannelijk;Links;4;34;right;no;400;rightarrow;620;true;focus;yes;845568;Chrome;112.0;Windows;10;undefined;undefined;1366 x 768;1366 x 768
H037;50;Mannelijk;Links;4;35;left;no;400;leftarrow;614;true;focus;yes;846950;Chrome;112.0;Windows;10;undefined;undefined;1366 x 768;1366 x 768
H037;50;Mannelijk;Links;4;36;left;no;400;leftarrow;522;true;focus;yes;848264;Chrome;112.0;Windows;10;undefined;undefined;1366 x 768;1366 x 768
H037;50;Mannelijk;Links;4;37;left;no;400;leftarrow;473;true;focus;yes;849505;Chrome;112.0;Windows;10;undefined;undefined;1366 x 768;1366 x 768
H037;50;Mannelijk;Links;4;38;right;yes;400;rightarrow;601;false;focus;yes;850874;Chrome;112.0;Windows;10;undefined;undefined;1366 x 768;1366 x 768
H037;50;Mannelijk;Links;4;39;right;no;350;rightarrow;598;true;focus;yes;852243;Chrome;112.0;Windows;10;undefined;undefined;1366 x 768;1366 x 768
H037;50;Mannelijk;Links;4;40;left;yes;350;leftarrow;568;false;focus;yes;853598;Chrome;112.0;Windows;10;undefined;undefined;1366 x 768;1366 x 768
H037;50;Mannelijk;Links;4;41;right;no;300;rightarrow;556;true;focus;yes;854926;Chrome;112.0;Windows;10;undefined;undefined;1366 x 768;1366 x 768
H037;50;Mannelijk;Links;4;42;right;yes;300;undefined;null;true;focus;yes;856946;Chrome;112.0;Windows;10;undefined;undefined;1366 x 768;1366 x 768
H037;50;Mannelijk;Links;4;43;left;no;350;leftarrow;524;true;focus;yes;858259;Chrome;112.0;Windows;10;undefined;undefined;1366 x 768;1366 x 768
H037;50;Mannelijk;Links;4;44;right;no;350;rightarrow;601;true;focus;yes;859640;Chrome;112.0;Windows;10;undefined;undefined;1366 x 768;1366 x 768
H037;50;Mannelijk;Links;4;45;left;no;350;leftarrow;645;true;focus;yes;861071;Chrome;112.0;Windows;10;undefined;undefined;1366 x 768;1366 x 768
H037;50;Mannelijk;Links;4;46;right;no;350;rightarrow;610;true;focus;yes;862475;Chrome;112.0;Windows;10;undefined;undefined;1366 x 768;1366 x 768
H037;50;Mannelijk;Links;4;47;left;no;350;leftarrow;601;true;focus;yes;863849;Chrome;112.0;Windows;10;undefined;undefined;1366 x 768;1366 x 768
H037;50;Mannelijk;Links;4;48;left;yes;350;undefined;null;true;focus;yes;865882;Chrome;112.0;Windows;10;undefined;undefined;1366 x 768;1366 x 768
H037;50;Mannelijk;Links;4;49;right;yes;400;rightarrow;614;false;focus;yes;867262;Chrome;112.0;Windows;10;undefined;undefined;1366 x 768;1366 x 768
H037;50;Mannelijk;Links;4;50;left;no;350;leftarrow;514;true;focus;yes;868558;Chrome;112.0;Windows;10;undefined;undefined;1366 x 768;1366 x 768
H037;50;Mannelijk;Links;4;51;right;no;350;rightarrow;604;true;focus;yes;869925;Chrome;112.0;Windows;10;undefined;undefined;1366 x 768;1366 x 768
H037;50;Mannelijk;Links;4;52;left;yes;350;undefined;null;true;focus;yes;871963;Chrome;112.0;Windows;10;undefined;undefined;1366 x 768;1366 x 768
H037;50;Mannelijk;Links;4;53;right;no;400;rightarrow;566;true;focus;yes;873299;Chrome;112.0;Windows;10;undefined;undefined;1366 x 768;1366 x 768
H037;50;Mannelijk;Links;4;54;left;no;400;leftarrow;582;true;focus;yes;874671;Chrome;112.0;Windows;10;undefined;undefined;1366 x 768;1366 x 768
H037;50;Mannelijk;Links;4;55;right;no;400;rightarrow;557;true;focus;yes;876003;Chrome;112.0;Windows;10;undefined;undefined;1366 x 768;1366 x 768
H037;50;Mannelijk;Links;4;56;left;no;400;leftarrow;543;true;focus;yes;877313;Chrome;112.0;Windows;10;undefined;undefined;1366 x 768;1366 x 768
H037;50;Mannelijk;Links;4;57;right;no;400;rightarrow;608;true;focus;yes;878728;Chrome;112.0;Windows;10;undefined;undefined;1366 x 768;1366 x 768
H037;50;Mannelijk;Links;4;58;left;no;400;leftarrow;613;true;focus;yes;880111;Chrome;112.0;Windows;10;undefined;undefined;1366 x 768;1366 x 768
H037;50;Mannelijk;Links;4;59;right;no;400;rightarrow;645;true;focus;yes;881533;Chrome;112.0;Windows;10;undefined;undefined;1366 x 768;1366 x 768
H037;50;Mannelijk;Links;4;60;right;no;400;rightarrow;621;true;focus;yes;882921;Chrome;112.0;Windows;10;undefined;undefined;1366 x 768;1366 x 768
H037;50;Mannelijk;Links;4;61;right;yes;400;undefined;null;true;focus;yes;884964;Chrome;112.0;Windows;10;undefined;undefined;1366 x 768;1366 x 768
H037;50;Mannelijk;Links;4;62;left;no;450;leftarrow;736;true;focus;yes;886490;Chrome;112.0;Windows;10;undefined;undefined;1366 x 768;1366 x 768
H037;50;Mannelijk;Links;4;63;left;no;450;leftarrow;506;true;focus;yes;887765;Chrome;112.0;Windows;10;undefined;undefined;1366 x 768;1366 x 768
H037;50;Mannelijk;Links;4;64;left;yes;450;leftarrow;579;false;focus;yes;889115;Chrome;112.0;Windows;10;undefined;undefined;1366 x 768;1366 x 768
H037;50;Mannelijk;Links;4;65;right;yes;400;undefined;null;true;focus;yes;891164;Chrome;112.0;Windows;10;undefined;undefined;1366 x 768;1366 x 768
H037;50;Mannelijk;Links;4;66;left;no;450;leftarrow;611;true;focus;yes;892559;Chrome;112.0;Windows;10;undefined;undefined;1366 x 768;1366 x 768
H037;50;Mannelijk;Links;4;67;left;no;450;leftarrow;594;true;focus;yes;893933;Chrome;112.0;Windows;10;undefined;undefined;1366 x 768;1366 x 768
H037;50;Mannelijk;Links;4;68;left;no;450;leftarrow;634;true;focus;yes;895329;Chrome;112.0;Windows;10;undefined;undefined;1366 x 768;1366 x 768
H037;50;Mannelijk;Links;4;69;right;no;450;rightarrow;653;true;focus;yes;896775;Chrome;112.0;Windows;10;undefined;undefined;1366 x 768;1366 x 768
H037;50;Mannelijk;Links;4;70;right;no;450;rightarrow;754;true;focus;yes;898300;Chrome;112.0;Windows;10;undefined;undefined;1366 x 768;1366 x 768
H037;50;Mannelijk;Links;4;71;right;no;450;rightarrow;577;true;focus;yes;899656;Chrome;112.0;Windows;10;undefined;undefined;1366 x 768;1366 x 768
H037;50;Mannelijk;Links;4;72;left;yes;450;leftarrow;609;false;focus;yes;901035;Chrome;112.0;Windows;10;undefined;undefined;1366 x 768;1366 x 768
H037;50;Mannelijk;Links;4;73;right;no;400;rightarrow;641;true;focus;yes;902437;Chrome;112.0;Windows;10;undefined;undefined;1366 x 768;1366 x 768
H037;50;Mannelijk;Links;4;74;left;yes;400;leftarrow;583;false;focus;yes;903798;Chrome;112.0;Windows;10;undefined;undefined;1366 x 768;1366 x 768
H037;50;Mannelijk;Links;4;75;right;no;350;rightarrow;591;true;focus;yes;905164;Chrome;112.0;Windows;10;undefined;undefined;1366 x 768;1366 x 768
H037;50;Mannelijk;Links;4;76;right;no;350;rightarrow;654;true;focus;yes;906594;Chrome;112.0;Windows;10;undefined;undefined;1366 x 768;1366 x 768
H037;50;Mannelijk;Links;4;77;left;no;350;leftarrow;797;true;focus;yes;908180;Chrome;112.0;Windows;10;undefined;undefined;1366 x 768;1366 x 768
H037;50;Mannelijk;Links;4;78;left;no;350;leftarrow;567;true;focus;yes;909537;Chrome;112.0;Windows;10;undefined;undefined;1366 x 768;1366 x 768
H037;50;Mannelijk;Links;4;79;right;yes;350;undefined;null;true;focus;yes;911576;Chrome;112.0;Windows;10;undefined;undefined;1366 x 768;1366 x 768
H037;50;Mannelijk;Links;4;80;left;no;400;leftarrow;533;true;focus;yes;912895;Chrome;112.0;Windows;10;undefined;undefined;1366 x 768;1366 x 768
H037;50;Mannelijk;Links;4;81;left;no;400;leftarrow;578;true;focus;yes;914250;Chrome;112.0;Windows;10;undefined;undefined;1366 x 768;1366 x 768
H037;50;Mannelijk;Links;4;82;left;no;400;leftarrow;672;true;focus;yes;915695;Chrome;112.0;Windows;10;undefined;undefined;1366 x 768;1366 x 768
H037;50;Mannelijk;Links;4;83;right;no;400;rightarrow;635;true;focus;yes;917105;Chrome;112.0;Windows;10;undefined;undefined;1366 x 768;1366 x 768
H037;50;Mannelijk;Links;4;84;right;no;400;rightarrow;655;true;focus;yes;918532;Chrome;112.0;Windows;10;undefined;undefined;1366 x 768;1366 x 768
H037;50;Mannelijk;Links;4;85;right;yes;400;undefined;null;true;focus;yes;920562;Chrome;112.0;Windows;10;undefined;undefined;1366 x 768;1366 x 768
H037;50;Mannelijk;Links;4;86;left;yes;450;leftarrow;541;false;focus;yes;921891;Chrome;112.0;Windows;10;undefined;undefined;1366 x 768;1366 x 768
H037;50;Mannelijk;Links;4;87;left;no;400;leftarrow;631;true;focus;yes;923317;Chrome;112.0;Windows;10;undefined;undefined;1366 x 768;1366 x 768
H037;50;Mannelijk;Links;4;88;right;no;400;rightarrow;637;true;focus;yes;924741;Chrome;112.0;Windows;10;undefined;undefined;1366 x 768;1366 x 768
H037;50;Mannelijk;Links;4;89;right;no;400;rightarrow;597;true;focus;yes;926120;Chrome;112.0;Windows;10;undefined;undefined;1366 x 768;1366 x 768
H037;50;Mannelijk;Links;4;90;left;yes;400;undefined;null;true;focus;yes;928168;Chrome;112.0;Windows;10;undefined;undefined;1366 x 768;1366 x 768
H037;50;Mannelijk;Links;4;91;right;yes;450;rightarrow;567;false;focus;yes;929520;Chrome;112.0;Windows;10;undefined;undefined;1366 x 768;1366 x 768
H037;50;Mannelijk;Links;4;92;left;no;400;leftarrow;646;true;focus;yes;930951;Chrome;112.0;Windows;10;undefined;undefined;1366 x 768;1366 x 768
H037;50;Mannelijk;Links;4;93;right;no;400;rightarrow;671;true;focus;yes;932395;Chrome;112.0;Windows;10;undefined;undefined;1366 x 768;1366 x 768
H037;50;Mannelijk;Links;4;94;right;no;400;rightarrow;491;true;focus;yes;933674;Chrome;112.0;Windows;10;undefined;undefined;1366 x 768;1366 x 768
H037;50;Mannelijk;Links;4;95;left;no;400;leftarrow;641;true;focus;yes;935101;Chrome;112.0;Windows;10;undefined;undefined;1366 x 768;1366 x 768
H037;50;Mannelijk;Links;4;96;left;no;400;leftarrow;704;true;focus;yes;936565;Chrome;112.0;Windows;10;undefined;undefined;1366 x 768;1366 x 768
H037;50;Mannelijk;Links;4;97;left;no;400;leftarrow;756;true;focus;yes;938104;Chrome;112.0;Windows;10;undefined;undefined;1366 x 768;1366 x 768
H037;50;Mannelijk;Links;4;98;right;yes;400;rightarrow;571;false;focus;yes;939457;Chrome;112.0;Windows;10;undefined;undefined;1366 x 768;1366 x 768
H037;50;Mannelijk;Links;4;99;left;no;350;leftarrow;645;true;focus;yes;940883;Chrome;112.0;Windows;10;undefined;undefined;1366 x 768;1366 x 768
H037;50;Mannelijk;Links;4;100;left;yes;350;undefined;null;true;focus;yes;942911;Chrome;112.0;Windows;10;undefined;undefined;1366 x 768;1366 x 768
H037;50;Mannelijk;Links;4;101;right;no;400;rightarrow;693;true;focus;yes;944382;Chrome;112.0;Windows;10;undefined;undefined;1366 x 768;1366 x 768
H037;50;Mannelijk;Links;4;102;left;no;400;leftarrow;617;true;focus;yes;945778;Chrome;112.0;Windows;10;undefined;undefined;1366 x 768;1366 x 768
H037;50;Mannelijk;Links;4;103;right;no;400;rightarrow;668;true;focus;yes;947220;Chrome;112.0;Windows;10;undefined;undefined;1366 x 768;1366 x 768
H037;50;Mannelijk;Links;4;104;right;no;400;rightarrow;681;true;focus;yes;948688;Chrome;112.0;Windows;10;undefined;undefined;1366 x 768;1366 x 768
H037;50;Mannelijk;Links;4;105;right;no;400;rightarrow;686;true;focus;yes;950165;Chrome;112.0;Windows;10;undefined;undefined;1366 x 768;1366 x 768
H037;50;Mannelijk;Links;4;106;right;yes;400;rightarrow;593;false;focus;yes;951544;Chrome;112.0;Windows;10;undefined;undefined;1366 x 768;1366 x 768
H037;50;Mannelijk;Links;4;107;right;no;350;rightarrow;889;true;focus;yes;953212;Chrome;112.0;Windows;10;undefined;undefined;1366 x 768;1366 x 768
H037;50;Mannelijk;Links;4;108;left;no;350;leftarrow;704;true;focus;yes;954702;Chrome;112.0;Windows;10;undefined;undefined;1366 x 768;1366 x 768
H037;50;Mannelijk;Links;4;109;right;no;350;rightarrow;623;true;focus;yes;956090;Chrome;112.0;Windows;10;undefined;undefined;1366 x 768;1366 x 768
H037;50;Mannelijk;Links;4;110;left;no;350;leftarrow;607;true;focus;yes;957470;Chrome;112.0;Windows;10;undefined;undefined;1366 x 768;1366 x 768
H037;50;Mannelijk;Links;4;111;left;yes;350;undefined;null;true;focus;yes;959504;Chrome;112.0;Windows;10;undefined;undefined;1366 x 768;1366 x 768
H037;50;Mannelijk;Links;4;112;left;no;400;leftarrow;629;true;focus;yes;960908;Chrome;112.0;Windows;10;undefined;undefined;1366 x 768;1366 x 768
H037;50;Mannelijk;Links;4;113;right;no;400;rightarrow;528;true;focus;yes;962208;Chrome;112.0;Windows;10;undefined;undefined;1366 x 768;1366 x 768
H037;50;Mannelijk;Links;4;114;left;yes;400;leftarrow;571;false;focus;yes;963557;Chrome;112.0;Windows;10;undefined;undefined;1366 x 768;1366 x 768
H037;50;Mannelijk;Links;4;115;left;no;350;leftarrow;616;true;focus;yes;964956;Chrome;112.0;Windows;10;undefined;undefined;1366 x 768;1366 x 768
H037;50;Mannelijk;Links;4;116;right;yes;350;undefined;null;true;focus;yes;966982;Chrome;112.0;Windows;10;undefined;undefined;1366 x 768;1366 x 768
H037;50;Mannelijk;Links;4;117;left;no;400;leftarrow;550;true;focus;yes;968302;Chrome;112.0;Windows;10;undefined;undefined;1366 x 768;1366 x 768
H037;50;Mannelijk;Links;4;118;left;no;400;leftarrow;595;true;focus;yes;969670;Chrome;112.0;Windows;10;undefined;undefined;1366 x 768;1366 x 768
H037;50;Mannelijk;Links;4;119;right;no;400;rightarrow;666;true;focus;yes;971114;Chrome;112.0;Windows;10;undefined;undefined;1366 x 768;1366 x 768
H037;50;Mannelijk;Links;4;120;right;no;400;rightarrow;742;true;focus;yes;972644;Chrome;112.0;Windows;10;undefined;undefined;1366 x 768;1366 x 768
H037;50;Mannelijk;Links;4;121;left;no;400;leftarrow;622;true;focus;yes;974061;Chrome;112.0;Windows;10;undefined;undefined;1366 x 768;1366 x 768
H037;50;Mannelijk;Links;4;122;left;yes;400;leftarrow;627;false;focus;yes;975476;Chrome;112.0;Windows;10;undefined;undefined;1366 x 768;1366 x 768
H037;50;Mannelijk;Links;4;123;right;yes;350;undefined;null;true;focus;yes;977502;Chrome;112.0;Windows;10;undefined;undefined;1366 x 768;1366 x 768
H037;50;Mannelijk;Links;4;124;left;no;400;leftarrow;574;true;focus;yes;978859;Chrome;112.0;Windows;10;undefined;undefined;1366 x 768;1366 x 768
H037;50;Mannelijk;Links;4;125;left;no;400;leftarrow;700;true;focus;yes;980328;Chrome;112.0;Windows;10;undefined;undefined;1366 x 768;1366 x 768
H037;50;Mannelijk;Links;4;126;right;no;400;rightarrow;599;true;focus;yes;981697;Chrome;112.0;Windows;10;undefined;undefined;1366 x 768;1366 x 768
H037;50;Mannelijk;Links;4;127;right;no;400;rightarrow;721;true;focus;yes;983194;Chrome;112.0;Windows;10;undefined;undefined;1366 x 768;1366 x 768
H037;50;Mannelijk;Links;4;128;right;no;400;rightarrow;797;true;focus;yes;984771;Chrome;112.0;Windows;10;undefined;undefined;1366 x 768;1366 x 768
H037;50;Mannelijk;Links;5;1;right;yes;400;rightarrow;512;false;focus;yes;1003919;Chrome;112.0;Windows;10;undefined;undefined;1366 x 768;1366 x 768
H037;50;Mannelijk;Links;5;2;left;no;350;leftarrow;635;true;focus;yes;1005329;Chrome;112.0;Windows;10;undefined;undefined;1366 x 768;1366 x 768
H037;50;Mannelijk;Links;5;3;right;no;350;rightarrow;734;true;focus;yes;1006832;Chrome;112.0;Windows;10;undefined;undefined;1366 x 768;1366 x 768
H037;50;Mannelijk;Links;5;4;right;no;350;rightarrow;672;true;focus;yes;1008293;Chrome;112.0;Windows;10;undefined;undefined;1366 x 768;1366 x 768
H037;50;Mannelijk;Links;5;5;left;no;350;leftarrow;666;true;focus;yes;1009727;Chrome;112.0;Windows;10;undefined;undefined;1366 x 768;1366 x 768
H037;50;Mannelijk;Links;5;6;right;no;350;rightarrow;710;true;focus;yes;1011221;Chrome;112.0;Windows;10;undefined;undefined;1366 x 768;1366 x 768
H037;50;Mannelijk;Links;5;7;left;no;350;leftarrow;673;true;focus;yes;1012663;Chrome;112.0;Windows;10;undefined;undefined;1366 x 768;1366 x 768
H037;50;Mannelijk;Links;5;8;left;yes;350;undefined;null;true;focus;yes;1014691;Chrome;112.0;Windows;10;undefined;undefined;1366 x 768;1366 x 768
H037;50;Mannelijk;Links;5;9;right;no;400;rightarrow;604;true;focus;yes;1016071;Chrome;112.0;Windows;10;undefined;undefined;1366 x 768;1366 x 768
H037;50;Mannelijk;Links;5;10;left;no;400;leftarrow;571;true;focus;yes;1017413;Chrome;112.0;Windows;10;undefined;undefined;1366 x 768;1366 x 768
H037;50;Mannelijk;Links;5;11;left;no;400;leftarrow;579;true;focus;yes;1018758;Chrome;112.0;Windows;10;undefined;undefined;1366 x 768;1366 x 768
H037;50;Mannelijk;Links;5;12;right;yes;400;rightarrow;576;false;focus;yes;1020114;Chrome;112.0;Windows;10;undefined;undefined;1366 x 768;1366 x 768
H037;50;Mannelijk;Links;5;13;left;no;350;leftarrow;628;true;focus;yes;1021515;Chrome;112.0;Windows;10;undefined;undefined;1366 x 768;1366 x 768
H037;50;Mannelijk;Links;5;14;right;no;350;rightarrow;647;true;focus;yes;1022945;Chrome;112.0;Windows;10;undefined;undefined;1366 x 768;1366 x 768
H037;50;Mannelijk;Links;5;15;left;yes;350;undefined;null;true;focus;yes;1024966;Chrome;112.0;Windows;10;undefined;undefined;1366 x 768;1366 x 768
H037;50;Mannelijk;Links;5;16;right;no;400;rightarrow;575;true;focus;yes;1026318;Chrome;112.0;Windows;10;undefined;undefined;1366 x 768;1366 x 768
H037;50;Mannelijk;Links;5;17;left;no;400;leftarrow;584;true;focus;yes;1027674;Chrome;112.0;Windows;10;undefined;undefined;1366 x 768;1366 x 768
H037;50;Mannelijk;Links;5;18;right;no;400;rightarrow;576;true;focus;yes;1029038;Chrome;112.0;Windows;10;undefined;undefined;1366 x 768;1366 x 768
H037;50;Mannelijk;Links;5;19;left;no;400;leftarrow;641;true;focus;yes;1030456;Chrome;112.0;Windows;10;undefined;undefined;1366 x 768;1366 x 768
H037;50;Mannelijk;Links;5;20;right;yes;400;rightarrow;628;false;focus;yes;1031859;Chrome;112.0;Windows;10;undefined;undefined;1366 x 768;1366 x 768
H037;50;Mannelijk;Links;5;21;left;yes;350;undefined;null;true;focus;yes;1033900;Chrome;112.0;Windows;10;undefined;undefined;1366 x 768;1366 x 768
H037;50;Mannelijk;Links;5;22;right;no;400;rightarrow;573;true;focus;yes;1035249;Chrome;112.0;Windows;10;undefined;undefined;1366 x 768;1366 x 768
H037;50;Mannelijk;Links;5;23;right;no;400;rightarrow;615;true;focus;yes;1036640;Chrome;112.0;Windows;10;undefined;undefined;1366 x 768;1366 x 768
H037;50;Mannelijk;Links;5;24;left;no;400;leftarrow;539;true;focus;yes;1037941;Chrome;112.0;Windows;10;undefined;undefined;1366 x 768;1366 x 768
H037;50;Mannelijk;Links;5;25;right;no;400;rightarrow;754;true;focus;yes;1039478;Chrome;112.0;Windows;10;undefined;undefined;1366 x 768;1366 x 768
H037;50;Mannelijk;Links;5;26;left;yes;400;leftarrow;458;false;focus;yes;1040724;Chrome;112.0;Windows;10;undefined;undefined;1366 x 768;1366 x 768
H037;50;Mannelijk;Links;5;27;right;no;350;rightarrow;720;true;focus;yes;1042208;Chrome;112.0;Windows;10;undefined;undefined;1366 x 768;1366 x 768
H037;50;Mannelijk;Links;5;28;left;no;350;leftarrow;499;true;focus;yes;1043480;Chrome;112.0;Windows;10;undefined;undefined;1366 x 768;1366 x 768
H037;50;Mannelijk;Links;5;29;left;no;350;leftarrow;606;true;focus;yes;1044876;Chrome;112.0;Windows;10;undefined;undefined;1366 x 768;1366 x 768
H037;50;Mannelijk;Links;5;30;left;no;350;leftarrow;652;true;focus;yes;1046295;Chrome;112.0;Windows;10;undefined;undefined;1366 x 768;1366 x 768
H037;50;Mannelijk;Links;5;31;right;yes;350;undefined;null;true;focus;yes;1048332;Chrome;112.0;Windows;10;undefined;undefined;1366 x 768;1366 x 768
H037;50;Mannelijk;Links;5;32;right;no;400;rightarrow;703;true;focus;yes;1049809;Chrome;112.0;Windows;10;undefined;undefined;1366 x 768;1366 x 768
H037;50;Mannelijk;Links;5;33;right;no;400;rightarrow;653;true;focus;yes;1051246;Chrome;112.0;Windows;10;undefined;undefined;1366 x 768;1366 x 768
H037;50;Mannelijk;Links;5;34;left;no;400;leftarrow;740;true;focus;yes;1052774;Chrome;112.0;Windows;10;undefined;undefined;1366 x 768;1366 x 768
H037;50;Mannelijk;Links;5;35;left;yes;400;leftarrow;569;false;focus;yes;1054109;Chrome;112.0;Windows;10;undefined;undefined;1366 x 768;1366 x 768
H037;50;Mannelijk;Links;5;36;right;no;350;rightarrow;644;true;focus;yes;1055523;Chrome;112.0;Windows;10;undefined;undefined;1366 x 768;1366 x 768
H037;50;Mannelijk;Links;5;37;left;no;350;leftarrow;569;true;focus;yes;1056880;Chrome;112.0;Windows;10;undefined;undefined;1366 x 768;1366 x 768
H037;50;Mannelijk;Links;5;38;right;yes;350;undefined;null;true;focus;yes;1058922;Chrome;112.0;Windows;10;undefined;undefined;1366 x 768;1366 x 768
H037;50;Mannelijk;Links;5;39;left;no;400;leftarrow;588;true;focus;yes;1060290;Chrome;112.0;Windows;10;undefined;undefined;1366 x 768;1366 x 768
H037;50;Mannelijk;Links;5;40;right;no;400;rightarrow;689;true;focus;yes;1061755;Chrome;112.0;Windows;10;undefined;undefined;1366 x 768;1366 x 768
H037;50;Mannelijk;Links;5;41;right;no;400;rightarrow;603;true;focus;yes;1063127;Chrome;112.0;Windows;10;undefined;undefined;1366 x 768;1366 x 768
H037;50;Mannelijk;Links;5;42;left;no;400;leftarrow;510;true;focus;yes;1064427;Chrome;112.0;Windows;10;undefined;undefined;1366 x 768;1366 x 768
H037;50;Mannelijk;Links;5;43;right;no;400;rightarrow;643;true;focus;yes;1065843;Chrome;112.0;Windows;10;undefined;undefined;1366 x 768;1366 x 768
H037;50;Mannelijk;Links;5;44;left;no;400;leftarrow;643;true;focus;yes;1067267;Chrome;112.0;Windows;10;undefined;undefined;1366 x 768;1366 x 768
H037;50;Mannelijk;Links;5;45;right;yes;400;rightarrow;539;false;focus;yes;1068568;Chrome;112.0;Windows;10;undefined;undefined;1366 x 768;1366 x 768
H037;50;Mannelijk;Links;5;46;left;no;350;leftarrow;682;true;focus;yes;1070027;Chrome;112.0;Windows;10;undefined;undefined;1366 x 768;1366 x 768
H037;50;Mannelijk;Links;5;47;right;no;350;rightarrow;579;true;focus;yes;1071382;Chrome;112.0;Windows;10;undefined;undefined;1366 x 768;1366 x 768
H037;50;Mannelijk;Links;5;48;left;yes;350;leftarrow;549;false;focus;yes;1072707;Chrome;112.0;Windows;10;undefined;undefined;1366 x 768;1366 x 768
H037;50;Mannelijk;Links;5;49;left;no;300;leftarrow;617;true;focus;yes;1074100;Chrome;112.0;Windows;10;undefined;undefined;1366 x 768;1366 x 768
H037;50;Mannelijk;Links;5;50;right;no;300;rightarrow;652;true;focus;yes;1075522;Chrome;112.0;Windows;10;undefined;undefined;1366 x 768;1366 x 768
H037;50;Mannelijk;Links;5;51;left;no;300;leftarrow;647;true;focus;yes;1076965;Chrome;112.0;Windows;10;undefined;undefined;1366 x 768;1366 x 768
H037;50;Mannelijk;Links;5;52;left;no;300;leftarrow;608;true;focus;yes;1078346;Chrome;112.0;Windows;10;undefined;undefined;1366 x 768;1366 x 768
H037;50;Mannelijk;Links;5;53;right;no;300;rightarrow;565;true;focus;yes;1079690;Chrome;112.0;Windows;10;undefined;undefined;1366 x 768;1366 x 768
H037;50;Mannelijk;Links;5;54;left;yes;300;undefined;null;true;focus;yes;1081724;Chrome;112.0;Windows;10;undefined;undefined;1366 x 768;1366 x 768
H037;50;Mannelijk;Links;5;55;right;yes;350;rightarrow;541;false;focus;yes;1083041;Chrome;112.0;Windows;10;undefined;undefined;1366 x 768;1366 x 768
H037;50;Mannelijk;Links;5;56;right;no;300;rightarrow;660;true;focus;yes;1084465;Chrome;112.0;Windows;10;undefined;undefined;1366 x 768;1366 x 768
H037;50;Mannelijk;Links;5;57;right;no;300;rightarrow;685;true;focus;yes;1085926;Chrome;112.0;Windows;10;undefined;undefined;1366 x 768;1366 x 768
H037;50;Mannelijk;Links;5;58;left;no;300;leftarrow;612;true;focus;yes;1087322;Chrome;112.0;Windows;10;undefined;undefined;1366 x 768;1366 x 768
H037;50;Mannelijk;Links;5;59;right;no;300;rightarrow;555;true;focus;yes;1088656;Chrome;112.0;Windows;10;undefined;undefined;1366 x 768;1366 x 768
H037;50;Mannelijk;Links;5;60;left;yes;300;undefined;null;true;focus;yes;1090687;Chrome;112.0;Windows;10;undefined;undefined;1366 x 768;1366 x 768
H037;50;Mannelijk;Links;5;61;right;no;350;rightarrow;395;true;focus;yes;1091859;Chrome;112.0;Windows;10;undefined;undefined;1366 x 768;1366 x 768
H037;50;Mannelijk;Links;5;62;left;no;350;leftarrow;630;true;focus;yes;1093274;Chrome;112.0;Windows;10;undefined;undefined;1366 x 768;1366 x 768
H037;50;Mannelijk;Links;5;63;right;yes;350;rightarrow;558;false;focus;yes;1094611;Chrome;112.0;Windows;10;undefined;undefined;1366 x 768;1366 x 768
H037;50;Mannelijk;Links;5;64;left;no;300;leftarrow;594;true;focus;yes;1095990;Chrome;112.0;Windows;10;undefined;undefined;1366 x 768;1366 x 768
H037;50;Mannelijk;Links;5;65;right;no;300;rightarrow;592;true;focus;yes;1097374;Chrome;112.0;Windows;10;undefined;undefined;1366 x 768;1366 x 768
H037;50;Mannelijk;Links;5;66;left;no;300;leftarrow;566;true;focus;yes;1098717;Chrome;112.0;Windows;10;undefined;undefined;1366 x 768;1366 x 768
H037;50;Mannelijk;Links;5;67;left;yes;300;leftarrow;435;false;focus;yes;1099932;Chrome;112.0;Windows;10;undefined;undefined;1366 x 768;1366 x 768
H037;50;Mannelijk;Links;5;68;left;no;250;leftarrow;645;true;focus;yes;1101341;Chrome;112.0;Windows;10;undefined;undefined;1366 x 768;1366 x 768
H037;50;Mannelijk;Links;5;69;right;no;250;rightarrow;568;true;focus;yes;1102704;Chrome;112.0;Windows;10;undefined;undefined;1366 x 768;1366 x 768
H037;50;Mannelijk;Links;5;70;right;yes;250;undefined;null;true;focus;yes;1104759;Chrome;112.0;Windows;10;undefined;undefined;1366 x 768;1366 x 768
H037;50;Mannelijk;Links;5;71;right;no;300;leftarrow;656;false;focus;yes;1106199;Chrome;112.0;Windows;10;undefined;undefined;1366 x 768;1366 x 768
H037;50;Mannelijk;Links;5;72;left;no;300;leftarrow;453;true;focus;yes;1107438;Chrome;112.0;Windows;10;undefined;undefined;1366 x 768;1366 x 768
H037;50;Mannelijk;Links;5;73;right;no;300;rightarrow;602;true;focus;yes;1108824;Chrome;112.0;Windows;10;undefined;undefined;1366 x 768;1366 x 768
H037;50;Mannelijk;Links;5;74;left;no;300;leftarrow;667;true;focus;yes;1110274;Chrome;112.0;Windows;10;undefined;undefined;1366 x 768;1366 x 768
H037;50;Mannelijk;Links;5;75;left;no;300;leftarrow;802;true;focus;yes;1111836;Chrome;112.0;Windows;10;undefined;undefined;1366 x 768;1366 x 768
H037;50;Mannelijk;Links;5;76;right;no;300;rightarrow;497;true;focus;yes;1113114;Chrome;112.0;Windows;10;undefined;undefined;1366 x 768;1366 x 768
H037;50;Mannelijk;Links;5;77;right;no;300;rightarrow;587;true;focus;yes;1114477;Chrome;112.0;Windows;10;undefined;undefined;1366 x 768;1366 x 768
H037;50;Mannelijk;Links;5;78;right;yes;300;rightarrow;516;false;focus;yes;1115769;Chrome;112.0;Windows;10;undefined;undefined;1366 x 768;1366 x 768
H037;50;Mannelijk;Links;5;79;left;yes;250;undefined;null;true;focus;yes;1117820;Chrome;112.0;Windows;10;undefined;undefined;1366 x 768;1366 x 768
H037;50;Mannelijk;Links;5;80;left;no;300;leftarrow;537;true;focus;yes;1119133;Chrome;112.0;Windows;10;undefined;undefined;1366 x 768;1366 x 768
H037;50;Mannelijk;Links;5;81;right;no;300;rightarrow;436;true;focus;yes;1120335;Chrome;112.0;Windows;10;undefined;undefined;1366 x 768;1366 x 768
H037;50;Mannelijk;Links;5;82;left;no;300;leftarrow;594;true;focus;yes;1121711;Chrome;112.0;Windows;10;undefined;undefined;1366 x 768;1366 x 768
H037;50;Mannelijk;Links;5;83;right;yes;300;undefined;null;true;focus;yes;1123727;Chrome;112.0;Windows;10;undefined;undefined;1366 x 768;1366 x 768
H037;50;Mannelijk;Links;5;84;right;no;350;rightarrow;487;true;focus;yes;1124999;Chrome;112.0;Windows;10;undefined;undefined;1366 x 768;1366 x 768
H037;50;Mannelijk;Links;5;85;left;yes;350;leftarrow;561;false;focus;yes;1126346;Chrome;112.0;Windows;10;undefined;undefined;1366 x 768;1366 x 768
H037;50;Mannelijk;Links;5;86;left;no;300;leftarrow;652;true;focus;yes;1127782;Chrome;112.0;Windows;10;undefined;undefined;1366 x 768;1366 x 768
H037;50;Mannelijk;Links;5;87;left;no;300;leftarrow;577;true;focus;yes;1129140;Chrome;112.0;Windows;10;undefined;undefined;1366 x 768;1366 x 768
H037;50;Mannelijk;Links;5;88;right;no;300;rightarrow;547;true;focus;yes;1130468;Chrome;112.0;Windows;10;undefined;undefined;1366 x 768;1366 x 768
H037;50;Mannelijk;Links;5;89;left;no;300;leftarrow;557;true;focus;yes;1131800;Chrome;112.0;Windows;10;undefined;undefined;1366 x 768;1366 x 768
H037;50;Mannelijk;Links;5;90;right;yes;300;undefined;null;true;focus;yes;1133817;Chrome;112.0;Windows;10;undefined;undefined;1366 x 768;1366 x 768
H037;50;Mannelijk;Links;5;91;right;no;350;rightarrow;600;true;focus;yes;1135199;Chrome;112.0;Windows;10;undefined;undefined;1366 x 768;1366 x 768
H037;50;Mannelijk;Links;5;92;left;yes;350;undefined;null;true;focus;yes;1137229;Chrome;112.0;Windows;10;undefined;undefined;1366 x 768;1366 x 768
H037;50;Mannelijk;Links;5;93;right;no;400;rightarrow;430;true;focus;yes;1138451;Chrome;112.0;Windows;10;undefined;undefined;1366 x 768;1366 x 768
H037;50;Mannelijk;Links;5;94;left;no;400;leftarrow;631;true;focus;yes;1139860;Chrome;112.0;Windows;10;undefined;undefined;1366 x 768;1366 x 768
H037;50;Mannelijk;Links;5;95;right;no;400;rightarrow;537;true;focus;yes;1141159;Chrome;112.0;Windows;10;undefined;undefined;1366 x 768;1366 x 768
H037;50;Mannelijk;Links;5;96;left;no;400;leftarrow;516;true;focus;yes;1142459;Chrome;112.0;Windows;10;undefined;undefined;1366 x 768;1366 x 768
H037;50;Mannelijk;Links;5;97;left;no;400;leftarrow;619;true;focus;yes;1143862;Chrome;112.0;Windows;10;undefined;undefined;1366 x 768;1366 x 768
H037;50;Mannelijk;Links;5;98;left;yes;400;undefined;null;true;focus;yes;1145905;Chrome;112.0;Windows;10;undefined;undefined;1366 x 768;1366 x 768
H037;50;Mannelijk;Links;5;99;left;no;450;leftarrow;479;true;focus;yes;1147152;Chrome;112.0;Windows;10;undefined;undefined;1366 x 768;1366 x 768
H037;50;Mannelijk;Links;5;100;right;yes;450;rightarrow;578;false;focus;yes;1148509;Chrome;112.0;Windows;10;undefined;undefined;1366 x 768;1366 x 768
H037;50;Mannelijk;Links;5;101;right;no;400;rightarrow;709;true;focus;yes;1149993;Chrome;112.0;Windows;10;undefined;undefined;1366 x 768;1366 x 768
H037;50;Mannelijk;Links;5;102;left;no;400;leftarrow;570;true;focus;yes;1151331;Chrome;112.0;Windows;10;undefined;undefined;1366 x 768;1366 x 768
H037;50;Mannelijk;Links;5;103;right;no;400;rightarrow;725;true;focus;yes;1152841;Chrome;112.0;Windows;10;undefined;undefined;1366 x 768;1366 x 768
H037;50;Mannelijk;Links;5;104;right;no;400;rightarrow;609;true;focus;yes;1154229;Chrome;112.0;Windows;10;undefined;undefined;1366 x 768;1366 x 768
H037;50;Mannelijk;Links;5;105;left;yes;400;leftarrow;622;false;focus;yes;1155626;Chrome;112.0;Windows;10;undefined;undefined;1366 x 768;1366 x 768
H037;50;Mannelijk;Links;5;106;right;no;350;rightarrow;671;true;focus;yes;1157069;Chrome;112.0;Windows;10;undefined;undefined;1366 x 768;1366 x 768
H037;50;Mannelijk;Links;5;107;right;yes;350;rightarrow;559;false;focus;yes;1158399;Chrome;112.0;Windows;10;undefined;undefined;1366 x 768;1366 x 768
H037;50;Mannelijk;Links;5;108;left;no;300;leftarrow;595;true;focus;yes;1159764;Chrome;112.0;Windows;10;undefined;undefined;1366 x 768;1366 x 768
H037;50;Mannelijk;Links;5;109;left;no;300;leftarrow;638;true;focus;yes;1161189;Chrome;112.0;Windows;10;undefined;undefined;1366 x 768;1366 x 768
H037;50;Mannelijk;Links;5;110;right;no;300;rightarrow;624;true;focus;yes;1162580;Chrome;112.0;Windows;10;undefined;undefined;1366 x 768;1366 x 768
H037;50;Mannelijk;Links;5;111;right;no;300;rightarrow;695;true;focus;yes;1164055;Chrome;112.0;Windows;10;undefined;undefined;1366 x 768;1366 x 768
H037;50;Mannelijk;Links;5;112;left;no;300;leftarrow;634;true;focus;yes;1165471;Chrome;112.0;Windows;10;undefined;undefined;1366 x 768;1366 x 768
H037;50;Mannelijk;Links;5;113;right;no;300;rightarrow;596;true;focus;yes;1166846;Chrome;112.0;Windows;10;undefined;undefined;1366 x 768;1366 x 768
H037;50;Mannelijk;Links;5;114;right;yes;300;undefined;null;true;focus;yes;1168870;Chrome;112.0;Windows;10;undefined;undefined;1366 x 768;1366 x 768
H037;50;Mannelijk;Links;5;115;left;yes;350;leftarrow;535;false;focus;yes;1170182;Chrome;112.0;Windows;10;undefined;undefined;1366 x 768;1366 x 768
H037;50;Mannelijk;Links;5;116;right;no;300;rightarrow;649;true;focus;yes;1171617;Chrome;112.0;Windows;10;undefined;undefined;1366 x 768;1366 x 768
H037;50;Mannelijk;Links;5;117;left;no;300;leftarrow;579;true;focus;yes;1172970;Chrome;112.0;Windows;10;undefined;undefined;1366 x 768;1366 x 768
H037;50;Mannelijk;Links;5;118;right;no;300;rightarrow;656;true;focus;yes;1174401;Chrome;112.0;Windows;10;undefined;undefined;1366 x 768;1366 x 768
H037;50;Mannelijk;Links;5;119;left;no;300;leftarrow;637;true;focus;yes;1175816;Chrome;112.0;Windows;10;undefined;undefined;1366 x 768;1366 x 768
H037;50;Mannelijk;Links;5;120;left;no;300;leftarrow;675;true;focus;yes;1177268;Chrome;112.0;Windows;10;undefined;undefined;1366 x 768;1366 x 768
H037;50;Mannelijk;Links;5;121;right;no;300;rightarrow;762;true;focus;yes;1178808;Chrome;112.0;Windows;10;undefined;undefined;1366 x 768;1366 x 768
H037;50;Mannelijk;Links;5;122;left;no;300;leftarrow;749;true;focus;yes;1180348;Chrome;112.0;Windows;10;undefined;undefined;1366 x 768;1366 x 768
H037;50;Mannelijk;Links;5;123;left;no;300;leftarrow;795;true;focus;yes;1181906;Chrome;112.0;Windows;10;undefined;undefined;1366 x 768;1366 x 768
H037;50;Mannelijk;Links;5;124;left;no;300;leftarrow;682;true;focus;yes;1183382;Chrome;112.0;Windows;10;undefined;undefined;1366 x 768;1366 x 768
H037;50;Mannelijk;Links;5;125;right;no;300;rightarrow;737;true;focus;yes;1184907;Chrome;112.0;Windows;10;undefined;undefined;1366 x 768;1366 x 768
H037;50;Mannelijk;Links;5;126;right;yes;300;undefined;null;true;focus;yes;1186927;Chrome;112.0;Windows;10;undefined;undefined;1366 x 768;1366 x 768
H037;50;Mannelijk;Links;5;127;left;yes;350;undefined;null;true;focus;yes;1188967;Chrome;112.0;Windows;10;undefined;undefined;1366 x 768;1366 x 768
H037;50;Mannelijk;Links;5;128;right;no;400;rightarrow;651;true;focus;yes;1190393;Chrome;112.0;Windows;10;undefined;undefined;1366 x 768;1366 x 768
H037;50;Mannelijk;Links;6;1;right;no;400;rightarrow;621;true;focus;yes;1209514;Chrome;112.0;Windows;10;undefined;undefined;1366 x 768;1366 x 768
H037;50;Mannelijk;Links;6;2;left;no;400;leftarrow;616;true;focus;yes;1210900;Chrome;112.0;Windows;10;undefined;undefined;1366 x 768;1366 x 768
H037;50;Mannelijk;Links;6;3;right;yes;400;rightarrow;652;false;focus;yes;1212326;Chrome;112.0;Windows;10;undefined;undefined;1366 x 768;1366 x 768
H037;50;Mannelijk;Links;6;4;left;no;350;leftarrow;671;true;focus;yes;1213769;Chrome;112.0;Windows;10;undefined;undefined;1366 x 768;1366 x 768
H037;50;Mannelijk;Links;6;5;right;no;350;rightarrow;621;true;focus;yes;1215170;Chrome;112.0;Windows;10;undefined;undefined;1366 x 768;1366 x 768
H037;50;Mannelijk;Links;6;6;left;no;350;leftarrow;640;true;focus;yes;1216595;Chrome;112.0;Windows;10;undefined;undefined;1366 x 768;1366 x 768
H037;50;Mannelijk;Links;6;7;left;yes;350;undefined;null;true;focus;yes;1218636;Chrome;112.0;Windows;10;undefined;undefined;1366 x 768;1366 x 768
H037;50;Mannelijk;Links;6;8;right;no;400;rightarrow;618;true;focus;yes;1220031;Chrome;112.0;Windows;10;undefined;undefined;1366 x 768;1366 x 768
H037;50;Mannelijk;Links;6;9;left;yes;400;leftarrow;534;false;focus;yes;1221343;Chrome;112.0;Windows;10;undefined;undefined;1366 x 768;1366 x 768
H037;50;Mannelijk;Links;6;10;left;no;350;leftarrow;601;true;focus;yes;1222723;Chrome;112.0;Windows;10;undefined;undefined;1366 x 768;1366 x 768
H037;50;Mannelijk;Links;6;11;right;no;350;rightarrow;654;true;focus;yes;1224168;Chrome;112.0;Windows;10;undefined;undefined;1366 x 768;1366 x 768
H037;50;Mannelijk;Links;6;12;right;no;350;rightarrow;677;true;focus;yes;1225629;Chrome;112.0;Windows;10;undefined;undefined;1366 x 768;1366 x 768
H037;50;Mannelijk;Links;6;13;left;no;350;leftarrow;567;true;focus;yes;1226975;Chrome;112.0;Windows;10;undefined;undefined;1366 x 768;1366 x 768
H037;50;Mannelijk;Links;6;14;right;yes;350;undefined;null;true;focus;yes;1228997;Chrome;112.0;Windows;10;undefined;undefined;1366 x 768;1366 x 768
H037;50;Mannelijk;Links;6;15;right;no;400;rightarrow;580;true;focus;yes;1230349;Chrome;112.0;Windows;10;undefined;undefined;1366 x 768;1366 x 768
H037;50;Mannelijk;Links;6;16;left;no;400;leftarrow;592;true;focus;yes;1231702;Chrome;112.0;Windows;10;undefined;undefined;1366 x 768;1366 x 768
H037;50;Mannelijk;Links;6;17;right;no;400;rightarrow;525;true;focus;yes;1233008;Chrome;112.0;Windows;10;undefined;undefined;1366 x 768;1366 x 768
H037;50;Mannelijk;Links;6;18;left;no;400;leftarrow;591;true;focus;yes;1234375;Chrome;112.0;Windows;10;undefined;undefined;1366 x 768;1366 x 768
H037;50;Mannelijk;Links;6;19;left;no;400;leftarrow;642;true;focus;yes;1235821;Chrome;112.0;Windows;10;undefined;undefined;1366 x 768;1366 x 768
H037;50;Mannelijk;Links;6;20;left;no;400;leftarrow;588;true;focus;yes;1237182;Chrome;112.0;Windows;10;undefined;undefined;1366 x 768;1366 x 768
H037;50;Mannelijk;Links;6;21;right;yes;400;rightarrow;606;false;focus;yes;1238571;Chrome;112.0;Windows;10;undefined;undefined;1366 x 768;1366 x 768
H037;50;Mannelijk;Links;6;22;right;no;350;rightarrow;598;true;focus;yes;1239940;Chrome;112.0;Windows;10;undefined;undefined;1366 x 768;1366 x 768
H037;50;Mannelijk;Links;6;23;left;yes;350;leftarrow;554;false;focus;yes;1241285;Chrome;112.0;Windows;10;undefined;undefined;1366 x 768;1366 x 768
H037;50;Mannelijk;Links;6;24;right;no;300;rightarrow;648;true;focus;yes;1242706;Chrome;112.0;Windows;10;undefined;undefined;1366 x 768;1366 x 768
H037;50;Mannelijk;Links;6;25;left;no;300;leftarrow;659;true;focus;yes;1244153;Chrome;112.0;Windows;10;undefined;undefined;1366 x 768;1366 x 768
H037;50;Mannelijk;Links;6;26;right;no;300;rightarrow;671;true;focus;yes;1245591;Chrome;112.0;Windows;10;undefined;undefined;1366 x 768;1366 x 768
H037;50;Mannelijk;Links;6;27;left;yes;300;undefined;null;true;focus;yes;1247626;Chrome;112.0;Windows;10;undefined;undefined;1366 x 768;1366 x 768
H037;50;Mannelijk;Links;6;28;right;no;350;rightarrow;503;true;focus;yes;1248902;Chrome;112.0;Windows;10;undefined;undefined;1366 x 768;1366 x 768
H037;50;Mannelijk;Links;6;29;left;no;350;leftarrow;578;true;focus;yes;1250263;Chrome;112.0;Windows;10;undefined;undefined;1366 x 768;1366 x 768
H037;50;Mannelijk;Links;6;30;left;no;350;leftarrow;624;true;focus;yes;1251651;Chrome;112.0;Windows;10;undefined;undefined;1366 x 768;1366 x 768
H037;50;Mannelijk;Links;6;31;right;no;350;rightarrow;579;true;focus;yes;1253011;Chrome;112.0;Windows;10;undefined;undefined;1366 x 768;1366 x 768
H037;50;Mannelijk;Links;6;32;right;yes;350;undefined;null;true;focus;yes;1255057;Chrome;112.0;Windows;10;undefined;undefined;1366 x 768;1366 x 768
H037;50;Mannelijk;Links;6;33;left;yes;400;leftarrow;641;false;focus;yes;1256471;Chrome;112.0;Windows;10;undefined;undefined;1366 x 768;1366 x 768
H037;50;Mannelijk;Links;6;34;left;no;350;leftarrow;620;true;focus;yes;1257860;Chrome;112.0;Windows;10;undefined;undefined;1366 x 768;1366 x 768
H037;50;Mannelijk;Links;6;35;left;no;350;leftarrow;590;true;focus;yes;1259232;Chrome;112.0;Windows;10;undefined;undefined;1366 x 768;1366 x 768
H037;50;Mannelijk;Links;6;36;right;yes;350;undefined;null;true;focus;yes;1261270;Chrome;112.0;Windows;10;undefined;undefined;1366 x 768;1366 x 768
