participantID;age;gender;handedness;block_i;trial_i;stim;signal;SSD;response;rt;correct;focus;Fullscreen;time_elapsed;browser_name;browser_version;os_name;os_version;tablet;mobile;screen_resolution;window_resolution
H016;53;Vrouwelijk;Rechts;0;1;right;no;200;rightarrow;639;true;focus;yes;151911;Chrome;112.0;Windows;10;undefined;undefined;1536 x 864;1536 x 864
H016;53;Vrouwelijk;Rechts;0;2;left;no;200;leftarrow;573;true;focus;yes;154015;Chrome;112.0;Windows;10;undefined;undefined;1536 x 864;1536 x 864
H016;53;Vrouwelijk;Rechts;0;3;right;no;200;rightarrow;417;true;focus;yes;155962;Chrome;112.0;Windows;10;undefined;undefined;1536 x 864;1536 x 864
H016;53;Vrouwelijk;Rechts;0;4;left;no;200;leftarrow;404;true;focus;yes;157891;Chrome;112.0;Windows;10;undefined;undefined;1536 x 864;1536 x 864
H016;53;Vrouwelijk;Rechts;0;5;left;no;200;leftarrow;412;true;focus;yes;159846;Chrome;112.0;Windows;10;undefined;undefined;1536 x 864;1536 x 864
H016;53;Vrouwelijk;Rechts;0;6;left;yes;200;leftarrow;411;false;focus;yes;161801;Chrome;112.0;Windows;10;undefined;undefined;1536 x 864;1536 x 864
H016;53;Vrouwelijk;Rechts;0;7;right;no;150;rightarrow;414;true;focus;yes;163753;Chrome;112.0;Windows;10;undefined;undefined;1536 x 864;1536 x 864
H016;53;Vrouwelijk;Rechts;0;8;right;yes;150;rightarrow;416;false;focus;yes;165704;Chrome;112.0;Windows;10;undefined;undefined;1536 x 864;1536 x 864
H016;53;Vrouwelijk;Rechts;1;1;right;yes;100;rightarrow;411;false;focus;yes;186185;Chrome;112.0;Windows;10;undefined;undefined;1536 x 864;1536 x 864
H016;53;Vrouwelijk;Rechts;1;2;left;no;50;leftarrow;764;true;focus;yes;187727;Chrome;112.0;Windows;10;undefined;undefined;1536 x 864;1536 x 864
H016;53;Vrouwelijk;Rechts;1;3;left;no;50;leftarrow;382;true;focus;yes;188885;Chrome;112.0;Windows;10;undefined;undefined;1536 x 864;1536 x 864
H016;53;Vrouwelijk;Rechts;1;4;right;no;50;rightarrow;414;true;focus;yes;190074;Chrome;112.0;Windows;10;undefined;undefined;1536 x 864;1536 x 864
H016;53;Vrouwelijk;Rechts;1;5;left;no;50;leftarrow;488;true;focus;yes;191335;Chrome;112.0;Windows;10;undefined;undefined;1536 x 864;1536 x 864
H016;53;Vrouwelijk;Rechts;1;6;right;no;50;rightarrow;637;true;focus;yes;192748;Chrome;112.0;Windows;10;undefined;undefined;1536 x 864;1536 x 864
H016;53;Vrouwelijk;Rechts;1;7;left;yes;50;undefined;null;true;focus;yes;194773;Chrome;112.0;Windows;10;undefined;undefined;1536 x 864;1536 x 864
H016;53;Vrouwelijk;Rechts;1;8;right;no;100;rightarrow;374;true;focus;yes;195919;Chrome;112.0;Windows;10;undefined;undefined;1536 x 864;1536 x 864
H016;53;Vrouwelijk;Rechts;1;9;right;yes;100;undefined;null;true;focus;yes;197958;Chrome;112.0;Windows;10;undefined;undefined;1536 x 864;1536 x 864
H016;53;Vrouwelijk;Rechts;1;10;right;no;150;rightarrow;496;true;focus;yes;199227;Chrome;112.0;Windows;10;undefined;undefined;1536 x 864;1536 x 864
H016;53;Vrouwelijk;Rechts;1;11;left;no;150;leftarrow;396;true;focus;yes;200398;Chrome;112.0;Windows;10;undefined;undefined;1536 x 864;1536 x 864
H016;53;Vrouwelijk;Rechts;1;12;right;no;150;rightarrow;551;true;focus;yes;201724;Chrome;112.0;Windows;10;undefined;undefined;1536 x 864;1536 x 864
H016;53;Vrouwelijk;Rechts;1;13;left;no;150;leftarrow;671;true;focus;yes;203166;Chrome;112.0;Windows;10;undefined;undefined;1536 x 864;1536 x 864
H016;53;Vrouwelijk;Rechts;1;14;right;no;150;rightarrow;376;true;focus;yes;204304;Chrome;112.0;Windows;10;undefined;undefined;1536 x 864;1536 x 864
H016;53;Vrouwelijk;Rechts;1;15;left;no;150;leftarrow;435;true;focus;yes;205516;Chrome;112.0;Windows;10;undefined;undefined;1536 x 864;1536 x 864
H016;53;Vrouwelijk;Rechts;1;16;left;yes;150;undefined;null;true;focus;yes;207551;Chrome;112.0;Windows;10;undefined;undefined;1536 x 864;1536 x 864
H016;53;Vrouwelijk;Rechts;1;17;left;no;200;leftarrow;576;true;focus;yes;208900;Chrome;112.0;Windows;10;undefined;undefined;1536 x 864;1536 x 864
H016;53;Vrouwelijk;Rechts;1;18;right;yes;200;rightarrow;350;false;focus;yes;210030;Chrome;112.0;Windows;10;undefined;undefined;1536 x 864;1536 x 864
H016;53;Vrouwelijk;Rechts;1;19;right;no;150;rightarrow;662;true;focus;yes;211466;Chrome;112.0;Windows;10;undefined;undefined;1536 x 864;1536 x 864
H016;53;Vrouwelijk;Rechts;1;20;right;no;150;rightarrow;484;true;focus;yes;212712;Chrome;112.0;Windows;10;undefined;undefined;1536 x 864;1536 x 864
H016;53;Vrouwelijk;Rechts;1;21;right;no;150;rightarrow;687;true;focus;yes;214161;Chrome;112.0;Windows;10;undefined;undefined;1536 x 864;1536 x 864
H016;53;Vrouwelijk;Rechts;1;22;left;no;150;leftarrow;499;true;focus;yes;215443;Chrome;112.0;Windows;10;undefined;undefined;1536 x 864;1536 x 864
H016;53;Vrouwelijk;Rechts;1;23;left;yes;150;undefined;null;true;focus;yes;217483;Chrome;112.0;Windows;10;undefined;undefined;1536 x 864;1536 x 864
H016;53;Vrouwelijk;Rechts;1;24;left;no;200;leftarrow;524;true;focus;yes;218786;Chrome;112.0;Windows;10;undefined;undefined;1536 x 864;1536 x 864
H016;53;Vrouwelijk;Rechts;1;25;left;no;200;leftarrow;539;true;focus;yes;220107;Chrome;112.0;Windows;10;undefined;undefined;1536 x 864;1536 x 864
H016;53;Vrouwelijk;Rechts;1;26;right;yes;200;rightarrow;501;false;focus;yes;221378;Chrome;112.0;Windows;10;undefined;undefined;1536 x 864;1536 x 864
H016;53;Vrouwelijk;Rechts;1;27;right;no;150;rightarrow;554;true;focus;yes;222696;Chrome;112.0;Windows;10;undefined;undefined;1536 x 864;1536 x 864
H016;53;Vrouwelijk;Rechts;1;28;left;yes;150;undefined;null;true;focus;yes;224721;Chrome;112.0;Windows;10;undefined;undefined;1536 x 864;1536 x 864
H016;53;Vrouwelijk;Rechts;1;29;right;no;200;rightarrow;397;true;focus;yes;225892;Chrome;112.0;Windows;10;undefined;undefined;1536 x 864;1536 x 864
H016;53;Vrouwelijk;Rechts;1;30;left;no;200;leftarrow;403;true;focus;yes;227074;Chrome;112.0;Windows;10;undefined;undefined;1536 x 864;1536 x 864
H016;53;Vrouwelijk;Rechts;1;31;right;no;200;rightarrow;574;true;focus;yes;228419;Chrome;112.0;Windows;10;undefined;undefined;1536 x 864;1536 x 864
H016;53;Vrouwelijk;Rechts;1;32;left;no;200;leftarrow;513;true;focus;yes;229705;Chrome;112.0;Windows;10;undefined;undefined;1536 x 864;1536 x 864
H016;53;Vrouwelijk;Rechts;1;33;right;yes;200;undefined;null;true;focus;yes;231739;Chrome;112.0;Windows;10;undefined;undefined;1536 x 864;1536 x 864
H016;53;Vrouwelijk;Rechts;1;34;right;no;250;rightarrow;339;true;focus;yes;232851;Chrome;112.0;Windows;10;undefined;undefined;1536 x 864;1536 x 864
H016;53;Vrouwelijk;Rechts;1;35;left;no;250;leftarrow;545;true;focus;yes;234171;Chrome;112.0;Windows;10;undefined;undefined;1536 x 864;1536 x 864
H016;53;Vrouwelijk;Rechts;1;36;right;no;250;rightarrow;586;true;focus;yes;235521;Chrome;112.0;Windows;10;undefined;undefined;1536 x 864;1536 x 864
H016;53;Vrouwelijk;Rechts;1;37;left;yes;250;undefined;null;true;focus;yes;237543;Chrome;112.0;Windows;10;undefined;undefined;1536 x 864;1536 x 864
H016;53;Vrouwelijk;Rechts;1;38;left;no;300;leftarrow;379;true;focus;yes;238693;Chrome;112.0;Windows;10;undefined;undefined;1536 x 864;1536 x 864
H016;53;Vrouwelijk;Rechts;1;39;right;no;300;rightarrow;510;true;focus;yes;239973;Chrome;112.0;Windows;10;undefined;undefined;1536 x 864;1536 x 864
H016;53;Vrouwelijk;Rechts;1;40;left;no;300;leftarrow;317;true;focus;yes;241071;Chrome;112.0;Windows;10;undefined;undefined;1536 x 864;1536 x 864
H016;53;Vrouwelijk;Rechts;1;41;left;no;300;leftarrow;453;true;focus;yes;242302;Chrome;112.0;Windows;10;undefined;undefined;1536 x 864;1536 x 864
H016;53;Vrouwelijk;Rechts;1;42;right;no;300;rightarrow;392;true;focus;yes;243464;Chrome;112.0;Windows;10;undefined;undefined;1536 x 864;1536 x 864
H016;53;Vrouwelijk;Rechts;1;43;right;no;300;rightarrow;555;true;focus;yes;244802;Chrome;112.0;Windows;10;undefined;undefined;1536 x 864;1536 x 864
H016;53;Vrouwelijk;Rechts;1;44;left;no;300;leftarrow;350;true;focus;yes;245919;Chrome;112.0;Windows;10;undefined;undefined;1536 x 864;1536 x 864
H016;53;Vrouwelijk;Rechts;1;45;right;yes;300;rightarrow;343;false;focus;yes;247038;Chrome;112.0;Windows;10;undefined;undefined;1536 x 864;1536 x 864
H016;53;Vrouwelijk;Rechts;1;46;right;no;250;rightarrow;439;true;focus;yes;248251;Chrome;112.0;Windows;10;undefined;undefined;1536 x 864;1536 x 864
H016;53;Vrouwelijk;Rechts;1;47;left;no;250;leftarrow;559;true;focus;yes;249574;Chrome;112.0;Windows;10;undefined;undefined;1536 x 864;1536 x 864
H016;53;Vrouwelijk;Rechts;1;48;left;yes;250;leftarrow;369;false;focus;yes;250719;Chrome;112.0;Windows;10;undefined;undefined;1536 x 864;1536 x 864
H016;53;Vrouwelijk;Rechts;1;49;left;no;200;leftarrow;510;true;focus;yes;252006;Chrome;112.0;Windows;10;undefined;undefined;1536 x 864;1536 x 864
H016;53;Vrouwelijk;Rechts;1;50;right;yes;200;rightarrow;372;false;focus;yes;253140;Chrome;112.0;Windows;10;undefined;undefined;1536 x 864;1536 x 864
H016;53;Vrouwelijk;Rechts;1;51;left;yes;150;undefined;null;true;focus;yes;255170;Chrome;112.0;Windows;10;undefined;undefined;1536 x 864;1536 x 864
H016;53;Vrouwelijk;Rechts;1;52;left;no;200;leftarrow;306;true;focus;yes;256241;Chrome;112.0;Windows;10;undefined;undefined;1536 x 864;1536 x 864
H016;53;Vrouwelijk;Rechts;1;53;right;no;200;rightarrow;408;true;focus;yes;257418;Chrome;112.0;Windows;10;undefined;undefined;1536 x 864;1536 x 864
H016;53;Vrouwelijk;Rechts;1;54;left;no;200;leftarrow;443;true;focus;yes;258628;Chrome;112.0;Windows;10;undefined;undefined;1536 x 864;1536 x 864
H016;53;Vrouwelijk;Rechts;1;55;right;no;200;rightarrow;296;true;focus;yes;259707;Chrome;112.0;Windows;10;undefined;undefined;1536 x 864;1536 x 864
H016;53;Vrouwelijk;Rechts;1;56;right;no;200;rightarrow;454;true;focus;yes;260939;Chrome;112.0;Windows;10;undefined;undefined;1536 x 864;1536 x 864
H016;53;Vrouwelijk;Rechts;1;57;left;no;200;leftarrow;620;true;focus;yes;262327;Chrome;112.0;Windows;10;undefined;undefined;1536 x 864;1536 x 864
H016;53;Vrouwelijk;Rechts;1;58;left;no;200;leftarrow;361;true;focus;yes;263468;Chrome;112.0;Windows;10;undefined;undefined;1536 x 864;1536 x 864
H016;53;Vrouwelijk;Rechts;1;59;right;yes;200;rightarrow;362;false;focus;yes;264595;Chrome;112.0;Windows;10;undefined;undefined;1536 x 864;1536 x 864
H016;53;Vrouwelijk;Rechts;1;60;right;no;150;rightarrow;398;true;focus;yes;265773;Chrome;112.0;Windows;10;undefined;undefined;1536 x 864;1536 x 864
H016;53;Vrouwelijk;Rechts;1;61;right;no;150;rightarrow;376;true;focus;yes;266925;Chrome;112.0;Windows;10;undefined;undefined;1536 x 864;1536 x 864
H016;53;Vrouwelijk;Rechts;1;62;right;no;150;rightarrow;413;true;focus;yes;268102;Chrome;112.0;Windows;10;undefined;undefined;1536 x 864;1536 x 864
H016;53;Vrouwelijk;Rechts;1;63;left;no;150;leftarrow;563;true;focus;yes;269434;Chrome;112.0;Windows;10;undefined;undefined;1536 x 864;1536 x 864
H016;53;Vrouwelijk;Rechts;1;64;left;yes;150;leftarrow;353;false;focus;yes;270561;Chrome;112.0;Windows;10;undefined;undefined;1536 x 864;1536 x 864
H016;53;Vrouwelijk;Rechts;1;65;right;yes;100;rightarrow;384;false;focus;yes;271725;Chrome;112.0;Windows;10;undefined;undefined;1536 x 864;1536 x 864
H016;53;Vrouwelijk;Rechts;1;66;left;no;50;leftarrow;388;true;focus;yes;272881;Chrome;112.0;Windows;10;undefined;undefined;1536 x 864;1536 x 864
H016;53;Vrouwelijk;Rechts;1;67;left;yes;50;undefined;null;true;focus;yes;274909;Chrome;112.0;Windows;10;undefined;undefined;1536 x 864;1536 x 864
H016;53;Vrouwelijk;Rechts;1;68;left;no;100;rightarrow;316;false;focus;yes;276005;Chrome;112.0;Windows;10;undefined;undefined;1536 x 864;1536 x 864
H016;53;Vrouwelijk;Rechts;1;69;right;no;100;rightarrow;431;true;focus;yes;277202;Chrome;112.0;Windows;10;undefined;undefined;1536 x 864;1536 x 864
H016;53;Vrouwelijk;Rechts;1;70;left;no;100;leftarrow;550;true;focus;yes;278513;Chrome;112.0;Windows;10;undefined;undefined;1536 x 864;1536 x 864
H016;53;Vrouwelijk;Rechts;1;71;right;no;100;rightarrow;431;true;focus;yes;279723;Chrome;112.0;Windows;10;undefined;undefined;1536 x 864;1536 x 864
H016;53;Vrouwelijk;Rechts;1;72;right;no;100;rightarrow;516;true;focus;yes;281014;Chrome;112.0;Windows;10;undefined;undefined;1536 x 864;1536 x 864
H016;53;Vrouwelijk;Rechts;1;73;left;no;100;leftarrow;366;true;focus;yes;282162;Chrome;112.0;Windows;10;undefined;undefined;1536 x 864;1536 x 864
H016;53;Vrouwelijk;Rechts;1;74;right;no;100;rightarrow;423;true;focus;yes;283351;Chrome;112.0;Windows;10;undefined;undefined;1536 x 864;1536 x 864
H016;53;Vrouwelijk;Rechts;1;75;left;no;100;leftarrow;350;true;focus;yes;284479;Chrome;112.0;Windows;10;undefined;undefined;1536 x 864;1536 x 864
H016;53;Vrouwelijk;Rechts;1;76;right;no;100;rightarrow;366;true;focus;yes;285609;Chrome;112.0;Windows;10;undefined;undefined;1536 x 864;1536 x 864
H016;53;Vrouwelijk;Rechts;1;77;right;no;100;rightarrow;392;true;focus;yes;286777;Chrome;112.0;Windows;10;undefined;undefined;1536 x 864;1536 x 864
H016;53;Vrouwelijk;Rechts;1;78;left;no;100;leftarrow;368;true;focus;yes;287910;Chrome;112.0;Windows;10;undefined;undefined;1536 x 864;1536 x 864
H016;53;Vrouwelijk;Rechts;1;79;left;yes;100;undefined;null;true;focus;yes;289956;Chrome;112.0;Windows;10;undefined;undefined;1536 x 864;1536 x 864
H016;53;Vrouwelijk;Rechts;1;80;right;yes;150;rightarrow;359;false;focus;yes;291085;Chrome;112.0;Windows;10;undefined;undefined;1536 x 864;1536 x 864
H016;53;Vrouwelijk;Rechts;1;81;left;no;100;leftarrow;335;true;focus;yes;292184;Chrome;112.0;Windows;10;undefined;undefined;1536 x 864;1536 x 864
H016;53;Vrouwelijk;Rechts;1;82;right;yes;100;undefined;null;true;focus;yes;294223;Chrome;112.0;Windows;10;undefined;undefined;1536 x 864;1536 x 864
H016;53;Vrouwelijk;Rechts;1;83;left;no;150;leftarrow;382;true;focus;yes;295378;Chrome;112.0;Windows;10;undefined;undefined;1536 x 864;1536 x 864
H016;53;Vrouwelijk;Rechts;1;84;left;no;150;leftarrow;368;true;focus;yes;296509;Chrome;112.0;Windows;10;undefined;undefined;1536 x 864;1536 x 864
H016;53;Vrouwelijk;Rechts;1;85;right;no;150;rightarrow;465;true;focus;yes;297737;Chrome;112.0;Windows;10;undefined;undefined;1536 x 864;1536 x 864
H016;53;Vrouwelijk;Rechts;1;86;right;no;150;rightarrow;377;true;focus;yes;298886;Chrome;112.0;Windows;10;undefined;undefined;1536 x 864;1536 x 864
H016;53;Vrouwelijk;Rechts;1;87;right;no;150;rightarrow;347;true;focus;yes;300013;Chrome;112.0;Windows;10;undefined;undefined;1536 x 864;1536 x 864
H016;53;Vrouwelijk;Rechts;1;88;left;yes;150;undefined;null;true;focus;yes;302042;Chrome;112.0;Windows;10;undefined;undefined;1536 x 864;1536 x 864
H016;53;Vrouwelijk;Rechts;1;89;right;no;200;rightarrow;393;true;focus;yes;303213;Chrome;112.0;Windows;10;undefined;undefined;1536 x 864;1536 x 864
H016;53;Vrouwelijk;Rechts;1;90;left;no;200;leftarrow;408;true;focus;yes;304399;Chrome;112.0;Windows;10;undefined;undefined;1536 x 864;1536 x 864
H016;53;Vrouwelijk;Rechts;1;91;left;yes;200;leftarrow;387;false;focus;yes;305553;Chrome;112.0;Windows;10;undefined;undefined;1536 x 864;1536 x 864
H016;53;Vrouwelijk;Rechts;1;92;right;yes;150;rightarrow;417;false;focus;yes;306746;Chrome;112.0;Windows;10;undefined;undefined;1536 x 864;1536 x 864
H016;53;Vrouwelijk;Rechts;1;93;right;no;100;rightarrow;516;true;focus;yes;308025;Chrome;112.0;Windows;10;undefined;undefined;1536 x 864;1536 x 864
H016;53;Vrouwelijk;Rechts;1;94;right;no;100;rightarrow;475;true;focus;yes;309272;Chrome;112.0;Windows;10;undefined;undefined;1536 x 864;1536 x 864
H016;53;Vrouwelijk;Rechts;1;95;left;no;100;leftarrow;455;true;focus;yes;310503;Chrome;112.0;Windows;10;undefined;undefined;1536 x 864;1536 x 864
H016;53;Vrouwelijk;Rechts;1;96;left;no;100;leftarrow;365;true;focus;yes;311647;Chrome;112.0;Windows;10;undefined;undefined;1536 x 864;1536 x 864
H016;53;Vrouwelijk;Rechts;1;97;left;yes;100;undefined;null;true;focus;yes;313659;Chrome;112.0;Windows;10;undefined;undefined;1536 x 864;1536 x 864
H016;53;Vrouwelijk;Rechts;1;98;right;yes;150;rightarrow;322;false;focus;yes;314753;Chrome;112.0;Windows;10;undefined;undefined;1536 x 864;1536 x 864
H016;53;Vrouwelijk;Rechts;1;99;left;no;100;leftarrow;380;true;focus;yes;315901;Chrome;112.0;Windows;10;undefined;undefined;1536 x 864;1536 x 864
H016;53;Vrouwelijk;Rechts;1;100;right;no;100;rightarrow;441;true;focus;yes;317118;Chrome;112.0;Windows;10;undefined;undefined;1536 x 864;1536 x 864
H016;53;Vrouwelijk;Rechts;1;101;left;no;100;leftarrow;385;true;focus;yes;318286;Chrome;112.0;Windows;10;undefined;undefined;1536 x 864;1536 x 864
H016;53;Vrouwelijk;Rechts;1;102;left;no;100;leftarrow;370;true;focus;yes;319426;Chrome;112.0;Windows;10;undefined;undefined;1536 x 864;1536 x 864
H016;53;Vrouwelijk;Rechts;1;103;right;no;100;rightarrow;388;true;focus;yes;320589;Chrome;112.0;Windows;10;undefined;undefined;1536 x 864;1536 x 864
H016;53;Vrouwelijk;Rechts;1;104;right;no;100;rightarrow;408;true;focus;yes;321771;Chrome;112.0;Windows;10;undefined;undefined;1536 x 864;1536 x 864
H016;53;Vrouwelijk;Rechts;1;105;left;no;100;leftarrow;395;true;focus;yes;322943;Chrome;112.0;Windows;10;undefined;undefined;1536 x 864;1536 x 864
H016;53;Vrouwelijk;Rechts;1;106;right;yes;100;undefined;null;true;focus;yes;324978;Chrome;112.0;Windows;10;undefined;undefined;1536 x 864;1536 x 864
H016;53;Vrouwelijk;Rechts;1;107;left;no;150;leftarrow;397;true;focus;yes;326151;Chrome;112.0;Windows;10;undefined;undefined;1536 x 864;1536 x 864
H016;53;Vrouwelijk;Rechts;1;108;left;no;150;leftarrow;448;true;focus;yes;327367;Chrome;112.0;Windows;10;undefined;undefined;1536 x 864;1536 x 864
H016;53;Vrouwelijk;Rechts;1;109;right;no;150;rightarrow;376;true;focus;yes;328518;Chrome;112.0;Windows;10;undefined;undefined;1536 x 864;1536 x 864
H016;53;Vrouwelijk;Rechts;1;110;right;no;150;rightarrow;425;true;focus;yes;329719;Chrome;112.0;Windows;10;undefined;undefined;1536 x 864;1536 x 864
H016;53;Vrouwelijk;Rechts;1;111;right;no;150;rightarrow;410;true;focus;yes;330895;Chrome;112.0;Windows;10;undefined;undefined;1536 x 864;1536 x 864
H016;53;Vrouwelijk;Rechts;1;112;left;yes;150;undefined;null;true;focus;yes;332918;Chrome;112.0;Windows;10;undefined;undefined;1536 x 864;1536 x 864
H016;53;Vrouwelijk;Rechts;1;113;left;no;200;leftarrow;452;true;focus;yes;334135;Chrome;112.0;Windows;10;undefined;undefined;1536 x 864;1536 x 864
H016;53;Vrouwelijk;Rechts;1;114;right;no;200;rightarrow;348;true;focus;yes;335255;Chrome;112.0;Windows;10;undefined;undefined;1536 x 864;1536 x 864
H016;53;Vrouwelijk;Rechts;1;115;right;no;200;rightarrow;408;true;focus;yes;336429;Chrome;112.0;Windows;10;undefined;undefined;1536 x 864;1536 x 864
H016;53;Vrouwelijk;Rechts;1;116;right;no;200;rightarrow;408;true;focus;yes;337600;Chrome;112.0;Windows;10;undefined;undefined;1536 x 864;1536 x 864
H016;53;Vrouwelijk;Rechts;1;117;left;yes;200;undefined;null;true;focus;yes;339626;Chrome;112.0;Windows;10;undefined;undefined;1536 x 864;1536 x 864
H016;53;Vrouwelijk;Rechts;1;118;left;no;250;leftarrow;361;true;focus;yes;340752;Chrome;112.0;Windows;10;undefined;undefined;1536 x 864;1536 x 864
H016;53;Vrouwelijk;Rechts;1;119;right;yes;250;rightarrow;383;false;focus;yes;341906;Chrome;112.0;Windows;10;undefined;undefined;1536 x 864;1536 x 864
H016;53;Vrouwelijk;Rechts;1;120;left;no;200;leftarrow;470;true;focus;yes;343149;Chrome;112.0;Windows;10;undefined;undefined;1536 x 864;1536 x 864
H016;53;Vrouwelijk;Rechts;1;121;left;yes;200;undefined;null;true;focus;yes;345179;Chrome;112.0;Windows;10;undefined;undefined;1536 x 864;1536 x 864
H016;53;Vrouwelijk;Rechts;1;122;right;no;250;rightarrow;364;true;focus;yes;346324;Chrome;112.0;Windows;10;undefined;undefined;1536 x 864;1536 x 864
H016;53;Vrouwelijk;Rechts;1;123;right;yes;250;rightarrow;450;false;focus;yes;347548;Chrome;112.0;Windows;10;undefined;undefined;1536 x 864;1536 x 864
H016;53;Vrouwelijk;Rechts;1;124;left;no;200;leftarrow;429;true;focus;yes;348750;Chrome;112.0;Windows;10;undefined;undefined;1536 x 864;1536 x 864
H016;53;Vrouwelijk;Rechts;1;125;left;no;200;leftarrow;434;true;focus;yes;349968;Chrome;112.0;Windows;10;undefined;undefined;1536 x 864;1536 x 864
H016;53;Vrouwelijk;Rechts;1;126;left;no;200;leftarrow;420;true;focus;yes;351160;Chrome;112.0;Windows;10;undefined;undefined;1536 x 864;1536 x 864
H016;53;Vrouwelijk;Rechts;1;127;right;no;200;rightarrow;592;true;focus;yes;352534;Chrome;112.0;Windows;10;undefined;undefined;1536 x 864;1536 x 864
H016;53;Vrouwelijk;Rechts;1;128;right;no;200;rightarrow;438;true;focus;yes;353744;Chrome;112.0;Windows;10;undefined;undefined;1536 x 864;1536 x 864
H016;53;Vrouwelijk;Rechts;2;1;left;no;200;leftarrow;435;true;focus;yes;373499;Chrome;112.0;Windows;10;undefined;undefined;1536 x 864;1536 x 864
H016;53;Vrouwelijk;Rechts;2;2;left;yes;200;leftarrow;360;false;focus;yes;374630;Chrome;112.0;Windows;10;undefined;undefined;1536 x 864;1536 x 864
H016;53;Vrouwelijk;Rechts;2;3;right;no;150;rightarrow;386;true;focus;yes;375792;Chrome;112.0;Windows;10;undefined;undefined;1536 x 864;1536 x 864
H016;53;Vrouwelijk;Rechts;2;4;left;no;150;leftarrow;452;true;focus;yes;377024;Chrome;112.0;Windows;10;undefined;undefined;1536 x 864;1536 x 864
H016;53;Vrouwelijk;Rechts;2;5;right;no;150;rightarrow;412;true;focus;yes;378209;Chrome;112.0;Windows;10;undefined;undefined;1536 x 864;1536 x 864
H016;53;Vrouwelijk;Rechts;2;6;right;no;150;rightarrow;371;true;focus;yes;379345;Chrome;112.0;Windows;10;undefined;undefined;1536 x 864;1536 x 864
H016;53;Vrouwelijk;Rechts;2;7;right;yes;150;rightarrow;466;false;focus;yes;380591;Chrome;112.0;Windows;10;undefined;undefined;1536 x 864;1536 x 864
H016;53;Vrouwelijk;Rechts;2;8;left;no;100;leftarrow;397;true;focus;yes;381756;Chrome;112.0;Windows;10;undefined;undefined;1536 x 864;1536 x 864
H016;53;Vrouwelijk;Rechts;2;9;right;no;100;rightarrow;499;true;focus;yes;383024;Chrome;112.0;Windows;10;undefined;undefined;1536 x 864;1536 x 864
H016;53;Vrouwelijk;Rechts;2;10;right;no;100;rightarrow;454;true;focus;yes;384243;Chrome;112.0;Windows;10;undefined;undefined;1536 x 864;1536 x 864
H016;53;Vrouwelijk;Rechts;2;11;left;yes;100;undefined;null;true;focus;yes;386274;Chrome;112.0;Windows;10;undefined;undefined;1536 x 864;1536 x 864
H016;53;Vrouwelijk;Rechts;2;12;left;no;150;leftarrow;350;true;focus;yes;387388;Chrome;112.0;Windows;10;undefined;undefined;1536 x 864;1536 x 864
H016;53;Vrouwelijk;Rechts;2;13;right;yes;150;rightarrow;388;false;focus;yes;388549;Chrome;112.0;Windows;10;undefined;undefined;1536 x 864;1536 x 864
H016;53;Vrouwelijk;Rechts;2;14;right;no;100;rightarrow;567;true;focus;yes;389887;Chrome;112.0;Windows;10;undefined;undefined;1536 x 864;1536 x 864
H016;53;Vrouwelijk;Rechts;2;15;left;no;100;leftarrow;614;true;focus;yes;391278;Chrome;112.0;Windows;10;undefined;undefined;1536 x 864;1536 x 864
H016;53;Vrouwelijk;Rechts;2;16;left;no;100;leftarrow;494;true;focus;yes;392547;Chrome;112.0;Windows;10;undefined;undefined;1536 x 864;1536 x 864
H016;53;Vrouwelijk;Rechts;2;17;left;no;100;leftarrow;430;true;focus;yes;393758;Chrome;112.0;Windows;10;undefined;undefined;1536 x 864;1536 x 864
H016;53;Vrouwelijk;Rechts;2;18;right;no;100;rightarrow;420;true;focus;yes;394949;Chrome;112.0;Windows;10;undefined;undefined;1536 x 864;1536 x 864
H016;53;Vrouwelijk;Rechts;2;19;left;no;100;leftarrow;399;true;focus;yes;396125;Chrome;112.0;Windows;10;undefined;undefined;1536 x 864;1536 x 864
H016;53;Vrouwelijk;Rechts;2;20;left;yes;100;undefined;null;true;focus;yes;398157;Chrome;112.0;Windows;10;undefined;undefined;1536 x 864;1536 x 864
H016;53;Vrouwelijk;Rechts;2;21;right;no;150;rightarrow;333;true;focus;yes;399269;Chrome;112.0;Windows;10;undefined;undefined;1536 x 864;1536 x 864
H016;53;Vrouwelijk;Rechts;2;22;right;no;150;rightarrow;412;true;focus;yes;400457;Chrome;112.0;Windows;10;undefined;undefined;1536 x 864;1536 x 864
H016;53;Vrouwelijk;Rechts;2;23;right;yes;150;undefined;null;true;focus;yes;402477;Chrome;112.0;Windows;10;undefined;undefined;1536 x 864;1536 x 864
H016;53;Vrouwelijk;Rechts;2;24;left;no;200;leftarrow;349;true;focus;yes;403600;Chrome;112.0;Windows;10;undefined;undefined;1536 x 864;1536 x 864
H016;53;Vrouwelijk;Rechts;2;25;right;no;200;rightarrow;477;true;focus;yes;404859;Chrome;112.0;Windows;10;undefined;undefined;1536 x 864;1536 x 864
H016;53;Vrouwelijk;Rechts;2;26;right;no;200;rightarrow;465;true;focus;yes;406103;Chrome;112.0;Windows;10;undefined;undefined;1536 x 864;1536 x 864
H016;53;Vrouwelijk;Rechts;2;27;right;yes;200;rightarrow;432;false;focus;yes;407312;Chrome;112.0;Windows;10;undefined;undefined;1536 x 864;1536 x 864
H016;53;Vrouwelijk;Rechts;2;28;right;no;150;rightarrow;671;true;focus;yes;408747;Chrome;112.0;Windows;10;undefined;undefined;1536 x 864;1536 x 864
H016;53;Vrouwelijk;Rechts;2;29;left;yes;150;leftarrow;435;false;focus;yes;409957;Chrome;112.0;Windows;10;undefined;undefined;1536 x 864;1536 x 864
H016;53;Vrouwelijk;Rechts;2;30;left;no;100;leftarrow;659;true;focus;yes;411389;Chrome;112.0;Windows;10;undefined;undefined;1536 x 864;1536 x 864
H016;53;Vrouwelijk;Rechts;2;31;left;no;100;leftarrow;419;true;focus;yes;412581;Chrome;112.0;Windows;10;undefined;undefined;1536 x 864;1536 x 864
H016;53;Vrouwelijk;Rechts;2;32;left;no;100;leftarrow;417;true;focus;yes;413770;Chrome;112.0;Windows;10;undefined;undefined;1536 x 864;1536 x 864
H016;53;Vrouwelijk;Rechts;2;33;left;no;100;leftarrow;468;true;focus;yes;415011;Chrome;112.0;Windows;10;undefined;undefined;1536 x 864;1536 x 864
H016;53;Vrouwelijk;Rechts;2;34;right;no;100;rightarrow;466;true;focus;yes;416239;Chrome;112.0;Windows;10;undefined;undefined;1536 x 864;1536 x 864
H016;53;Vrouwelijk;Rechts;2;35;right;yes;100;undefined;null;true;focus;yes;418277;Chrome;112.0;Windows;10;undefined;undefined;1536 x 864;1536 x 864
H016;53;Vrouwelijk;Rechts;2;36;left;yes;150;leftarrow;424;false;focus;yes;419473;Chrome;112.0;Windows;10;undefined;undefined;1536 x 864;1536 x 864
H016;53;Vrouwelijk;Rechts;2;37;left;no;100;leftarrow;496;true;focus;yes;420738;Chrome;112.0;Windows;10;undefined;undefined;1536 x 864;1536 x 864
H016;53;Vrouwelijk;Rechts;2;38;right;no;100;rightarrow;409;true;focus;yes;421921;Chrome;112.0;Windows;10;undefined;undefined;1536 x 864;1536 x 864
H016;53;Vrouwelijk;Rechts;2;39;left;no;100;leftarrow;478;true;focus;yes;423174;Chrome;112.0;Windows;10;undefined;undefined;1536 x 864;1536 x 864
H016;53;Vrouwelijk;Rechts;2;40;right;no;100;rightarrow;446;true;focus;yes;424401;Chrome;112.0;Windows;10;undefined;undefined;1536 x 864;1536 x 864
H016;53;Vrouwelijk;Rechts;2;41;left;no;100;leftarrow;417;true;focus;yes;425586;Chrome;112.0;Windows;10;undefined;undefined;1536 x 864;1536 x 864
H016;53;Vrouwelijk;Rechts;2;42;left;no;100;leftarrow;520;true;focus;yes;426882;Chrome;112.0;Windows;10;undefined;undefined;1536 x 864;1536 x 864
H016;53;Vrouwelijk;Rechts;2;43;right;no;100;rightarrow;415;true;focus;yes;428069;Chrome;112.0;Windows;10;undefined;undefined;1536 x 864;1536 x 864
H016;53;Vrouwelijk;Rechts;2;44;right;no;100;rightarrow;438;true;focus;yes;429269;Chrome;112.0;Windows;10;undefined;undefined;1536 x 864;1536 x 864
H016;53;Vrouwelijk;Rechts;2;45;left;yes;100;undefined;null;true;focus;yes;431296;Chrome;112.0;Windows;10;undefined;undefined;1536 x 864;1536 x 864
H016;53;Vrouwelijk;Rechts;2;46;right;yes;150;rightarrow;419;false;focus;yes;432478;Chrome;112.0;Windows;10;undefined;undefined;1536 x 864;1536 x 864
H016;53;Vrouwelijk;Rechts;2;47;left;no;100;leftarrow;410;true;focus;yes;433663;Chrome;112.0;Windows;10;undefined;undefined;1536 x 864;1536 x 864
H016;53;Vrouwelijk;Rechts;2;48;right;no;100;rightarrow;445;true;focus;yes;434882;Chrome;112.0;Windows;10;undefined;undefined;1536 x 864;1536 x 864
H016;53;Vrouwelijk;Rechts;2;49;right;no;100;rightarrow;481;true;focus;yes;436135;Chrome;112.0;Windows;10;undefined;undefined;1536 x 864;1536 x 864
H016;53;Vrouwelijk;Rechts;2;50;left;no;100;leftarrow;634;true;focus;yes;437542;Chrome;112.0;Windows;10;undefined;undefined;1536 x 864;1536 x 864
H016;53;Vrouwelijk;Rechts;2;51;right;no;100;rightarrow;613;true;focus;yes;438919;Chrome;112.0;Windows;10;undefined;undefined;1536 x 864;1536 x 864
H016;53;Vrouwelijk;Rechts;2;52;left;no;100;leftarrow;651;true;focus;yes;440340;Chrome;112.0;Windows;10;undefined;undefined;1536 x 864;1536 x 864
H016;53;Vrouwelijk;Rechts;2;53;left;no;100;leftarrow;377;true;focus;yes;441495;Chrome;112.0;Windows;10;undefined;undefined;1536 x 864;1536 x 864
H016;53;Vrouwelijk;Rechts;2;54;right;no;100;rightarrow;396;true;focus;yes;442661;Chrome;112.0;Windows;10;undefined;undefined;1536 x 864;1536 x 864
H016;53;Vrouwelijk;Rechts;2;55;right;yes;100;undefined;null;true;focus;yes;444693;Chrome;112.0;Windows;10;undefined;undefined;1536 x 864;1536 x 864
H016;53;Vrouwelijk;Rechts;2;56;left;yes;150;undefined;null;true;focus;yes;446725;Chrome;112.0;Windows;10;undefined;undefined;1536 x 864;1536 x 864
H016;53;Vrouwelijk;Rechts;2;57;left;yes;200;leftarrow;418;false;focus;yes;447902;Chrome;112.0;Windows;10;undefined;undefined;1536 x 864;1536 x 864
H016;53;Vrouwelijk;Rechts;2;58;right;no;150;rightarrow;419;true;focus;yes;449092;Chrome;112.0;Windows;10;undefined;undefined;1536 x 864;1536 x 864
H016;53;Vrouwelijk;Rechts;2;59;right;no;150;rightarrow;414;true;focus;yes;450282;Chrome;112.0;Windows;10;undefined;undefined;1536 x 864;1536 x 864
H016;53;Vrouwelijk;Rechts;2;60;right;no;150;rightarrow;396;true;focus;yes;451449;Chrome;112.0;Windows;10;undefined;undefined;1536 x 864;1536 x 864
H016;53;Vrouwelijk;Rechts;2;61;right;yes;150;undefined;null;true;focus;yes;453480;Chrome;112.0;Windows;10;undefined;undefined;1536 x 864;1536 x 864
H016;53;Vrouwelijk;Rechts;2;62;left;no;200;leftarrow;372;true;focus;yes;454624;Chrome;112.0;Windows;10;undefined;undefined;1536 x 864;1536 x 864
H016;53;Vrouwelijk;Rechts;2;63;left;no;200;leftarrow;400;true;focus;yes;455796;Chrome;112.0;Windows;10;undefined;undefined;1536 x 864;1536 x 864
H016;53;Vrouwelijk;Rechts;2;64;left;no;200;leftarrow;365;true;focus;yes;456934;Chrome;112.0;Windows;10;undefined;undefined;1536 x 864;1536 x 864
H016;53;Vrouwelijk;Rechts;2;65;right;no;200;rightarrow;461;true;focus;yes;458175;Chrome;112.0;Windows;10;undefined;undefined;1536 x 864;1536 x 864
H016;53;Vrouwelijk;Rechts;2;66;right;no;200;rightarrow;394;true;focus;yes;459345;Chrome;112.0;Windows;10;undefined;undefined;1536 x 864;1536 x 864
H016;53;Vrouwelijk;Rechts;2;67;left;no;200;leftarrow;634;true;focus;yes;460747;Chrome;112.0;Windows;10;undefined;undefined;1536 x 864;1536 x 864
H016;53;Vrouwelijk;Rechts;2;68;left;no;200;leftarrow;434;true;focus;yes;461952;Chrome;112.0;Windows;10;undefined;undefined;1536 x 864;1536 x 864
H016;53;Vrouwelijk;Rechts;2;69;left;no;200;leftarrow;400;true;focus;yes;463132;Chrome;112.0;Windows;10;undefined;undefined;1536 x 864;1536 x 864
H016;53;Vrouwelijk;Rechts;2;70;right;yes;200;rightarrow;388;false;focus;yes;464283;Chrome;112.0;Windows;10;undefined;undefined;1536 x 864;1536 x 864
H016;53;Vrouwelijk;Rechts;2;71;left;yes;150;undefined;null;true;focus;yes;466308;Chrome;112.0;Windows;10;undefined;undefined;1536 x 864;1536 x 864
H016;53;Vrouwelijk;Rechts;2;72;right;no;200;rightarrow;498;true;focus;yes;467567;Chrome;112.0;Windows;10;undefined;undefined;1536 x 864;1536 x 864
H016;53;Vrouwelijk;Rechts;2;73;left;no;200;leftarrow;390;true;focus;yes;468720;Chrome;112.0;Windows;10;undefined;undefined;1536 x 864;1536 x 864
H016;53;Vrouwelijk;Rechts;2;74;left;yes;200;leftarrow;411;false;focus;yes;469912;Chrome;112.0;Windows;10;undefined;undefined;1536 x 864;1536 x 864
H016;53;Vrouwelijk;Rechts;2;75;left;no;150;leftarrow;697;true;focus;yes;471385;Chrome;112.0;Windows;10;undefined;undefined;1536 x 864;1536 x 864
H016;53;Vrouwelijk;Rechts;2;76;right;no;150;rightarrow;374;true;focus;yes;472536;Chrome;112.0;Windows;10;undefined;undefined;1536 x 864;1536 x 864
H016;53;Vrouwelijk;Rechts;2;77;left;no;150;leftarrow;461;true;focus;yes;473768;Chrome;112.0;Windows;10;undefined;undefined;1536 x 864;1536 x 864
H016;53;Vrouwelijk;Rechts;2;78;right;no;150;rightarrow;452;true;focus;yes;474992;Chrome;112.0;Windows;10;undefined;undefined;1536 x 864;1536 x 864
H016;53;Vrouwelijk;Rechts;2;79;right;yes;150;undefined;null;true;focus;yes;477020;Chrome;112.0;Windows;10;undefined;undefined;1536 x 864;1536 x 864
H016;53;Vrouwelijk;Rechts;2;80;right;no;200;rightarrow;436;true;focus;yes;478219;Chrome;112.0;Windows;10;undefined;undefined;1536 x 864;1536 x 864
H016;53;Vrouwelijk;Rechts;2;81;right;yes;200;undefined;null;true;focus;yes;480238;Chrome;112.0;Windows;10;undefined;undefined;1536 x 864;1536 x 864
H016;53;Vrouwelijk;Rechts;2;82;left;yes;250;undefined;null;true;focus;yes;482250;Chrome;112.0;Windows;10;undefined;undefined;1536 x 864;1536 x 864
H016;53;Vrouwelijk;Rechts;2;83;left;no;300;leftarrow;444;true;focus;yes;483475;Chrome;112.0;Windows;10;undefined;undefined;1536 x 864;1536 x 864
H016;53;Vrouwelijk;Rechts;2;84;right;no;300;rightarrow;495;true;focus;yes;484747;Chrome;112.0;Windows;10;undefined;undefined;1536 x 864;1536 x 864
H016;53;Vrouwelijk;Rechts;2;85;right;no;300;rightarrow;427;true;focus;yes;485939;Chrome;112.0;Windows;10;undefined;undefined;1536 x 864;1536 x 864
H016;53;Vrouwelijk;Rechts;2;86;right;no;300;rightarrow;541;true;focus;yes;487258;Chrome;112.0;Windows;10;undefined;undefined;1536 x 864;1536 x 864
H016;53;Vrouwelijk;Rechts;2;87;left;no;300;leftarrow;543;true;focus;yes;488564;Chrome;112.0;Windows;10;undefined;undefined;1536 x 864;1536 x 864
H016;53;Vrouwelijk;Rechts;2;88;left;no;300;leftarrow;436;true;focus;yes;489766;Chrome;112.0;Windows;10;undefined;undefined;1536 x 864;1536 x 864
H016;53;Vrouwelijk;Rechts;2;89;left;no;300;leftarrow;477;true;focus;yes;491026;Chrome;112.0;Windows;10;undefined;undefined;1536 x 864;1536 x 864
H016;53;Vrouwelijk;Rechts;2;90;left;no;300;leftarrow;449;true;focus;yes;492250;Chrome;112.0;Windows;10;undefined;undefined;1536 x 864;1536 x 864
H016;53;Vrouwelijk;Rechts;2;91;right;yes;300;rightarrow;380;false;focus;yes;493391;Chrome;112.0;Windows;10;undefined;undefined;1536 x 864;1536 x 864
H016;53;Vrouwelijk;Rechts;2;92;right;no;250;rightarrow;514;true;focus;yes;494676;Chrome;112.0;Windows;10;undefined;undefined;1536 x 864;1536 x 864
H016;53;Vrouwelijk;Rechts;2;93;right;no;250;rightarrow;542;true;focus;yes;495984;Chrome;112.0;Windows;10;undefined;undefined;1536 x 864;1536 x 864
H016;53;Vrouwelijk;Rechts;2;94;left;yes;250;leftarrow;454;false;focus;yes;497205;Chrome;112.0;Windows;10;undefined;undefined;1536 x 864;1536 x 864
H016;53;Vrouwelijk;Rechts;2;95;left;no;200;leftarrow;629;true;focus;yes;498601;Chrome;112.0;Windows;10;undefined;undefined;1536 x 864;1536 x 864
H016;53;Vrouwelijk;Rechts;2;96;right;no;200;rightarrow;419;true;focus;yes;499783;Chrome;112.0;Windows;10;undefined;undefined;1536 x 864;1536 x 864
H016;53;Vrouwelijk;Rechts;2;97;left;yes;200;leftarrow;459;false;focus;yes;501004;Chrome;112.0;Windows;10;undefined;undefined;1536 x 864;1536 x 864
H016;53;Vrouwelijk;Rechts;2;98;right;yes;150;undefined;null;true;focus;yes;503046;Chrome;112.0;Windows;10;undefined;undefined;1536 x 864;1536 x 864
H016;53;Vrouwelijk;Rechts;2;99;left;no;200;leftarrow;482;true;focus;yes;504298;Chrome;112.0;Windows;10;undefined;undefined;1536 x 864;1536 x 864
H016;53;Vrouwelijk;Rechts;2;100;left;no;200;leftarrow;565;true;focus;yes;505639;Chrome;112.0;Windows;10;undefined;undefined;1536 x 864;1536 x 864
H016;53;Vrouwelijk;Rechts;2;101;right;no;200;rightarrow;475;true;focus;yes;506890;Chrome;112.0;Windows;10;undefined;undefined;1536 x 864;1536 x 864
H016;53;Vrouwelijk;Rechts;2;102;right;no;200;rightarrow;438;true;focus;yes;508097;Chrome;112.0;Windows;10;undefined;undefined;1536 x 864;1536 x 864
H016;53;Vrouwelijk;Rechts;2;103;right;no;200;rightarrow;588;true;focus;yes;509449;Chrome;112.0;Windows;10;undefined;undefined;1536 x 864;1536 x 864
H016;53;Vrouwelijk;Rechts;2;104;left;no;200;leftarrow;537;true;focus;yes;510748;Chrome;112.0;Windows;10;undefined;undefined;1536 x 864;1536 x 864
H016;53;Vrouwelijk;Rechts;2;105;left;no;200;leftarrow;620;true;focus;yes;512129;Chrome;112.0;Windows;10;undefined;undefined;1536 x 864;1536 x 864
H016;53;Vrouwelijk;Rechts;2;106;right;no;200;rightarrow;447;true;focus;yes;513350;Chrome;112.0;Windows;10;undefined;undefined;1536 x 864;1536 x 864
H016;53;Vrouwelijk;Rechts;2;107;left;no;200;leftarrow;431;true;focus;yes;514560;Chrome;112.0;Windows;10;undefined;undefined;1536 x 864;1536 x 864
H016;53;Vrouwelijk;Rechts;2;108;right;yes;200;rightarrow;455;false;focus;yes;515791;Chrome;112.0;Windows;10;undefined;undefined;1536 x 864;1536 x 864
H016;53;Vrouwelijk;Rechts;2;109;left;no;150;leftarrow;486;true;focus;yes;517057;Chrome;112.0;Windows;10;undefined;undefined;1536 x 864;1536 x 864
H016;53;Vrouwelijk;Rechts;2;110;right;no;150;rightarrow;426;true;focus;yes;518245;Chrome;112.0;Windows;10;undefined;undefined;1536 x 864;1536 x 864
H016;53;Vrouwelijk;Rechts;2;111;right;no;150;rightarrow;417;true;focus;yes;519438;Chrome;112.0;Windows;10;undefined;undefined;1536 x 864;1536 x 864
H016;53;Vrouwelijk;Rechts;2;112;left;yes;150;undefined;null;true;focus;yes;521471;Chrome;112.0;Windows;10;undefined;undefined;1536 x 864;1536 x 864
H016;53;Vrouwelijk;Rechts;2;113;left;no;200;leftarrow;726;true;focus;yes;522971;Chrome;112.0;Windows;10;undefined;undefined;1536 x 864;1536 x 864
H016;53;Vrouwelijk;Rechts;2;114;right;no;200;rightarrow;438;true;focus;yes;524181;Chrome;112.0;Windows;10;undefined;undefined;1536 x 864;1536 x 864
H016;53;Vrouwelijk;Rechts;2;115;right;yes;200;rightarrow;404;false;focus;yes;525362;Chrome;112.0;Windows;10;undefined;undefined;1536 x 864;1536 x 864
H016;53;Vrouwelijk;Rechts;2;116;right;no;150;rightarrow;509;true;focus;yes;526633;Chrome;112.0;Windows;10;undefined;undefined;1536 x 864;1536 x 864
H016;53;Vrouwelijk;Rechts;2;117;left;no;150;leftarrow;492;true;focus;yes;527899;Chrome;112.0;Windows;10;undefined;undefined;1536 x 864;1536 x 864
H016;53;Vrouwelijk;Rechts;2;118;right;no;150;rightarrow;418;true;focus;yes;529096;Chrome;112.0;Windows;10;undefined;undefined;1536 x 864;1536 x 864
H016;53;Vrouwelijk;Rechts;2;119;left;no;150;leftarrow;431;true;focus;yes;530301;Chrome;112.0;Windows;10;undefined;undefined;1536 x 864;1536 x 864
H016;53;Vrouwelijk;Rechts;2;120;left;yes;150;undefined;null;true;focus;yes;532324;Chrome;112.0;Windows;10;undefined;undefined;1536 x 864;1536 x 864
H016;53;Vrouwelijk;Rechts;2;121;right;no;200;rightarrow;375;true;focus;yes;533471;Chrome;112.0;Windows;10;undefined;undefined;1536 x 864;1536 x 864
H016;53;Vrouwelijk;Rechts;2;122;left;no;200;leftarrow;390;true;focus;yes;534634;Chrome;112.0;Windows;10;undefined;undefined;1536 x 864;1536 x 864
H016;53;Vrouwelijk;Rechts;2;123;right;no;200;rightarrow;380;true;focus;yes;535782;Chrome;112.0;Windows;10;undefined;undefined;1536 x 864;1536 x 864
H016;53;Vrouwelijk;Rechts;2;124;right;yes;200;undefined;null;true;focus;yes;537815;Chrome;112.0;Windows;10;undefined;undefined;1536 x 864;1536 x 864
H016;53;Vrouwelijk;Rechts;2;125;right;no;250;rightarrow;484;true;focus;yes;539062;Chrome;112.0;Windows;10;undefined;undefined;1536 x 864;1536 x 864
H016;53;Vrouwelijk;Rechts;2;126;left;yes;250;leftarrow;395;false;focus;yes;540238;Chrome;112.0;Windows;10;undefined;undefined;1536 x 864;1536 x 864
H016;53;Vrouwelijk;Rechts;2;127;left;no;200;leftarrow;525;true;focus;yes;541546;Chrome;112.0;Windows;10;undefined;undefined;1536 x 864;1536 x 864
H016;53;Vrouwelijk;Rechts;2;128;left;no;200;leftarrow;410;true;focus;yes;542728;Chrome;112.0;Windows;10;undefined;undefined;1536 x 864;1536 x 864
H016;53;Vrouwelijk;Rechts;3;1;left;no;200;leftarrow;430;true;focus;yes;561673;Chrome;112.0;Windows;10;undefined;undefined;1536 x 864;1536 x 864
H016;53;Vrouwelijk;Rechts;3;2;left;no;200;leftarrow;338;true;focus;yes;562791;Chrome;112.0;Windows;10;undefined;undefined;1536 x 864;1536 x 864
H016;53;Vrouwelijk;Rechts;3;3;right;yes;200;undefined;null;true;focus;yes;564811;Chrome;112.0;Windows;10;undefined;undefined;1536 x 864;1536 x 864
H016;53;Vrouwelijk;Rechts;3;4;right;no;250;rightarrow;451;true;focus;yes;566033;Chrome;112.0;Windows;10;undefined;undefined;1536 x 864;1536 x 864
H016;53;Vrouwelijk;Rechts;3;5;left;yes;250;leftarrow;418;false;focus;yes;567234;Chrome;112.0;Windows;10;undefined;undefined;1536 x 864;1536 x 864
H016;53;Vrouwelijk;Rechts;3;6;left;no;200;leftarrow;496;true;focus;yes;568514;Chrome;112.0;Windows;10;undefined;undefined;1536 x 864;1536 x 864
H016;53;Vrouwelijk;Rechts;3;7;right;no;200;rightarrow;652;true;focus;yes;569944;Chrome;112.0;Windows;10;undefined;undefined;1536 x 864;1536 x 864
H016;53;Vrouwelijk;Rechts;3;8;right;no;200;rightarrow;477;true;focus;yes;571188;Chrome;112.0;Windows;10;undefined;undefined;1536 x 864;1536 x 864
H016;53;Vrouwelijk;Rechts;3;9;right;no;200;rightarrow;375;true;focus;yes;572342;Chrome;112.0;Windows;10;undefined;undefined;1536 x 864;1536 x 864
H016;53;Vrouwelijk;Rechts;3;10;right;yes;200;undefined;null;true;focus;yes;574361;Chrome;112.0;Windows;10;undefined;undefined;1536 x 864;1536 x 864
H016;53;Vrouwelijk;Rechts;3;11;right;no;250;rightarrow;522;true;focus;yes;575649;Chrome;112.0;Windows;10;undefined;undefined;1536 x 864;1536 x 864
H016;53;Vrouwelijk;Rechts;3;12;left;no;250;leftarrow;464;true;focus;yes;576886;Chrome;112.0;Windows;10;undefined;undefined;1536 x 864;1536 x 864
H016;53;Vrouwelijk;Rechts;3;13;right;no;250;rightarrow;673;true;focus;yes;578339;Chrome;112.0;Windows;10;undefined;undefined;1536 x 864;1536 x 864
H016;53;Vrouwelijk;Rechts;3;14;left;no;250;leftarrow;439;true;focus;yes;579547;Chrome;112.0;Windows;10;undefined;undefined;1536 x 864;1536 x 864
H016;53;Vrouwelijk;Rechts;3;15;left;yes;250;leftarrow;409;false;focus;yes;580727;Chrome;112.0;Windows;10;undefined;undefined;1536 x 864;1536 x 864
H016;53;Vrouwelijk;Rechts;3;16;left;no;200;leftarrow;585;true;focus;yes;582096;Chrome;112.0;Windows;10;undefined;undefined;1536 x 864;1536 x 864
H016;53;Vrouwelijk;Rechts;3;17;left;no;200;leftarrow;434;true;focus;yes;583308;Chrome;112.0;Windows;10;undefined;undefined;1536 x 864;1536 x 864
H016;53;Vrouwelijk;Rechts;3;18;right;yes;200;undefined;null;true;focus;yes;585343;Chrome;112.0;Windows;10;undefined;undefined;1536 x 864;1536 x 864
H016;53;Vrouwelijk;Rechts;3;19;left;yes;250;leftarrow;427;false;focus;yes;586551;Chrome;112.0;Windows;10;undefined;undefined;1536 x 864;1536 x 864
H016;53;Vrouwelijk;Rechts;3;20;right;no;200;rightarrow;1159;true;focus;yes;588482;Chrome;112.0;Windows;10;undefined;undefined;1536 x 864;1536 x 864
H016;53;Vrouwelijk;Rechts;3;21;left;no;200;leftarrow;430;true;focus;yes;589672;Chrome;112.0;Windows;10;undefined;undefined;1536 x 864;1536 x 864
H016;53;Vrouwelijk;Rechts;3;22;right;no;200;rightarrow;482;true;focus;yes;590923;Chrome;112.0;Windows;10;undefined;undefined;1536 x 864;1536 x 864
H016;53;Vrouwelijk;Rechts;3;23;right;no;200;rightarrow;407;true;focus;yes;592108;Chrome;112.0;Windows;10;undefined;undefined;1536 x 864;1536 x 864
H016;53;Vrouwelijk;Rechts;3;24;left;no;200;leftarrow;570;true;focus;yes;593443;Chrome;112.0;Windows;10;undefined;undefined;1536 x 864;1536 x 864
H016;53;Vrouwelijk;Rechts;3;25;right;no;200;rightarrow;451;true;focus;yes;594673;Chrome;112.0;Windows;10;undefined;undefined;1536 x 864;1536 x 864
H016;53;Vrouwelijk;Rechts;3;26;left;no;200;leftarrow;437;true;focus;yes;595891;Chrome;112.0;Windows;10;undefined;undefined;1536 x 864;1536 x 864
H016;53;Vrouwelijk;Rechts;3;27;left;no;200;leftarrow;419;true;focus;yes;597082;Chrome;112.0;Windows;10;undefined;undefined;1536 x 864;1536 x 864
H016;53;Vrouwelijk;Rechts;3;28;right;no;200;rightarrow;450;true;focus;yes;598309;Chrome;112.0;Windows;10;undefined;undefined;1536 x 864;1536 x 864
H016;53;Vrouwelijk;Rechts;3;29;right;no;200;rightarrow;462;true;focus;yes;599540;Chrome;112.0;Windows;10;undefined;undefined;1536 x 864;1536 x 864
H016;53;Vrouwelijk;Rechts;3;30;left;no;200;leftarrow;407;true;focus;yes;600709;Chrome;112.0;Windows;10;undefined;undefined;1536 x 864;1536 x 864
H016;53;Vrouwelijk;Rechts;3;31;right;yes;200;undefined;null;true;focus;yes;602736;Chrome;112.0;Windows;10;undefined;undefined;1536 x 864;1536 x 864
H016;53;Vrouwelijk;Rechts;3;32;left;yes;250;leftarrow;391;false;focus;yes;603890;Chrome;112.0;Windows;10;undefined;undefined;1536 x 864;1536 x 864
H016;53;Vrouwelijk;Rechts;3;33;left;no;200;leftarrow;575;true;focus;yes;605240;Chrome;112.0;Windows;10;undefined;undefined;1536 x 864;1536 x 864
H016;53;Vrouwelijk;Rechts;3;34;right;no;200;rightarrow;401;true;focus;yes;606416;Chrome;112.0;Windows;10;undefined;undefined;1536 x 864;1536 x 864
H016;53;Vrouwelijk;Rechts;3;35;left;yes;200;leftarrow;407;false;focus;yes;607604;Chrome;112.0;Windows;10;undefined;undefined;1536 x 864;1536 x 864
H016;53;Vrouwelijk;Rechts;3;36;left;no;150;leftarrow;495;true;focus;yes;608876;Chrome;112.0;Windows;10;undefined;undefined;1536 x 864;1536 x 864
H016;53;Vrouwelijk;Rechts;3;37;right;no;150;rightarrow;447;true;focus;yes;610088;Chrome;112.0;Windows;10;undefined;undefined;1536 x 864;1536 x 864
H016;53;Vrouwelijk;Rechts;3;38;right;yes;150;undefined;null;true;focus;yes;612101;Chrome;112.0;Windows;10;undefined;undefined;1536 x 864;1536 x 864
H016;53;Vrouwelijk;Rechts;3;39;right;no;200;rightarrow;494;true;focus;yes;613373;Chrome;112.0;Windows;10;undefined;undefined;1536 x 864;1536 x 864
H016;53;Vrouwelijk;Rechts;3;40;left;no;200;leftarrow;414;true;focus;yes;614555;Chrome;112.0;Windows;10;undefined;undefined;1536 x 864;1536 x 864
H016;53;Vrouwelijk;Rechts;3;41;left;no;200;leftarrow;413;true;focus;yes;615747;Chrome;112.0;Windows;10;undefined;undefined;1536 x 864;1536 x 864
H016;53;Vrouwelijk;Rechts;3;42;right;no;200;rightarrow;442;true;focus;yes;616957;Chrome;112.0;Windows;10;undefined;undefined;1536 x 864;1536 x 864
H016;53;Vrouwelijk;Rechts;3;43;left;no;200;leftarrow;577;true;focus;yes;618306;Chrome;112.0;Windows;10;undefined;undefined;1536 x 864;1536 x 864
H016;53;Vrouwelijk;Rechts;3;44;left;yes;200;leftarrow;480;false;focus;yes;619553;Chrome;112.0;Windows;10;undefined;undefined;1536 x 864;1536 x 864
H016;53;Vrouwelijk;Rechts;3;45;right;no;150;rightarrow;364;true;focus;yes;620693;Chrome;112.0;Windows;10;undefined;undefined;1536 x 864;1536 x 864
H016;53;Vrouwelijk;Rechts;3;46;left;no;150;leftarrow;420;true;focus;yes;621885;Chrome;112.0;Windows;10;undefined;undefined;1536 x 864;1536 x 864
H016;53;Vrouwelijk;Rechts;3;47;right;yes;150;undefined;null;true;focus;yes;623905;Chrome;112.0;Windows;10;undefined;undefined;1536 x 864;1536 x 864
H016;53;Vrouwelijk;Rechts;3;48;right;no;200;rightarrow;373;true;focus;yes;625049;Chrome;112.0;Windows;10;undefined;undefined;1536 x 864;1536 x 864
H016;53;Vrouwelijk;Rechts;3;49;left;yes;200;leftarrow;446;false;focus;yes;626268;Chrome;112.0;Windows;10;undefined;undefined;1536 x 864;1536 x 864
H016;53;Vrouwelijk;Rechts;3;50;right;no;150;rightarrow;564;true;focus;yes;627602;Chrome;112.0;Windows;10;undefined;undefined;1536 x 864;1536 x 864
H016;53;Vrouwelijk;Rechts;3;51;left;no;150;leftarrow;561;true;focus;yes;628927;Chrome;112.0;Windows;10;undefined;undefined;1536 x 864;1536 x 864
H016;53;Vrouwelijk;Rechts;3;52;right;no;150;rightarrow;412;true;focus;yes;630119;Chrome;112.0;Windows;10;undefined;undefined;1536 x 864;1536 x 864
H016;53;Vrouwelijk;Rechts;3;53;right;no;150;rightarrow;608;true;focus;yes;631497;Chrome;112.0;Windows;10;undefined;undefined;1536 x 864;1536 x 864
H016;53;Vrouwelijk;Rechts;3;54;right;yes;150;undefined;null;true;focus;yes;633514;Chrome;112.0;Windows;10;undefined;undefined;1536 x 864;1536 x 864
H016;53;Vrouwelijk;Rechts;3;55;left;no;200;leftarrow;435;true;focus;yes;634713;Chrome;112.0;Windows;10;undefined;undefined;1536 x 864;1536 x 864
H016;53;Vrouwelijk;Rechts;3;56;left;no;200;leftarrow;463;true;focus;yes;635958;Chrome;112.0;Windows;10;undefined;undefined;1536 x 864;1536 x 864
H016;53;Vrouwelijk;Rechts;3;57;right;no;200;rightarrow;466;true;focus;yes;637201;Chrome;112.0;Windows;10;undefined;undefined;1536 x 864;1536 x 864
H016;53;Vrouwelijk;Rechts;3;58;left;no;200;leftarrow;409;true;focus;yes;638390;Chrome;112.0;Windows;10;undefined;undefined;1536 x 864;1536 x 864
H016;53;Vrouwelijk;Rechts;3;59;left;no;200;leftarrow;416;true;focus;yes;639577;Chrome;112.0;Windows;10;undefined;undefined;1536 x 864;1536 x 864
H016;53;Vrouwelijk;Rechts;3;60;right;no;200;rightarrow;387;true;focus;yes;640730;Chrome;112.0;Windows;10;undefined;undefined;1536 x 864;1536 x 864
H016;53;Vrouwelijk;Rechts;3;61;right;no;200;rightarrow;438;true;focus;yes;641936;Chrome;112.0;Windows;10;undefined;undefined;1536 x 864;1536 x 864
H016;53;Vrouwelijk;Rechts;3;62;left;yes;200;leftarrow;417;false;focus;yes;643131;Chrome;112.0;Windows;10;undefined;undefined;1536 x 864;1536 x 864
H016;53;Vrouwelijk;Rechts;3;63;right;yes;150;undefined;null;true;focus;yes;645173;Chrome;112.0;Windows;10;undefined;undefined;1536 x 864;1536 x 864
H016;53;Vrouwelijk;Rechts;3;64;left;no;200;leftarrow;504;true;focus;yes;646443;Chrome;112.0;Windows;10;undefined;undefined;1536 x 864;1536 x 864
H016;53;Vrouwelijk;Rechts;3;65;left;no;200;leftarrow;464;true;focus;yes;647681;Chrome;112.0;Windows;10;undefined;undefined;1536 x 864;1536 x 864
H016;53;Vrouwelijk;Rechts;3;66;right;no;200;rightarrow;399;true;focus;yes;648851;Chrome;112.0;Windows;10;undefined;undefined;1536 x 864;1536 x 864
H016;53;Vrouwelijk;Rechts;3;67;right;no;200;rightarrow;437;true;focus;yes;650061;Chrome;112.0;Windows;10;undefined;undefined;1536 x 864;1536 x 864
H016;53;Vrouwelijk;Rechts;3;68;left;yes;200;leftarrow;416;false;focus;yes;651251;Chrome;112.0;Windows;10;undefined;undefined;1536 x 864;1536 x 864
H016;53;Vrouwelijk;Rechts;3;69;right;yes;150;undefined;null;true;focus;yes;653282;Chrome;112.0;Windows;10;undefined;undefined;1536 x 864;1536 x 864
H016;53;Vrouwelijk;Rechts;3;70;left;no;200;leftarrow;381;true;focus;yes;654435;Chrome;112.0;Windows;10;undefined;undefined;1536 x 864;1536 x 864
H016;53;Vrouwelijk;Rechts;3;71;right;no;200;rightarrow;399;true;focus;yes;655612;Chrome;112.0;Windows;10;undefined;undefined;1536 x 864;1536 x 864
H016;53;Vrouwelijk;Rechts;3;72;left;no;200;leftarrow;438;true;focus;yes;656832;Chrome;112.0;Windows;10;undefined;undefined;1536 x 864;1536 x 864
H016;53;Vrouwelijk;Rechts;3;73;right;no;200;rightarrow;392;true;focus;yes;658002;Chrome;112.0;Windows;10;undefined;undefined;1536 x 864;1536 x 864
H016;53;Vrouwelijk;Rechts;3;74;right;no;200;rightarrow;394;true;focus;yes;659169;Chrome;112.0;Windows;10;undefined;undefined;1536 x 864;1536 x 864
H016;53;Vrouwelijk;Rechts;3;75;right;no;200;rightarrow;440;true;focus;yes;660371;Chrome;112.0;Windows;10;undefined;undefined;1536 x 864;1536 x 864
H016;53;Vrouwelijk;Rechts;3;76;left;no;200;leftarrow;600;true;focus;yes;661735;Chrome;112.0;Windows;10;undefined;undefined;1536 x 864;1536 x 864
H016;53;Vrouwelijk;Rechts;3;77;left;no;200;leftarrow;454;true;focus;yes;662961;Chrome;112.0;Windows;10;undefined;undefined;1536 x 864;1536 x 864
H016;53;Vrouwelijk;Rechts;3;78;right;yes;200;rightarrow;381;false;focus;yes;664118;Chrome;112.0;Windows;10;undefined;undefined;1536 x 864;1536 x 864
H016;53;Vrouwelijk;Rechts;3;79;left;yes;150;undefined;null;true;focus;yes;666146;Chrome;112.0;Windows;10;undefined;undefined;1536 x 864;1536 x 864
H016;53;Vrouwelijk;Rechts;3;80;left;no;200;leftarrow;327;true;focus;yes;667245;Chrome;112.0;Windows;10;undefined;undefined;1536 x 864;1536 x 864
H016;53;Vrouwelijk;Rechts;3;81;left;yes;200;leftarrow;380;false;focus;yes;668401;Chrome;112.0;Windows;10;undefined;undefined;1536 x 864;1536 x 864
H016;53;Vrouwelijk;Rechts;3;82;left;no;150;leftarrow;592;true;focus;yes;669778;Chrome;112.0;Windows;10;undefined;undefined;1536 x 864;1536 x 864
H016;53;Vrouwelijk;Rechts;3;83;left;no;150;leftarrow;393;true;focus;yes;670950;Chrome;112.0;Windows;10;undefined;undefined;1536 x 864;1536 x 864
H016;53;Vrouwelijk;Rechts;3;84;right;yes;150;rightarrow;395;false;focus;yes;672123;Chrome;112.0;Windows;10;undefined;undefined;1536 x 864;1536 x 864
H016;53;Vrouwelijk;Rechts;3;85;right;no;100;rightarrow;709;true;focus;yes;673606;Chrome;112.0;Windows;10;undefined;undefined;1536 x 864;1536 x 864
H016;53;Vrouwelijk;Rechts;3;86;left;no;100;leftarrow;454;true;focus;yes;674836;Chrome;112.0;Windows;10;undefined;undefined;1536 x 864;1536 x 864
H016;53;Vrouwelijk;Rechts;3;87;right;no;100;rightarrow;447;true;focus;yes;676048;Chrome;112.0;Windows;10;undefined;undefined;1536 x 864;1536 x 864
H016;53;Vrouwelijk;Rechts;3;88;right;no;100;rightarrow;751;true;focus;yes;677571;Chrome;112.0;Windows;10;undefined;undefined;1536 x 864;1536 x 864
H016;53;Vrouwelijk;Rechts;3;89;right;no;100;rightarrow;439;true;focus;yes;678790;Chrome;112.0;Windows;10;undefined;undefined;1536 x 864;1536 x 864
H016;53;Vrouwelijk;Rechts;3;90;left;no;100;leftarrow;679;true;focus;yes;680234;Chrome;112.0;Windows;10;undefined;undefined;1536 x 864;1536 x 864
H016;53;Vrouwelijk;Rechts;3;91;left;no;100;leftarrow;492;true;focus;yes;681512;Chrome;112.0;Windows;10;undefined;undefined;1536 x 864;1536 x 864
H016;53;Vrouwelijk;Rechts;3;92;left;yes;100;undefined;null;true;focus;yes;683540;Chrome;112.0;Windows;10;undefined;undefined;1536 x 864;1536 x 864
H016;53;Vrouwelijk;Rechts;3;93;right;yes;150;undefined;null;true;focus;yes;685563;Chrome;112.0;Windows;10;undefined;undefined;1536 x 864;1536 x 864
H016;53;Vrouwelijk;Rechts;3;94;left;no;200;leftarrow;437;true;focus;yes;686767;Chrome;112.0;Windows;10;undefined;undefined;1536 x 864;1536 x 864
H016;53;Vrouwelijk;Rechts;3;95;right;no;200;rightarrow;633;true;focus;yes;688164;Chrome;112.0;Windows;10;undefined;undefined;1536 x 864;1536 x 864
H016;53;Vrouwelijk;Rechts;3;96;right;no;200;rightarrow;450;true;focus;yes;689394;Chrome;112.0;Windows;10;undefined;undefined;1536 x 864;1536 x 864
H016;53;Vrouwelijk;Rechts;3;97;right;yes;200;rightarrow;445;false;focus;yes;690620;Chrome;112.0;Windows;10;undefined;undefined;1536 x 864;1536 x 864
H016;53;Vrouwelijk;Rechts;3;98;right;no;150;rightarrow;456;true;focus;yes;691855;Chrome;112.0;Windows;10;undefined;undefined;1536 x 864;1536 x 864
H016;53;Vrouwelijk;Rechts;3;99;right;no;150;rightarrow;451;true;focus;yes;693081;Chrome;112.0;Windows;10;undefined;undefined;1536 x 864;1536 x 864
H016;53;Vrouwelijk;Rechts;3;100;right;no;150;rightarrow;484;true;focus;yes;694339;Chrome;112.0;Windows;10;undefined;undefined;1536 x 864;1536 x 864
H016;53;Vrouwelijk;Rechts;3;101;left;no;150;leftarrow;449;true;focus;yes;695571;Chrome;112.0;Windows;10;undefined;undefined;1536 x 864;1536 x 864
H016;53;Vrouwelijk;Rechts;3;102;left;no;150;leftarrow;551;true;focus;yes;696899;Chrome;112.0;Windows;10;undefined;undefined;1536 x 864;1536 x 864
H016;53;Vrouwelijk;Rechts;3;103;left;yes;150;undefined;null;true;focus;yes;698936;Chrome;112.0;Windows;10;undefined;undefined;1536 x 864;1536 x 864
H016;53;Vrouwelijk;Rechts;3;104;left;no;200;leftarrow;496;true;focus;yes;700205;Chrome;112.0;Windows;10;undefined;undefined;1536 x 864;1536 x 864
H016;53;Vrouwelijk;Rechts;3;105;right;no;200;rightarrow;485;true;focus;yes;701460;Chrome;112.0;Windows;10;undefined;undefined;1536 x 864;1536 x 864
H016;53;Vrouwelijk;Rechts;3;106;left;no;200;leftarrow;463;true;focus;yes;702695;Chrome;112.0;Windows;10;undefined;undefined;1536 x 864;1536 x 864
H016;53;Vrouwelijk;Rechts;3;107;right;no;200;rightarrow;423;true;focus;yes;703897;Chrome;112.0;Windows;10;undefined;undefined;1536 x 864;1536 x 864
H016;53;Vrouwelijk;Rechts;3;108;left;no;200;leftarrow;465;true;focus;yes;705127;Chrome;112.0;Windows;10;undefined;undefined;1536 x 864;1536 x 864
H016;53;Vrouwelijk;Rechts;3;109;right;yes;200;rightarrow;414;false;focus;yes;706313;Chrome;112.0;Windows;10;undefined;undefined;1536 x 864;1536 x 864
H016;53;Vrouwelijk;Rechts;3;110;left;yes;150;undefined;null;true;focus;yes;708342;Chrome;112.0;Windows;10;undefined;undefined;1536 x 864;1536 x 864
H016;53;Vrouwelijk;Rechts;3;111;right;no;200;rightarrow;434;true;focus;yes;709550;Chrome;112.0;Windows;10;undefined;undefined;1536 x 864;1536 x 864
H016;53;Vrouwelijk;Rechts;3;112;left;no;200;leftarrow;664;true;focus;yes;710979;Chrome;112.0;Windows;10;undefined;undefined;1536 x 864;1536 x 864
H016;53;Vrouwelijk;Rechts;3;113;left;no;200;leftarrow;396;true;focus;yes;712145;Chrome;112.0;Windows;10;undefined;undefined;1536 x 864;1536 x 864
H016;53;Vrouwelijk;Rechts;3;114;right;no;200;rightarrow;431;true;focus;yes;713347;Chrome;112.0;Windows;10;undefined;undefined;1536 x 864;1536 x 864
H016;53;Vrouwelijk;Rechts;3;115;left;yes;200;leftarrow;469;false;focus;yes;714578;Chrome;112.0;Windows;10;undefined;undefined;1536 x 864;1536 x 864
H016;53;Vrouwelijk;Rechts;3;116;left;no;150;leftarrow;480;true;focus;yes;715825;Chrome;112.0;Windows;10;undefined;undefined;1536 x 864;1536 x 864
H016;53;Vrouwelijk;Rechts;3;117;right;yes;150;rightarrow;377;false;focus;yes;716980;Chrome;112.0;Windows;10;undefined;undefined;1536 x 864;1536 x 864
H016;53;Vrouwelijk;Rechts;3;118;left;no;100;leftarrow;446;true;focus;yes;718202;Chrome;112.0;Windows;10;undefined;undefined;1536 x 864;1536 x 864
H016;53;Vrouwelijk;Rechts;3;119;right;no;100;rightarrow;463;true;focus;yes;719426;Chrome;112.0;Windows;10;undefined;undefined;1536 x 864;1536 x 864
H016;53;Vrouwelijk;Rechts;3;120;right;no;100;rightarrow;448;true;focus;yes;720644;Chrome;112.0;Windows;10;undefined;undefined;1536 x 864;1536 x 864
H016;53;Vrouwelijk;Rechts;3;121;right;no;100;rightarrow;418;true;focus;yes;721838;Chrome;112.0;Windows;10;undefined;undefined;1536 x 864;1536 x 864
H016;53;Vrouwelijk;Rechts;3;122;left;yes;100;undefined;null;true;focus;yes;723864;Chrome;112.0;Windows;10;undefined;undefined;1536 x 864;1536 x 864
H016;53;Vrouwelijk;Rechts;3;123;right;no;150;rightarrow;500;true;focus;yes;725137;Chrome;112.0;Windows;10;undefined;undefined;1536 x 864;1536 x 864
H016;53;Vrouwelijk;Rechts;3;124;left;no;150;leftarrow;629;true;focus;yes;726539;Chrome;112.0;Windows;10;undefined;undefined;1536 x 864;1536 x 864
H016;53;Vrouwelijk;Rechts;3;125;left;no;150;leftarrow;442;true;focus;yes;727760;Chrome;112.0;Windows;10;undefined;undefined;1536 x 864;1536 x 864
H016;53;Vrouwelijk;Rechts;3;126;left;no;150;leftarrow;458;true;focus;yes;728987;Chrome;112.0;Windows;10;undefined;undefined;1536 x 864;1536 x 864
H016;53;Vrouwelijk;Rechts;3;127;right;no;150;rightarrow;486;true;focus;yes;730246;Chrome;112.0;Windows;10;undefined;undefined;1536 x 864;1536 x 864
H016;53;Vrouwelijk;Rechts;3;128;right;yes;150;undefined;null;true;focus;yes;732267;Chrome;112.0;Windows;10;undefined;undefined;1536 x 864;1536 x 864
H016;53;Vrouwelijk;Rechts;4;1;left;no;200;leftarrow;443;true;focus;yes;751194;Chrome;112.0;Windows;10;undefined;undefined;1536 x 864;1536 x 864
H016;53;Vrouwelijk;Rechts;4;2;left;no;200;leftarrow;404;true;focus;yes;752369;Chrome;112.0;Windows;10;undefined;undefined;1536 x 864;1536 x 864
H016;53;Vrouwelijk;Rechts;4;3;right;no;200;rightarrow;425;true;focus;yes;753557;Chrome;112.0;Windows;10;undefined;undefined;1536 x 864;1536 x 864
H016;53;Vrouwelijk;Rechts;4;4;right;no;200;rightarrow;444;true;focus;yes;754786;Chrome;112.0;Windows;10;undefined;undefined;1536 x 864;1536 x 864
H016;53;Vrouwelijk;Rechts;4;5;right;no;200;rightarrow;438;true;focus;yes;756007;Chrome;112.0;Windows;10;undefined;undefined;1536 x 864;1536 x 864
H016;53;Vrouwelijk;Rechts;4;6;left;yes;200;leftarrow;409;false;focus;yes;757184;Chrome;112.0;Windows;10;undefined;undefined;1536 x 864;1536 x 864
H016;53;Vrouwelijk;Rechts;4;7;left;no;150;leftarrow;527;true;focus;yes;758483;Chrome;112.0;Windows;10;undefined;undefined;1536 x 864;1536 x 864
H016;53;Vrouwelijk;Rechts;4;8;right;yes;150;undefined;null;true;focus;yes;760505;Chrome;112.0;Windows;10;undefined;undefined;1536 x 864;1536 x 864
H016;53;Vrouwelijk;Rechts;4;9;left;no;200;leftarrow;430;true;focus;yes;761701;Chrome;112.0;Windows;10;undefined;undefined;1536 x 864;1536 x 864
H016;53;Vrouwelijk;Rechts;4;10;right;no;200;rightarrow;573;true;focus;yes;763040;Chrome;112.0;Windows;10;undefined;undefined;1536 x 864;1536 x 864
H016;53;Vrouwelijk;Rechts;4;11;right;no;200;rightarrow;430;true;focus;yes;764238;Chrome;112.0;Windows;10;undefined;undefined;1536 x 864;1536 x 864
H016;53;Vrouwelijk;Rechts;4;12;left;no;200;leftarrow;389;true;focus;yes;765388;Chrome;112.0;Windows;10;undefined;undefined;1536 x 864;1536 x 864
H016;53;Vrouwelijk;Rechts;4;13;right;no;200;rightarrow;446;true;focus;yes;766617;Chrome;112.0;Windows;10;undefined;undefined;1536 x 864;1536 x 864
H016;53;Vrouwelijk;Rechts;4;14;left;yes;200;undefined;null;true;focus;yes;768647;Chrome;112.0;Windows;10;undefined;undefined;1536 x 864;1536 x 864
H016;53;Vrouwelijk;Rechts;4;15;left;no;250;leftarrow;408;true;focus;yes;769837;Chrome;112.0;Windows;10;undefined;undefined;1536 x 864;1536 x 864
H016;53;Vrouwelijk;Rechts;4;16;right;yes;250;rightarrow;441;false;focus;yes;771051;Chrome;112.0;Windows;10;undefined;undefined;1536 x 864;1536 x 864
H016;53;Vrouwelijk;Rechts;4;17;left;no;200;leftarrow;462;true;focus;yes;772290;Chrome;112.0;Windows;10;undefined;undefined;1536 x 864;1536 x 864
H016;53;Vrouwelijk;Rechts;4;18;left;yes;200;leftarrow;468;false;focus;yes;773528;Chrome;112.0;Windows;10;undefined;undefined;1536 x 864;1536 x 864
H016;53;Vrouwelijk;Rechts;4;19;right;no;150;rightarrow;479;true;focus;yes;774774;Chrome;112.0;Windows;10;undefined;undefined;1536 x 864;1536 x 864
H016;53;Vrouwelijk;Rechts;4;20;right;no;150;rightarrow;432;true;focus;yes;775970;Chrome;112.0;Windows;10;undefined;undefined;1536 x 864;1536 x 864
H016;53;Vrouwelijk;Rechts;4;21;left;no;150;leftarrow;536;true;focus;yes;777274;Chrome;112.0;Windows;10;undefined;undefined;1536 x 864;1536 x 864
H016;53;Vrouwelijk;Rechts;4;22;right;yes;150;undefined;null;true;focus;yes;779308;Chrome;112.0;Windows;10;undefined;undefined;1536 x 864;1536 x 864
H016;53;Vrouwelijk;Rechts;4;23;right;no;200;rightarrow;544;true;focus;yes;780627;Chrome;112.0;Windows;10;undefined;undefined;1536 x 864;1536 x 864
H016;53;Vrouwelijk;Rechts;4;24;left;no;200;leftarrow;360;true;focus;yes;781756;Chrome;112.0;Windows;10;undefined;undefined;1536 x 864;1536 x 864
H016;53;Vrouwelijk;Rechts;4;25;right;no;200;rightarrow;621;true;focus;yes;783148;Chrome;112.0;Windows;10;undefined;undefined;1536 x 864;1536 x 864
H016;53;Vrouwelijk;Rechts;4;26;right;no;200;rightarrow;541;true;focus;yes;784455;Chrome;112.0;Windows;10;undefined;undefined;1536 x 864;1536 x 864
H016;53;Vrouwelijk;Rechts;4;27;left;no;200;leftarrow;441;true;focus;yes;785666;Chrome;112.0;Windows;10;undefined;undefined;1536 x 864;1536 x 864
H016;53;Vrouwelijk;Rechts;4;28;left;no;200;leftarrow;532;true;focus;yes;786976;Chrome;112.0;Windows;10;undefined;undefined;1536 x 864;1536 x 864
H016;53;Vrouwelijk;Rechts;4;29;right;no;200;rightarrow;403;true;focus;yes;788158;Chrome;112.0;Windows;10;undefined;undefined;1536 x 864;1536 x 864
H016;53;Vrouwelijk;Rechts;4;30;right;yes;200;undefined;null;true;focus;yes;790175;Chrome;112.0;Windows;10;undefined;undefined;1536 x 864;1536 x 864
H016;53;Vrouwelijk;Rechts;4;31;left;no;250;leftarrow;426;true;focus;yes;791368;Chrome;112.0;Windows;10;undefined;undefined;1536 x 864;1536 x 864
H016;53;Vrouwelijk;Rechts;4;32;left;yes;250;leftarrow;439;false;focus;yes;792578;Chrome;112.0;Windows;10;undefined;undefined;1536 x 864;1536 x 864
H016;53;Vrouwelijk;Rechts;4;33;left;no;200;leftarrow;587;true;focus;yes;793937;Chrome;112.0;Windows;10;undefined;undefined;1536 x 864;1536 x 864
H016;53;Vrouwelijk;Rechts;4;34;right;no;200;rightarrow;458;true;focus;yes;795157;Chrome;112.0;Windows;10;undefined;undefined;1536 x 864;1536 x 864
H016;53;Vrouwelijk;Rechts;4;35;right;no;200;rightarrow;586;true;focus;yes;796518;Chrome;112.0;Windows;10;undefined;undefined;1536 x 864;1536 x 864
H016;53;Vrouwelijk;Rechts;4;36;right;no;200;rightarrow;496;true;focus;yes;797788;Chrome;112.0;Windows;10;undefined;undefined;1536 x 864;1536 x 864
H016;53;Vrouwelijk;Rechts;4;37;left;yes;200;leftarrow;417;false;focus;yes;798975;Chrome;112.0;Windows;10;undefined;undefined;1536 x 864;1536 x 864
H016;53;Vrouwelijk;Rechts;4;38;left;no;150;leftarrow;492;true;focus;yes;800227;Chrome;112.0;Windows;10;undefined;undefined;1536 x 864;1536 x 864
H016;53;Vrouwelijk;Rechts;4;39;left;no;150;leftarrow;408;true;focus;yes;801410;Chrome;112.0;Windows;10;undefined;undefined;1536 x 864;1536 x 864
H016;53;Vrouwelijk;Rechts;4;40;right;yes;150;undefined;null;true;focus;yes;803453;Chrome;112.0;Windows;10;undefined;undefined;1536 x 864;1536 x 864
H016;53;Vrouwelijk;Rechts;4;41;left;no;200;leftarrow;375;true;focus;yes;804599;Chrome;112.0;Windows;10;undefined;undefined;1536 x 864;1536 x 864
H016;53;Vrouwelijk;Rechts;4;42;right;no;200;rightarrow;420;true;focus;yes;805800;Chrome;112.0;Windows;10;undefined;undefined;1536 x 864;1536 x 864
H016;53;Vrouwelijk;Rechts;4;43;left;no;200;leftarrow;490;true;focus;yes;807060;Chrome;112.0;Windows;10;undefined;undefined;1536 x 864;1536 x 864
H016;53;Vrouwelijk;Rechts;4;44;left;no;200;leftarrow;497;true;focus;yes;808322;Chrome;112.0;Windows;10;undefined;undefined;1536 x 864;1536 x 864
H016;53;Vrouwelijk;Rechts;4;45;left;yes;200;undefined;null;true;focus;yes;810351;Chrome;112.0;Windows;10;undefined;undefined;1536 x 864;1536 x 864
H016;53;Vrouwelijk;Rechts;4;46;right;no;250;rightarrow;457;true;focus;yes;811572;Chrome;112.0;Windows;10;undefined;undefined;1536 x 864;1536 x 864
H016;53;Vrouwelijk;Rechts;4;47;right;no;250;rightarrow;394;true;focus;yes;812739;Chrome;112.0;Windows;10;undefined;undefined;1536 x 864;1536 x 864
H016;53;Vrouwelijk;Rechts;4;48;right;yes;250;undefined;null;true;focus;yes;814760;Chrome;112.0;Windows;10;undefined;undefined;1536 x 864;1536 x 864
H016;53;Vrouwelijk;Rechts;4;49;left;no;300;leftarrow;326;true;focus;yes;815857;Chrome;112.0;Windows;10;undefined;undefined;1536 x 864;1536 x 864
H016;53;Vrouwelijk;Rechts;4;50;right;no;300;rightarrow;515;true;focus;yes;817147;Chrome;112.0;Windows;10;undefined;undefined;1536 x 864;1536 x 864
H016;53;Vrouwelijk;Rechts;4;51;right;no;300;rightarrow;473;true;focus;yes;818399;Chrome;112.0;Windows;10;undefined;undefined;1536 x 864;1536 x 864
H016;53;Vrouwelijk;Rechts;4;52;left;no;300;leftarrow;590;true;focus;yes;819760;Chrome;112.0;Windows;10;undefined;undefined;1536 x 864;1536 x 864
H016;53;Vrouwelijk;Rechts;4;53;right;no;300;rightarrow;428;true;focus;yes;820961;Chrome;112.0;Windows;10;undefined;undefined;1536 x 864;1536 x 864
H016;53;Vrouwelijk;Rechts;4;54;right;yes;300;rightarrow;423;false;focus;yes;822154;Chrome;112.0;Windows;10;undefined;undefined;1536 x 864;1536 x 864
H016;53;Vrouwelijk;Rechts;4;55;left;yes;250;leftarrow;448;false;focus;yes;823364;Chrome;112.0;Windows;10;undefined;undefined;1536 x 864;1536 x 864
H016;53;Vrouwelijk;Rechts;4;56;left;no;200;leftarrow;470;true;focus;yes;824596;Chrome;112.0;Windows;10;undefined;undefined;1536 x 864;1536 x 864
H016;53;Vrouwelijk;Rechts;4;57;right;no;200;rightarrow;444;true;focus;yes;825809;Chrome;112.0;Windows;10;undefined;undefined;1536 x 864;1536 x 864
H016;53;Vrouwelijk;Rechts;4;58;right;no;200;rightarrow;492;true;focus;yes;827069;Chrome;112.0;Windows;10;undefined;undefined;1536 x 864;1536 x 864
H016;53;Vrouwelijk;Rechts;4;59;left;no;200;leftarrow;481;true;focus;yes;828312;Chrome;112.0;Windows;10;undefined;undefined;1536 x 864;1536 x 864
H016;53;Vrouwelijk;Rechts;4;60;right;no;200;rightarrow;433;true;focus;yes;829518;Chrome;112.0;Windows;10;undefined;undefined;1536 x 864;1536 x 864
H016;53;Vrouwelijk;Rechts;4;61;left;no;200;leftarrow;404;true;focus;yes;830694;Chrome;112.0;Windows;10;undefined;undefined;1536 x 864;1536 x 864
H016;53;Vrouwelijk;Rechts;4;62;left;yes;200;leftarrow;449;false;focus;yes;831924;Chrome;112.0;Windows;10;undefined;undefined;1536 x 864;1536 x 864
H016;53;Vrouwelijk;Rechts;4;63;left;no;150;leftarrow;429;true;focus;yes;833118;Chrome;112.0;Windows;10;undefined;undefined;1536 x 864;1536 x 864
H016;53;Vrouwelijk;Rechts;4;64;right;yes;150;undefined;null;true;focus;yes;835158;Chrome;112.0;Windows;10;undefined;undefined;1536 x 864;1536 x 864
H016;53;Vrouwelijk;Rechts;4;65;left;no;200;leftarrow;441;true;focus;yes;836362;Chrome;112.0;Windows;10;undefined;undefined;1536 x 864;1536 x 864
H016;53;Vrouwelijk;Rechts;4;66;left;yes;200;undefined;null;true;focus;yes;838385;Chrome;112.0;Windows;10;undefined;undefined;1536 x 864;1536 x 864
H016;53;Vrouwelijk;Rechts;4;67;left;no;250;leftarrow;363;true;focus;yes;839510;Chrome;112.0;Windows;10;undefined;undefined;1536 x 864;1536 x 864
H016;53;Vrouwelijk;Rechts;4;68;right;no;250;rightarrow;609;true;focus;yes;840900;Chrome;112.0;Windows;10;undefined;undefined;1536 x 864;1536 x 864
H016;53;Vrouwelijk;Rechts;4;69;right;no;250;rightarrow;448;true;focus;yes;842122;Chrome;112.0;Windows;10;undefined;undefined;1536 x 864;1536 x 864
H016;53;Vrouwelijk;Rechts;4;70;right;no;250;rightarrow;496;true;focus;yes;843398;Chrome;112.0;Windows;10;undefined;undefined;1536 x 864;1536 x 864
H016;53;Vrouwelijk;Rechts;4;71;left;no;250;leftarrow;476;true;focus;yes;844648;Chrome;112.0;Windows;10;undefined;undefined;1536 x 864;1536 x 864
H016;53;Vrouwelijk;Rechts;4;72;right;yes;250;rightarrow;405;false;focus;yes;845829;Chrome;112.0;Windows;10;undefined;undefined;1536 x 864;1536 x 864
H016;53;Vrouwelijk;Rechts;4;73;left;no;200;leftarrow;350;true;focus;yes;846955;Chrome;112.0;Windows;10;undefined;undefined;1536 x 864;1536 x 864
H016;53;Vrouwelijk;Rechts;4;74;left;no;200;leftarrow;508;true;focus;yes;848235;Chrome;112.0;Windows;10;undefined;undefined;1536 x 864;1536 x 864
H016;53;Vrouwelijk;Rechts;4;75;right;yes;200;undefined;null;true;focus;yes;850263;Chrome;112.0;Windows;10;undefined;undefined;1536 x 864;1536 x 864
H016;53;Vrouwelijk;Rechts;4;76;right;no;250;rightarrow;466;true;focus;yes;851509;Chrome;112.0;Windows;10;undefined;undefined;1536 x 864;1536 x 864
H016;53;Vrouwelijk;Rechts;4;77;right;no;250;rightarrow;473;true;focus;yes;852757;Chrome;112.0;Windows;10;undefined;undefined;1536 x 864;1536 x 864
H016;53;Vrouwelijk;Rechts;4;78;left;no;250;leftarrow;424;true;focus;yes;853948;Chrome;112.0;Windows;10;undefined;undefined;1536 x 864;1536 x 864
H016;53;Vrouwelijk;Rechts;4;79;right;no;250;rightarrow;444;true;focus;yes;855175;Chrome;112.0;Windows;10;undefined;undefined;1536 x 864;1536 x 864
H016;53;Vrouwelijk;Rechts;4;80;left;yes;250;leftarrow;386;false;focus;yes;856334;Chrome;112.0;Windows;10;undefined;undefined;1536 x 864;1536 x 864
H016;53;Vrouwelijk;Rechts;4;81;right;yes;200;undefined;null;true;focus;yes;858356;Chrome;112.0;Windows;10;undefined;undefined;1536 x 864;1536 x 864
H016;53;Vrouwelijk;Rechts;4;82;left;no;250;leftarrow;424;true;focus;yes;859543;Chrome;112.0;Windows;10;undefined;undefined;1536 x 864;1536 x 864
H016;53;Vrouwelijk;Rechts;4;83;left;no;250;leftarrow;483;true;focus;yes;860809;Chrome;112.0;Windows;10;undefined;undefined;1536 x 864;1536 x 864
H016;53;Vrouwelijk;Rechts;4;84;left;yes;250;leftarrow;531;false;focus;yes;862110;Chrome;112.0;Windows;10;undefined;undefined;1536 x 864;1536 x 864
H016;53;Vrouwelijk;Rechts;4;85;right;no;200;rightarrow;383;true;focus;yes;863268;Chrome;112.0;Windows;10;undefined;undefined;1536 x 864;1536 x 864
H016;53;Vrouwelijk;Rechts;4;86;right;no;200;rightarrow;688;true;focus;yes;864731;Chrome;112.0;Windows;10;undefined;undefined;1536 x 864;1536 x 864
H016;53;Vrouwelijk;Rechts;4;87;right;no;200;rightarrow;548;true;focus;yes;866050;Chrome;112.0;Windows;10;undefined;undefined;1536 x 864;1536 x 864
H016;53;Vrouwelijk;Rechts;4;88;left;no;200;leftarrow;594;true;focus;yes;867420;Chrome;112.0;Windows;10;undefined;undefined;1536 x 864;1536 x 864
H016;53;Vrouwelijk;Rechts;4;89;left;no;200;leftarrow;648;true;focus;yes;868842;Chrome;112.0;Windows;10;undefined;undefined;1536 x 864;1536 x 864
H016;53;Vrouwelijk;Rechts;4;90;right;no;200;rightarrow;353;true;focus;yes;869960;Chrome;112.0;Windows;10;undefined;undefined;1536 x 864;1536 x 864
H016;53;Vrouwelijk;Rechts;4;91;right;no;200;rightarrow;428;true;focus;yes;871151;Chrome;112.0;Windows;10;undefined;undefined;1536 x 864;1536 x 864
H016;53;Vrouwelijk;Rechts;4;92;right;no;200;rightarrow;615;true;focus;yes;872544;Chrome;112.0;Windows;10;undefined;undefined;1536 x 864;1536 x 864
H016;53;Vrouwelijk;Rechts;4;93;left;yes;200;undefined;null;true;focus;yes;874568;Chrome;112.0;Windows;10;undefined;undefined;1536 x 864;1536 x 864
H016;53;Vrouwelijk;Rechts;4;94;right;yes;250;rightarrow;450;false;focus;yes;875790;Chrome;112.0;Windows;10;undefined;undefined;1536 x 864;1536 x 864
H016;53;Vrouwelijk;Rechts;4;95;left;no;200;leftarrow;422;true;focus;yes;876985;Chrome;112.0;Windows;10;undefined;undefined;1536 x 864;1536 x 864
H016;53;Vrouwelijk;Rechts;4;96;left;no;200;leftarrow;626;true;focus;yes;878394;Chrome;112.0;Windows;10;undefined;undefined;1536 x 864;1536 x 864
H016;53;Vrouwelijk;Rechts;4;97;left;no;200;leftarrow;445;true;focus;yes;879614;Chrome;112.0;Windows;10;undefined;undefined;1536 x 864;1536 x 864
H016;53;Vrouwelijk;Rechts;4;98;right;no;200;rightarrow;491;true;focus;yes;880879;Chrome;112.0;Windows;10;undefined;undefined;1536 x 864;1536 x 864
H016;53;Vrouwelijk;Rechts;4;99;left;yes;200;undefined;null;true;focus;yes;882903;Chrome;112.0;Windows;10;undefined;undefined;1536 x 864;1536 x 864
H016;53;Vrouwelijk;Rechts;4;100;right;yes;250;undefined;null;true;focus;yes;884933;Chrome;112.0;Windows;10;undefined;undefined;1536 x 864;1536 x 864
H016;53;Vrouwelijk;Rechts;4;101;left;no;300;leftarrow;414;true;focus;yes;886127;Chrome;112.0;Windows;10;undefined;undefined;1536 x 864;1536 x 864
H016;53;Vrouwelijk;Rechts;4;102;right;no;300;rightarrow;421;true;focus;yes;887324;Chrome;112.0;Windows;10;undefined;undefined;1536 x 864;1536 x 864
H016;53;Vrouwelijk;Rechts;4;103;left;no;300;leftarrow;368;true;focus;yes;888455;Chrome;112.0;Windows;10;undefined;undefined;1536 x 864;1536 x 864
H016;53;Vrouwelijk;Rechts;4;104;right;no;300;rightarrow;395;true;focus;yes;889633;Chrome;112.0;Windows;10;undefined;undefined;1536 x 864;1536 x 864
H016;53;Vrouwelijk;Rechts;4;105;left;yes;300;leftarrow;451;false;focus;yes;890856;Chrome;112.0;Windows;10;undefined;undefined;1536 x 864;1536 x 864
H016;53;Vrouwelijk;Rechts;4;106;right;no;250;rightarrow;493;true;focus;yes;892113;Chrome;112.0;Windows;10;undefined;undefined;1536 x 864;1536 x 864
H016;53;Vrouwelijk;Rechts;4;107;right;no;250;rightarrow;526;true;focus;yes;893414;Chrome;112.0;Windows;10;undefined;undefined;1536 x 864;1536 x 864
H016;53;Vrouwelijk;Rechts;4;108;left;no;250;leftarrow;727;true;focus;yes;894912;Chrome;112.0;Windows;10;undefined;undefined;1536 x 864;1536 x 864
H016;53;Vrouwelijk;Rechts;4;109;right;yes;250;rightarrow;410;false;focus;yes;896084;Chrome;112.0;Windows;10;undefined;undefined;1536 x 864;1536 x 864
H016;53;Vrouwelijk;Rechts;4;110;left;no;200;leftarrow;537;true;focus;yes;897395;Chrome;112.0;Windows;10;undefined;undefined;1536 x 864;1536 x 864
H016;53;Vrouwelijk;Rechts;4;111;right;no;200;rightarrow;705;true;focus;yes;898863;Chrome;112.0;Windows;10;undefined;undefined;1536 x 864;1536 x 864
H016;53;Vrouwelijk;Rechts;4;112;left;no;200;leftarrow;522;true;focus;yes;900152;Chrome;112.0;Windows;10;undefined;undefined;1536 x 864;1536 x 864
H016;53;Vrouwelijk;Rechts;4;113;left;no;200;leftarrow;817;true;focus;yes;901738;Chrome;112.0;Windows;10;undefined;undefined;1536 x 864;1536 x 864
H016;53;Vrouwelijk;Rechts;4;114;right;no;200;rightarrow;436;true;focus;yes;902955;Chrome;112.0;Windows;10;undefined;undefined;1536 x 864;1536 x 864
H016;53;Vrouwelijk;Rechts;4;115;left;yes;200;undefined;null;true;focus;yes;904990;Chrome;112.0;Windows;10;undefined;undefined;1536 x 864;1536 x 864
H016;53;Vrouwelijk;Rechts;4;116;left;no;250;leftarrow;451;true;focus;yes;906223;Chrome;112.0;Windows;10;undefined;undefined;1536 x 864;1536 x 864
H016;53;Vrouwelijk;Rechts;4;117;left;no;250;leftarrow;615;true;focus;yes;907602;Chrome;112.0;Windows;10;undefined;undefined;1536 x 864;1536 x 864
H016;53;Vrouwelijk;Rechts;4;118;right;yes;250;rightarrow;519;false;focus;yes;908896;Chrome;112.0;Windows;10;undefined;undefined;1536 x 864;1536 x 864
H016;53;Vrouwelijk;Rechts;4;119;right;no;200;rightarrow;489;true;focus;yes;910162;Chrome;112.0;Windows;10;undefined;undefined;1536 x 864;1536 x 864
H016;53;Vrouwelijk;Rechts;4;120;right;no;200;rightarrow;591;true;focus;yes;911530;Chrome;112.0;Windows;10;undefined;undefined;1536 x 864;1536 x 864
H016;53;Vrouwelijk;Rechts;4;121;left;no;200;leftarrow;488;true;focus;yes;912802;Chrome;112.0;Windows;10;undefined;undefined;1536 x 864;1536 x 864
H016;53;Vrouwelijk;Rechts;4;122;right;yes;200;undefined;null;true;focus;yes;914828;Chrome;112.0;Windows;10;undefined;undefined;1536 x 864;1536 x 864
H016;53;Vrouwelijk;Rechts;4;123;right;no;250;rightarrow;507;true;focus;yes;916108;Chrome;112.0;Windows;10;undefined;undefined;1536 x 864;1536 x 864
H016;53;Vrouwelijk;Rechts;4;124;right;no;250;rightarrow;414;true;focus;yes;917305;Chrome;112.0;Windows;10;undefined;undefined;1536 x 864;1536 x 864
H016;53;Vrouwelijk;Rechts;4;125;left;yes;250;undefined;null;true;focus;yes;919325;Chrome;112.0;Windows;10;undefined;undefined;1536 x 864;1536 x 864
H016;53;Vrouwelijk;Rechts;4;126;left;no;300;leftarrow;389;true;focus;yes;920495;Chrome;112.0;Windows;10;undefined;undefined;1536 x 864;1536 x 864
H016;53;Vrouwelijk;Rechts;4;127;right;no;300;rightarrow;407;true;focus;yes;921671;Chrome;112.0;Windows;10;undefined;undefined;1536 x 864;1536 x 864
H016;53;Vrouwelijk;Rechts;4;128;left;no;300;leftarrow;592;true;focus;yes;923042;Chrome;112.0;Windows;10;undefined;undefined;1536 x 864;1536 x 864
H016;53;Vrouwelijk;Rechts;5;1;left;no;300;leftarrow;421;true;focus;yes;942502;Chrome;112.0;Windows;10;undefined;undefined;1536 x 864;1536 x 864
H016;53;Vrouwelijk;Rechts;5;2;left;no;300;leftarrow;419;true;focus;yes;943692;Chrome;112.0;Windows;10;undefined;undefined;1536 x 864;1536 x 864
H016;53;Vrouwelijk;Rechts;5;3;right;no;300;rightarrow;411;true;focus;yes;944865;Chrome;112.0;Windows;10;undefined;undefined;1536 x 864;1536 x 864
H016;53;Vrouwelijk;Rechts;5;4;right;no;300;rightarrow;543;true;focus;yes;946182;Chrome;112.0;Windows;10;undefined;undefined;1536 x 864;1536 x 864
H016;53;Vrouwelijk;Rechts;5;5;left;no;300;leftarrow;363;true;focus;yes;947307;Chrome;112.0;Windows;10;undefined;undefined;1536 x 864;1536 x 864
H016;53;Vrouwelijk;Rechts;5;6;left;yes;300;leftarrow;373;false;focus;yes;948450;Chrome;112.0;Windows;10;undefined;undefined;1536 x 864;1536 x 864
H016;53;Vrouwelijk;Rechts;5;7;right;yes;250;rightarrow;412;false;focus;yes;949633;Chrome;112.0;Windows;10;undefined;undefined;1536 x 864;1536 x 864
H016;53;Vrouwelijk;Rechts;5;8;right;no;200;rightarrow;481;true;focus;yes;950878;Chrome;112.0;Windows;10;undefined;undefined;1536 x 864;1536 x 864
H016;53;Vrouwelijk;Rechts;5;9;left;no;200;leftarrow;438;true;focus;yes;952086;Chrome;112.0;Windows;10;undefined;undefined;1536 x 864;1536 x 864
H016;53;Vrouwelijk;Rechts;5;10;left;yes;200;leftarrow;473;false;focus;yes;953336;Chrome;112.0;Windows;10;undefined;undefined;1536 x 864;1536 x 864
H016;53;Vrouwelijk;Rechts;5;11;right;no;150;rightarrow;430;true;focus;yes;954536;Chrome;112.0;Windows;10;undefined;undefined;1536 x 864;1536 x 864
H016;53;Vrouwelijk;Rechts;5;12;left;no;150;leftarrow;408;true;focus;yes;955721;Chrome;112.0;Windows;10;undefined;undefined;1536 x 864;1536 x 864
H016;53;Vrouwelijk;Rechts;5;13;right;no;150;rightarrow;458;true;focus;yes;956954;Chrome;112.0;Windows;10;undefined;undefined;1536 x 864;1536 x 864
H016;53;Vrouwelijk;Rechts;5;14;left;no;150;leftarrow;474;true;focus;yes;958203;Chrome;112.0;Windows;10;undefined;undefined;1536 x 864;1536 x 864
H016;53;Vrouwelijk;Rechts;5;15;right;yes;150;undefined;null;true;focus;yes;960231;Chrome;112.0;Windows;10;undefined;undefined;1536 x 864;1536 x 864
H016;53;Vrouwelijk;Rechts;5;16;right;no;200;rightarrow;539;true;focus;yes;961543;Chrome;112.0;Windows;10;undefined;undefined;1536 x 864;1536 x 864
H016;53;Vrouwelijk;Rechts;5;17;right;no;200;rightarrow;585;true;focus;yes;962900;Chrome;112.0;Windows;10;undefined;undefined;1536 x 864;1536 x 864
H016;53;Vrouwelijk;Rechts;5;18;right;no;200;rightarrow;482;true;focus;yes;964161;Chrome;112.0;Windows;10;undefined;undefined;1536 x 864;1536 x 864
H016;53;Vrouwelijk;Rechts;5;19;left;no;200;leftarrow;630;true;focus;yes;965552;Chrome;112.0;Windows;10;undefined;undefined;1536 x 864;1536 x 864
H016;53;Vrouwelijk;Rechts;5;20;right;no;200;rightarrow;483;true;focus;yes;966814;Chrome;112.0;Windows;10;undefined;undefined;1536 x 864;1536 x 864
H016;53;Vrouwelijk;Rechts;5;21;left;no;200;leftarrow;497;true;focus;yes;968089;Chrome;112.0;Windows;10;undefined;undefined;1536 x 864;1536 x 864
H016;53;Vrouwelijk;Rechts;5;22;left;yes;200;undefined;null;true;focus;yes;970120;Chrome;112.0;Windows;10;undefined;undefined;1536 x 864;1536 x 864
H016;53;Vrouwelijk;Rechts;5;23;left;no;250;leftarrow;441;true;focus;yes;971324;Chrome;112.0;Windows;10;undefined;undefined;1536 x 864;1536 x 864
H016;53;Vrouwelijk;Rechts;5;24;right;yes;250;rightarrow;422;false;focus;yes;972525;Chrome;112.0;Windows;10;undefined;undefined;1536 x 864;1536 x 864
H016;53;Vrouwelijk;Rechts;5;25;right;no;200;rightarrow;742;true;focus;yes;974027;Chrome;112.0;Windows;10;undefined;undefined;1536 x 864;1536 x 864
H016;53;Vrouwelijk;Rechts;5;26;right;no;200;rightarrow;430;true;focus;yes;975235;Chrome;112.0;Windows;10;undefined;undefined;1536 x 864;1536 x 864
H016;53;Vrouwelijk;Rechts;5;27;right;yes;200;undefined;null;true;focus;yes;977277;Chrome;112.0;Windows;10;undefined;undefined;1536 x 864;1536 x 864
H016;53;Vrouwelijk;Rechts;5;28;right;no;250;leftarrow;1017;false;focus;yes;979067;Chrome;112.0;Windows;10;undefined;undefined;1536 x 864;1536 x 864
H016;53;Vrouwelijk;Rechts;5;29;left;no;250;leftarrow;511;true;focus;yes;980354;Chrome;112.0;Windows;10;undefined;undefined;1536 x 864;1536 x 864
H016;53;Vrouwelijk;Rechts;5;30;left;yes;250;leftarrow;512;false;focus;yes;981647;Chrome;112.0;Windows;10;undefined;undefined;1536 x 864;1536 x 864
H016;53;Vrouwelijk;Rechts;5;31;left;no;200;leftarrow;732;true;focus;yes;983145;Chrome;112.0;Windows;10;undefined;undefined;1536 x 864;1536 x 864
H016;53;Vrouwelijk;Rechts;5;32;left;no;200;leftarrow;606;true;focus;yes;984517;Chrome;112.0;Windows;10;undefined;undefined;1536 x 864;1536 x 864
H016;53;Vrouwelijk;Rechts;5;33;right;no;200;rightarrow;508;true;focus;yes;985798;Chrome;112.0;Windows;10;undefined;undefined;1536 x 864;1536 x 864
H016;53;Vrouwelijk;Rechts;5;34;left;no;200;leftarrow;586;true;focus;yes;987158;Chrome;112.0;Windows;10;undefined;undefined;1536 x 864;1536 x 864
H016;53;Vrouwelijk;Rechts;5;35;left;no;200;leftarrow;442;true;focus;yes;988386;Chrome;112.0;Windows;10;undefined;undefined;1536 x 864;1536 x 864
H016;53;Vrouwelijk;Rechts;5;36;right;no;200;rightarrow;671;true;focus;yes;989828;Chrome;112.0;Windows;10;undefined;undefined;1536 x 864;1536 x 864
H016;53;Vrouwelijk;Rechts;5;37;right;yes;200;rightarrow;427;false;focus;yes;991022;Chrome;112.0;Windows;10;undefined;undefined;1536 x 864;1536 x 864
H016;53;Vrouwelijk;Rechts;5;38;right;no;150;rightarrow;756;true;focus;yes;992539;Chrome;112.0;Windows;10;undefined;undefined;1536 x 864;1536 x 864
H016;53;Vrouwelijk;Rechts;5;39;left;no;150;leftarrow;474;true;focus;yes;993787;Chrome;112.0;Windows;10;undefined;undefined;1536 x 864;1536 x 864
H016;53;Vrouwelijk;Rechts;5;40;left;yes;150;undefined;null;true;focus;yes;995816;Chrome;112.0;Windows;10;undefined;undefined;1536 x 864;1536 x 864
H016;53;Vrouwelijk;Rechts;5;41;left;yes;200;undefined;null;true;focus;yes;997842;Chrome;112.0;Windows;10;undefined;undefined;1536 x 864;1536 x 864
H016;53;Vrouwelijk;Rechts;5;42;right;no;250;rightarrow;532;true;focus;yes;999138;Chrome;112.0;Windows;10;undefined;undefined;1536 x 864;1536 x 864
H016;53;Vrouwelijk;Rechts;5;43;right;no;250;rightarrow;438;true;focus;yes;1000349;Chrome;112.0;Windows;10;undefined;undefined;1536 x 864;1536 x 864
H016;53;Vrouwelijk;Rechts;5;44;left;no;250;leftarrow;489;true;focus;yes;1001600;Chrome;112.0;Windows;10;undefined;undefined;1536 x 864;1536 x 864
H016;53;Vrouwelijk;Rechts;5;45;left;no;250;leftarrow;406;true;focus;yes;1002780;Chrome;112.0;Windows;10;undefined;undefined;1536 x 864;1536 x 864
H016;53;Vrouwelijk;Rechts;5;46;left;no;250;leftarrow;453;true;focus;yes;1003998;Chrome;112.0;Windows;10;undefined;undefined;1536 x 864;1536 x 864
H016;53;Vrouwelijk;Rechts;5;47;right;yes;250;rightarrow;481;false;focus;yes;1005266;Chrome;112.0;Windows;10;undefined;undefined;1536 x 864;1536 x 864
H016;53;Vrouwelijk;Rechts;5;48;right;no;200;rightarrow;686;true;focus;yes;1006728;Chrome;112.0;Windows;10;undefined;undefined;1536 x 864;1536 x 864
H016;53;Vrouwelijk;Rechts;5;49;right;no;200;rightarrow;414;true;focus;yes;1007907;Chrome;112.0;Windows;10;undefined;undefined;1536 x 864;1536 x 864
H016;53;Vrouwelijk;Rechts;5;50;right;no;200;rightarrow;406;true;focus;yes;1009097;Chrome;112.0;Windows;10;undefined;undefined;1536 x 864;1536 x 864
H016;53;Vrouwelijk;Rechts;5;51;left;no;200;leftarrow;544;true;focus;yes;1010411;Chrome;112.0;Windows;10;undefined;undefined;1536 x 864;1536 x 864
H016;53;Vrouwelijk;Rechts;5;52;right;no;200;rightarrow;401;true;focus;yes;1011586;Chrome;112.0;Windows;10;undefined;undefined;1536 x 864;1536 x 864
H016;53;Vrouwelijk;Rechts;5;53;left;no;200;leftarrow;437;true;focus;yes;1012789;Chrome;112.0;Windows;10;undefined;undefined;1536 x 864;1536 x 864
H016;53;Vrouwelijk;Rechts;5;54;right;yes;200;rightarrow;394;false;focus;yes;1013960;Chrome;112.0;Windows;10;undefined;undefined;1536 x 864;1536 x 864
H016;53;Vrouwelijk;Rechts;5;55;left;no;150;leftarrow;544;true;focus;yes;1015277;Chrome;112.0;Windows;10;undefined;undefined;1536 x 864;1536 x 864
H016;53;Vrouwelijk;Rechts;5;56;left;yes;150;undefined;null;true;focus;yes;1017300;Chrome;112.0;Windows;10;undefined;undefined;1536 x 864;1536 x 864
H016;53;Vrouwelijk;Rechts;5;57;left;yes;200;undefined;null;true;focus;yes;1019343;Chrome;112.0;Windows;10;undefined;undefined;1536 x 864;1536 x 864
H016;53;Vrouwelijk;Rechts;5;58;left;no;250;leftarrow;555;true;focus;yes;1020672;Chrome;112.0;Windows;10;undefined;undefined;1536 x 864;1536 x 864
H016;53;Vrouwelijk;Rechts;5;59;right;no;250;rightarrow;397;true;focus;yes;1021853;Chrome;112.0;Windows;10;undefined;undefined;1536 x 864;1536 x 864
H016;53;Vrouwelijk;Rechts;5;60;right;no;250;rightarrow;425;true;focus;yes;1023055;Chrome;112.0;Windows;10;undefined;undefined;1536 x 864;1536 x 864
H016;53;Vrouwelijk;Rechts;5;61;right;no;250;rightarrow;429;true;focus;yes;1024258;Chrome;112.0;Windows;10;undefined;undefined;1536 x 864;1536 x 864
H016;53;Vrouwelijk;Rechts;5;62;left;no;250;leftarrow;461;true;focus;yes;1025481;Chrome;112.0;Windows;10;undefined;undefined;1536 x 864;1536 x 864
H016;53;Vrouwelijk;Rechts;5;63;right;yes;250;rightarrow;391;false;focus;yes;1026637;Chrome;112.0;Windows;10;undefined;undefined;1536 x 864;1536 x 864
H016;53;Vrouwelijk;Rechts;5;64;left;no;200;leftarrow;535;true;focus;yes;1027933;Chrome;112.0;Windows;10;undefined;undefined;1536 x 864;1536 x 864
H016;53;Vrouwelijk;Rechts;5;65;right;yes;200;rightarrow;437;false;focus;yes;1029145;Chrome;112.0;Windows;10;undefined;undefined;1536 x 864;1536 x 864
H016;53;Vrouwelijk;Rechts;5;66;right;no;150;rightarrow;706;true;focus;yes;1030627;Chrome;112.0;Windows;10;undefined;undefined;1536 x 864;1536 x 864
H016;53;Vrouwelijk;Rechts;5;67;left;no;150;leftarrow;453;true;focus;yes;1031850;Chrome;112.0;Windows;10;undefined;undefined;1536 x 864;1536 x 864
H016;53;Vrouwelijk;Rechts;5;68;right;no;150;rightarrow;439;true;focus;yes;1033061;Chrome;112.0;Windows;10;undefined;undefined;1536 x 864;1536 x 864
H016;53;Vrouwelijk;Rechts;5;69;left;yes;150;leftarrow;451;false;focus;yes;1034278;Chrome;112.0;Windows;10;undefined;undefined;1536 x 864;1536 x 864
H016;53;Vrouwelijk;Rechts;5;70;left;no;100;leftarrow;526;true;focus;yes;1035575;Chrome;112.0;Windows;10;undefined;undefined;1536 x 864;1536 x 864
H016;53;Vrouwelijk;Rechts;5;71;left;no;100;leftarrow;498;true;focus;yes;1036849;Chrome;112.0;Windows;10;undefined;undefined;1536 x 864;1536 x 864
H016;53;Vrouwelijk;Rechts;5;72;right;no;100;rightarrow;439;true;focus;yes;1038065;Chrome;112.0;Windows;10;undefined;undefined;1536 x 864;1536 x 864
H016;53;Vrouwelijk;Rechts;5;73;left;no;100;leftarrow;481;true;focus;yes;1039324;Chrome;112.0;Windows;10;undefined;undefined;1536 x 864;1536 x 864
H016;53;Vrouwelijk;Rechts;5;74;left;no;100;leftarrow;441;true;focus;yes;1040535;Chrome;112.0;Windows;10;undefined;undefined;1536 x 864;1536 x 864
H016;53;Vrouwelijk;Rechts;5;75;left;yes;100;undefined;null;true;focus;yes;1042576;Chrome;112.0;Windows;10;undefined;undefined;1536 x 864;1536 x 864
H016;53;Vrouwelijk;Rechts;5;76;right;yes;150;undefined;null;true;focus;yes;1044605;Chrome;112.0;Windows;10;undefined;undefined;1536 x 864;1536 x 864
H016;53;Vrouwelijk;Rechts;5;77;left;no;200;leftarrow;526;true;focus;yes;1045913;Chrome;112.0;Windows;10;undefined;undefined;1536 x 864;1536 x 864
H016;53;Vrouwelijk;Rechts;5;78;right;no;200;rightarrow;601;true;focus;yes;1047279;Chrome;112.0;Windows;10;undefined;undefined;1536 x 864;1536 x 864
H016;53;Vrouwelijk;Rechts;5;79;right;no;200;rightarrow;497;true;focus;yes;1048548;Chrome;112.0;Windows;10;undefined;undefined;1536 x 864;1536 x 864
H016;53;Vrouwelijk;Rechts;5;80;right;no;200;rightarrow;646;true;focus;yes;1049968;Chrome;112.0;Windows;10;undefined;undefined;1536 x 864;1536 x 864
H016;53;Vrouwelijk;Rechts;5;81;right;yes;200;rightarrow;373;false;focus;yes;1051117;Chrome;112.0;Windows;10;undefined;undefined;1536 x 864;1536 x 864
H016;53;Vrouwelijk;Rechts;5;82;left;yes;150;undefined;null;true;focus;yes;1053140;Chrome;112.0;Windows;10;undefined;undefined;1536 x 864;1536 x 864
H016;53;Vrouwelijk;Rechts;5;83;right;no;200;rightarrow;476;true;focus;yes;1054382;Chrome;112.0;Windows;10;undefined;undefined;1536 x 864;1536 x 864
H016;53;Vrouwelijk;Rechts;5;84;left;no;200;leftarrow;505;true;focus;yes;1055662;Chrome;112.0;Windows;10;undefined;undefined;1536 x 864;1536 x 864
H016;53;Vrouwelijk;Rechts;5;85;left;no;200;leftarrow;432;true;focus;yes;1056872;Chrome;112.0;Windows;10;undefined;undefined;1536 x 864;1536 x 864
H016;53;Vrouwelijk;Rechts;5;86;right;no;200;rightarrow;499;true;focus;yes;1058142;Chrome;112.0;Windows;10;undefined;undefined;1536 x 864;1536 x 864
H016;53;Vrouwelijk;Rechts;5;87;right;no;200;rightarrow;424;true;focus;yes;1059334;Chrome;112.0;Windows;10;undefined;undefined;1536 x 864;1536 x 864
H016;53;Vrouwelijk;Rechts;5;88;left;no;200;leftarrow;446;true;focus;yes;1060550;Chrome;112.0;Windows;10;undefined;undefined;1536 x 864;1536 x 864
H016;53;Vrouwelijk;Rechts;5;89;right;no;200;rightarrow;520;true;focus;yes;1061839;Chrome;112.0;Windows;10;undefined;undefined;1536 x 864;1536 x 864
H016;53;Vrouwelijk;Rechts;5;90;right;no;200;rightarrow;442;true;focus;yes;1063061;Chrome;112.0;Windows;10;undefined;undefined;1536 x 864;1536 x 864
H016;53;Vrouwelijk;Rechts;5;91;left;yes;200;leftarrow;502;false;focus;yes;1064329;Chrome;112.0;Windows;10;undefined;undefined;1536 x 864;1536 x 864
H016;53;Vrouwelijk;Rechts;5;92;left;no;150;leftarrow;512;true;focus;yes;1065607;Chrome;112.0;Windows;10;undefined;undefined;1536 x 864;1536 x 864
H016;53;Vrouwelijk;Rechts;5;93;right;yes;150;undefined;null;true;focus;yes;1067645;Chrome;112.0;Windows;10;undefined;undefined;1536 x 864;1536 x 864
H016;53;Vrouwelijk;Rechts;5;94;left;no;200;leftarrow;689;true;focus;yes;1069106;Chrome;112.0;Windows;10;undefined;undefined;1536 x 864;1536 x 864
H016;53;Vrouwelijk;Rechts;5;95;left;no;200;leftarrow;461;true;focus;yes;1070344;Chrome;112.0;Windows;10;undefined;undefined;1536 x 864;1536 x 864
H016;53;Vrouwelijk;Rechts;5;96;right;no;200;rightarrow;498;true;focus;yes;1071614;Chrome;112.0;Windows;10;undefined;undefined;1536 x 864;1536 x 864
H016;53;Vrouwelijk;Rechts;5;97;right;no;200;rightarrow;451;true;focus;yes;1072838;Chrome;112.0;Windows;10;undefined;undefined;1536 x 864;1536 x 864
H016;53;Vrouwelijk;Rechts;5;98;right;no;200;rightarrow;422;true;focus;yes;1074034;Chrome;112.0;Windows;10;undefined;undefined;1536 x 864;1536 x 864
H016;53;Vrouwelijk;Rechts;5;99;left;no;200;leftarrow;496;true;focus;yes;1075302;Chrome;112.0;Windows;10;undefined;undefined;1536 x 864;1536 x 864
H016;53;Vrouwelijk;Rechts;5;100;left;no;200;leftarrow;555;true;focus;yes;1076622;Chrome;112.0;Windows;10;undefined;undefined;1536 x 864;1536 x 864
H016;53;Vrouwelijk;Rechts;5;101;left;no;200;leftarrow;434;true;focus;yes;1077834;Chrome;112.0;Windows;10;undefined;undefined;1536 x 864;1536 x 864
H016;53;Vrouwelijk;Rechts;5;102;right;no;200;rightarrow;528;true;focus;yes;1079136;Chrome;112.0;Windows;10;undefined;undefined;1536 x 864;1536 x 864
H016;53;Vrouwelijk;Rechts;5;103;right;yes;200;rightarrow;426;false;focus;yes;1080329;Chrome;112.0;Windows;10;undefined;undefined;1536 x 864;1536 x 864
H016;53;Vrouwelijk;Rechts;5;104;left;yes;150;undefined;null;true;focus;yes;1082365;Chrome;112.0;Windows;10;undefined;undefined;1536 x 864;1536 x 864
H016;53;Vrouwelijk;Rechts;5;105;right;yes;200;undefined;null;true;focus;yes;1084403;Chrome;112.0;Windows;10;undefined;undefined;1536 x 864;1536 x 864
H016;53;Vrouwelijk;Rechts;5;106;left;no;250;leftarrow;486;true;focus;yes;1085653;Chrome;112.0;Windows;10;undefined;undefined;1536 x 864;1536 x 864
H016;53;Vrouwelijk;Rechts;5;107;left;no;250;leftarrow;437;true;focus;yes;1086865;Chrome;112.0;Windows;10;undefined;undefined;1536 x 864;1536 x 864
H016;53;Vrouwelijk;Rechts;5;108;right;no;250;rightarrow;422;true;focus;yes;1088064;Chrome;112.0;Windows;10;undefined;undefined;1536 x 864;1536 x 864
H016;53;Vrouwelijk;Rechts;5;109;right;no;250;rightarrow;426;true;focus;yes;1089266;Chrome;112.0;Windows;10;undefined;undefined;1536 x 864;1536 x 864
H016;53;Vrouwelijk;Rechts;5;110;left;yes;250;leftarrow;460;false;focus;yes;1090501;Chrome;112.0;Windows;10;undefined;undefined;1536 x 864;1536 x 864
H016;53;Vrouwelijk;Rechts;5;111;left;no;200;leftarrow;451;true;focus;yes;1091719;Chrome;112.0;Windows;10;undefined;undefined;1536 x 864;1536 x 864
H016;53;Vrouwelijk;Rechts;5;112;right;no;200;rightarrow;429;true;focus;yes;1092910;Chrome;112.0;Windows;10;undefined;undefined;1536 x 864;1536 x 864
H016;53;Vrouwelijk;Rechts;5;113;right;no;200;rightarrow;411;true;focus;yes;1094094;Chrome;112.0;Windows;10;undefined;undefined;1536 x 864;1536 x 864
H016;53;Vrouwelijk;Rechts;5;114;right;yes;200;undefined;null;true;focus;yes;1096115;Chrome;112.0;Windows;10;undefined;undefined;1536 x 864;1536 x 864
H016;53;Vrouwelijk;Rechts;5;115;left;yes;250;undefined;null;true;focus;yes;1098143;Chrome;112.0;Windows;10;undefined;undefined;1536 x 864;1536 x 864
H016;53;Vrouwelijk;Rechts;5;116;left;no;300;leftarrow;594;true;focus;yes;1099509;Chrome;112.0;Windows;10;undefined;undefined;1536 x 864;1536 x 864
H016;53;Vrouwelijk;Rechts;5;117;right;no;300;rightarrow;432;true;focus;yes;1100713;Chrome;112.0;Windows;10;undefined;undefined;1536 x 864;1536 x 864
H016;53;Vrouwelijk;Rechts;5;118;right;no;300;rightarrow;396;true;focus;yes;1101876;Chrome;112.0;Windows;10;undefined;undefined;1536 x 864;1536 x 864
H016;53;Vrouwelijk;Rechts;5;119;left;no;300;leftarrow;543;true;focus;yes;1103180;Chrome;112.0;Windows;10;undefined;undefined;1536 x 864;1536 x 864
H016;53;Vrouwelijk;Rechts;5;120;left;no;300;leftarrow;502;true;focus;yes;1104449;Chrome;112.0;Windows;10;undefined;undefined;1536 x 864;1536 x 864
H016;53;Vrouwelijk;Rechts;5;121;right;no;300;rightarrow;401;true;focus;yes;1105622;Chrome;112.0;Windows;10;undefined;undefined;1536 x 864;1536 x 864
H016;53;Vrouwelijk;Rechts;5;122;right;no;300;rightarrow;547;true;focus;yes;1106951;Chrome;112.0;Windows;10;undefined;undefined;1536 x 864;1536 x 864
H016;53;Vrouwelijk;Rechts;5;123;left;no;300;leftarrow;560;true;focus;yes;1108286;Chrome;112.0;Windows;10;undefined;undefined;1536 x 864;1536 x 864
H016;53;Vrouwelijk;Rechts;5;124;left;no;300;leftarrow;430;true;focus;yes;1109495;Chrome;112.0;Windows;10;undefined;undefined;1536 x 864;1536 x 864
H016;53;Vrouwelijk;Rechts;5;125;right;yes;300;rightarrow;454;false;focus;yes;1110725;Chrome;112.0;Windows;10;undefined;undefined;1536 x 864;1536 x 864
H016;53;Vrouwelijk;Rechts;5;126;right;no;250;rightarrow;806;true;focus;yes;1112297;Chrome;112.0;Windows;10;undefined;undefined;1536 x 864;1536 x 864
H016;53;Vrouwelijk;Rechts;5;127;left;no;250;leftarrow;426;true;focus;yes;1113499;Chrome;112.0;Windows;10;undefined;undefined;1536 x 864;1536 x 864
H016;53;Vrouwelijk;Rechts;5;128;left;yes;250;leftarrow;448;false;focus;yes;1114728;Chrome;112.0;Windows;10;undefined;undefined;1536 x 864;1536 x 864
H016;53;Vrouwelijk;Rechts;6;1;left;no;200;leftarrow;463;true;focus;yes;1135615;Chrome;112.0;Windows;10;undefined;undefined;1536 x 864;1536 x 864
H016;53;Vrouwelijk;Rechts;6;2;right;no;200;rightarrow;416;true;focus;yes;1136794;Chrome;112.0;Windows;10;undefined;undefined;1536 x 864;1536 x 864
H016;53;Vrouwelijk;Rechts;6;3;left;yes;200;leftarrow;475;false;focus;yes;1138036;Chrome;112.0;Windows;10;undefined;undefined;1536 x 864;1536 x 864
H016;53;Vrouwelijk;Rechts;6;4;right;no;150;rightarrow;415;true;focus;yes;1139234;Chrome;112.0;Windows;10;undefined;undefined;1536 x 864;1536 x 864
H016;53;Vrouwelijk;Rechts;6;5;left;no;150;leftarrow;411;true;focus;yes;1140419;Chrome;112.0;Windows;10;undefined;undefined;1536 x 864;1536 x 864
H016;53;Vrouwelijk;Rechts;6;6;right;yes;150;undefined;null;true;focus;yes;1142461;Chrome;112.0;Windows;10;undefined;undefined;1536 x 864;1536 x 864
H016;53;Vrouwelijk;Rechts;6;7;left;no;200;leftarrow;394;true;focus;yes;1143636;Chrome;112.0;Windows;10;undefined;undefined;1536 x 864;1536 x 864
H016;53;Vrouwelijk;Rechts;6;8;right;no;200;rightarrow;520;true;focus;yes;1144938;Chrome;112.0;Windows;10;undefined;undefined;1536 x 864;1536 x 864
H016;53;Vrouwelijk;Rechts;6;9;left;no;200;leftarrow;438;true;focus;yes;1146157;Chrome;112.0;Windows;10;undefined;undefined;1536 x 864;1536 x 864
H016;53;Vrouwelijk;Rechts;6;10;right;no;200;rightarrow;418;true;focus;yes;1147338;Chrome;112.0;Windows;10;undefined;undefined;1536 x 864;1536 x 864
H016;53;Vrouwelijk;Rechts;6;11;right;no;200;rightarrow;403;true;focus;yes;1148516;Chrome;112.0;Windows;10;undefined;undefined;1536 x 864;1536 x 864
H016;53;Vrouwelijk;Rechts;6;12;left;no;200;leftarrow;758;true;focus;yes;1150056;Chrome;112.0;Windows;10;undefined;undefined;1536 x 864;1536 x 864
H016;53;Vrouwelijk;Rechts;6;13;left;yes;200;leftarrow;453;false;focus;yes;1151280;Chrome;112.0;Windows;10;undefined;undefined;1536 x 864;1536 x 864
H016;53;Vrouwelijk;Rechts;6;14;left;no;150;leftarrow;461;true;focus;yes;1152511;Chrome;112.0;Windows;10;undefined;undefined;1536 x 864;1536 x 864
H016;53;Vrouwelijk;Rechts;6;15;right;yes;150;rightarrow;411;false;focus;yes;1153693;Chrome;112.0;Windows;10;undefined;undefined;1536 x 864;1536 x 864
H016;53;Vrouwelijk;Rechts;6;16;right;no;100;rightarrow;498;true;focus;yes;1154973;Chrome;112.0;Windows;10;undefined;undefined;1536 x 864;1536 x 864
H016;53;Vrouwelijk;Rechts;6;17;left;no;100;leftarrow;436;true;focus;yes;1156178;Chrome;112.0;Windows;10;undefined;undefined;1536 x 864;1536 x 864
H016;53;Vrouwelijk;Rechts;6;18;left;no;100;leftarrow;425;true;focus;yes;1157385;Chrome;112.0;Windows;10;undefined;undefined;1536 x 864;1536 x 864
H016;53;Vrouwelijk;Rechts;6;19;left;no;100;leftarrow;470;true;focus;yes;1158624;Chrome;112.0;Windows;10;undefined;undefined;1536 x 864;1536 x 864
H016;53;Vrouwelijk;Rechts;6;20;right;no;100;rightarrow;672;true;focus;yes;1160063;Chrome;112.0;Windows;10;undefined;undefined;1536 x 864;1536 x 864
H016;53;Vrouwelijk;Rechts;6;21;right;no;100;rightarrow;418;true;focus;yes;1161257;Chrome;112.0;Windows;10;undefined;undefined;1536 x 864;1536 x 864
H016;53;Vrouwelijk;Rechts;6;22;right;no;100;rightarrow;451;true;focus;yes;1162472;Chrome;112.0;Windows;10;undefined;undefined;1536 x 864;1536 x 864
H016;53;Vrouwelijk;Rechts;6;23;left;yes;100;undefined;null;true;focus;yes;1164498;Chrome;112.0;Windows;10;undefined;undefined;1536 x 864;1536 x 864
H016;53;Vrouwelijk;Rechts;6;24;right;yes;150;undefined;null;true;focus;yes;1166514;Chrome;112.0;Windows;10;undefined;undefined;1536 x 864;1536 x 864
H016;53;Vrouwelijk;Rechts;6;25;left;no;200;leftarrow;596;true;focus;yes;1167872;Chrome;112.0;Windows;10;undefined;undefined;1536 x 864;1536 x 864
H016;53;Vrouwelijk;Rechts;6;26;right;no;200;rightarrow;479;true;focus;yes;1169123;Chrome;112.0;Windows;10;undefined;undefined;1536 x 864;1536 x 864
H016;53;Vrouwelijk;Rechts;6;27;left;yes;200;leftarrow;484;false;focus;yes;1170374;Chrome;112.0;Windows;10;undefined;undefined;1536 x 864;1536 x 864
