participantID,age,gender,handedness,block_i,trial_i,stim,signal,SSD,response,rt,correct,focus,Fullscreen,time_elapsed,browser_name,browser_version,os_name,os_version,tablet,mobile,screen_resolution,window_resolution
S003,60,Mannelijk,Links,0,1,left,no,200,leftarrow,895,true,focus,yes,81114,Firefox,108.0,macOS,10.15,undefined,undefined,1920 x 1080,1920 x 1080
S003,60,Mannelijk,Links,0,2,left,no,200,leftarrow,851,true,focus,yes,83481,Firefox,108.0,macOS,10.15,undefined,undefined,1920 x 1080,1920 x 1080
S003,60,Mannelijk,Links,0,3,right,yes,200,rightarrow,1051,false,focus,yes,86051,Firefox,108.0,macOS,10.15,undefined,undefined,1920 x 1080,1920 x 1080
S003,60,Mannelijk,Links,0,4,right,no,150,rightarrow,989,true,focus,yes,88552,Firefox,108.0,macOS,10.15,undefined,undefined,1920 x 1080,1920 x 1080
S003,60,Mannelijk,Links,0,5,left,no,150,leftarrow,859,true,focus,yes,90928,Firefox,108.0,macOS,10.15,undefined,undefined,1920 x 1080,1920 x 1080
S003,60,Mannelijk,Links,0,6,left,yes,150,leftarrow,1028,false,focus,yes,93474,Firefox,108.0,macOS,10.15,undefined,undefined,1920 x 1080,1920 x 1080
S003,60,Mannelijk,Links,0,7,right,no,100,rightarrow,1230,true,focus,yes,96223,Firefox,108.0,macOS,10.15,undefined,undefined,1920 x 1080,1920 x 1080
S003,60,Mannelijk,Links,0,8,right,no,100,rightarrow,827,true,focus,yes,98566,Firefox,108.0,macOS,10.15,undefined,undefined,1920 x 1080,1920 x 1080
S003,60,Mannelijk,Links,1,1,left,no,100,leftarrow,944,true,focus,yes,119876,Firefox,108.0,macOS,10.15,undefined,undefined,1920 x 1080,1920 x 1080
S003,60,Mannelijk,Links,1,2,right,no,100,rightarrow,1065,true,focus,yes,121705,Firefox,108.0,macOS,10.15,undefined,undefined,1920 x 1080,1920 x 1080
S003,60,Mannelijk,Links,1,3,left,no,100,leftarrow,844,true,focus,yes,123307,Firefox,108.0,macOS,10.15,undefined,undefined,1920 x 1080,1920 x 1080
S003,60,Mannelijk,Links,1,4,right,no,100,rightarrow,641,true,focus,yes,124711,Firefox,108.0,macOS,10.15,undefined,undefined,1920 x 1080,1920 x 1080
S003,60,Mannelijk,Links,1,5,right,yes,100,undefined,null,true,focus,yes,126726,Firefox,108.0,macOS,10.15,undefined,undefined,1920 x 1080,1920 x 1080
S003,60,Mannelijk,Links,1,6,left,no,150,leftarrow,950,true,focus,yes,128440,Firefox,108.0,macOS,10.15,undefined,undefined,1920 x 1080,1920 x 1080
S003,60,Mannelijk,Links,1,7,right,no,150,rightarrow,1188,true,focus,yes,130391,Firefox,108.0,macOS,10.15,undefined,undefined,1920 x 1080,1920 x 1080
S003,60,Mannelijk,Links,1,8,left,yes,150,undefined,null,true,focus,yes,132400,Firefox,108.0,macOS,10.15,undefined,undefined,1920 x 1080,1920 x 1080
S003,60,Mannelijk,Links,1,9,right,no,200,rightarrow,854,true,focus,yes,134016,Firefox,108.0,macOS,10.15,undefined,undefined,1920 x 1080,1920 x 1080
S003,60,Mannelijk,Links,1,10,left,no,200,leftarrow,900,true,focus,yes,135679,Firefox,108.0,macOS,10.15,undefined,undefined,1920 x 1080,1920 x 1080
S003,60,Mannelijk,Links,1,11,right,no,200,rightarrow,978,true,focus,yes,137419,Firefox,108.0,macOS,10.15,undefined,undefined,1920 x 1080,1920 x 1080
S003,60,Mannelijk,Links,1,12,left,no,200,leftarrow,717,true,focus,yes,138899,Firefox,108.0,macOS,10.15,undefined,undefined,1920 x 1080,1920 x 1080
S003,60,Mannelijk,Links,1,13,left,no,200,leftarrow,863,true,focus,yes,140521,Firefox,108.0,macOS,10.15,undefined,undefined,1920 x 1080,1920 x 1080
S003,60,Mannelijk,Links,1,14,left,yes,200,undefined,null,true,focus,yes,142535,Firefox,108.0,macOS,10.15,undefined,undefined,1920 x 1080,1920 x 1080
S003,60,Mannelijk,Links,1,15,right,yes,250,undefined,null,true,focus,yes,144548,Firefox,108.0,macOS,10.15,undefined,undefined,1920 x 1080,1920 x 1080
S003,60,Mannelijk,Links,1,16,right,no,300,rightarrow,713,true,focus,yes,146020,Firefox,108.0,macOS,10.15,undefined,undefined,1920 x 1080,1920 x 1080
S003,60,Mannelijk,Links,1,17,right,no,300,rightarrow,838,true,focus,yes,147623,Firefox,108.0,macOS,10.15,undefined,undefined,1920 x 1080,1920 x 1080
S003,60,Mannelijk,Links,1,18,left,no,300,leftarrow,1004,true,focus,yes,149386,Firefox,108.0,macOS,10.15,undefined,undefined,1920 x 1080,1920 x 1080
S003,60,Mannelijk,Links,1,19,left,no,300,leftarrow,813,true,focus,yes,150961,Firefox,108.0,macOS,10.15,undefined,undefined,1920 x 1080,1920 x 1080
S003,60,Mannelijk,Links,1,20,left,no,300,leftarrow,996,true,focus,yes,152716,Firefox,108.0,macOS,10.15,undefined,undefined,1920 x 1080,1920 x 1080
S003,60,Mannelijk,Links,1,21,right,no,300,rightarrow,947,true,focus,yes,154421,Firefox,108.0,macOS,10.15,undefined,undefined,1920 x 1080,1920 x 1080
S003,60,Mannelijk,Links,1,22,right,yes,300,undefined,null,true,focus,yes,156433,Firefox,108.0,macOS,10.15,undefined,undefined,1920 x 1080,1920 x 1080
S003,60,Mannelijk,Links,1,23,right,no,350,rightarrow,591,true,focus,yes,157782,Firefox,108.0,macOS,10.15,undefined,undefined,1920 x 1080,1920 x 1080
S003,60,Mannelijk,Links,1,24,left,yes,350,undefined,null,true,focus,yes,159798,Firefox,108.0,macOS,10.15,undefined,undefined,1920 x 1080,1920 x 1080
S003,60,Mannelijk,Links,1,25,right,no,400,rightarrow,814,true,focus,yes,161371,Firefox,108.0,macOS,10.15,undefined,undefined,1920 x 1080,1920 x 1080
S003,60,Mannelijk,Links,1,26,right,yes,400,rightarrow,585,false,focus,yes,162711,Firefox,108.0,macOS,10.15,undefined,undefined,1920 x 1080,1920 x 1080
S003,60,Mannelijk,Links,1,27,left,yes,350,undefined,null,true,focus,yes,164726,Firefox,108.0,macOS,10.15,undefined,undefined,1920 x 1080,1920 x 1080
S003,60,Mannelijk,Links,1,28,right,no,400,rightarrow,813,true,focus,yes,166296,Firefox,108.0,macOS,10.15,undefined,undefined,1920 x 1080,1920 x 1080
S003,60,Mannelijk,Links,1,29,left,no,400,leftarrow,853,true,focus,yes,167910,Firefox,108.0,macOS,10.15,undefined,undefined,1920 x 1080,1920 x 1080
S003,60,Mannelijk,Links,1,30,left,no,400,leftarrow,868,true,focus,yes,169541,Firefox,108.0,macOS,10.15,undefined,undefined,1920 x 1080,1920 x 1080
S003,60,Mannelijk,Links,1,31,left,no,400,leftarrow,542,true,focus,yes,170843,Firefox,108.0,macOS,10.15,undefined,undefined,1920 x 1080,1920 x 1080
S003,60,Mannelijk,Links,1,32,right,no,400,rightarrow,896,true,focus,yes,172500,Firefox,108.0,macOS,10.15,undefined,undefined,1920 x 1080,1920 x 1080
S003,60,Mannelijk,Links,1,33,left,no,400,leftarrow,769,true,focus,yes,174032,Firefox,108.0,macOS,10.15,undefined,undefined,1920 x 1080,1920 x 1080
S003,60,Mannelijk,Links,1,34,left,no,400,leftarrow,811,true,focus,yes,175606,Firefox,108.0,macOS,10.15,undefined,undefined,1920 x 1080,1920 x 1080
S003,60,Mannelijk,Links,1,35,right,no,400,rightarrow,675,true,focus,yes,177041,Firefox,108.0,macOS,10.15,undefined,undefined,1920 x 1080,1920 x 1080
S003,60,Mannelijk,Links,1,36,left,no,400,leftarrow,750,true,focus,yes,178551,Firefox,108.0,macOS,10.15,undefined,undefined,1920 x 1080,1920 x 1080
S003,60,Mannelijk,Links,1,37,left,yes,400,leftarrow,723,false,focus,yes,180034,Firefox,108.0,macOS,10.15,undefined,undefined,1920 x 1080,1920 x 1080
S003,60,Mannelijk,Links,1,38,right,no,350,undefined,null,false,focus,yes,182046,Firefox,108.0,macOS,10.15,undefined,undefined,1920 x 1080,1920 x 1080
S003,60,Mannelijk,Links,1,39,right,no,350,rightarrow,849,true,focus,yes,183655,Firefox,108.0,macOS,10.15,undefined,undefined,1920 x 1080,1920 x 1080
S003,60,Mannelijk,Links,1,40,right,yes,350,undefined,null,true,focus,yes,185669,Firefox,108.0,macOS,10.15,undefined,undefined,1920 x 1080,1920 x 1080
S003,60,Mannelijk,Links,1,41,right,no,400,rightarrow,746,true,focus,yes,187170,Firefox,108.0,macOS,10.15,undefined,undefined,1920 x 1080,1920 x 1080
S003,60,Mannelijk,Links,1,42,right,yes,400,undefined,null,true,focus,yes,189189,Firefox,108.0,macOS,10.15,undefined,undefined,1920 x 1080,1920 x 1080
S003,60,Mannelijk,Links,1,43,left,no,450,leftarrow,894,true,focus,yes,190840,Firefox,108.0,macOS,10.15,undefined,undefined,1920 x 1080,1920 x 1080
S003,60,Mannelijk,Links,1,44,left,no,450,leftarrow,617,true,focus,yes,192217,Firefox,108.0,macOS,10.15,undefined,undefined,1920 x 1080,1920 x 1080
S003,60,Mannelijk,Links,1,45,left,yes,450,undefined,null,true,focus,yes,194232,Firefox,108.0,macOS,10.15,undefined,undefined,1920 x 1080,1920 x 1080
S003,60,Mannelijk,Links,1,46,right,no,500,rightarrow,684,true,focus,yes,195675,Firefox,108.0,macOS,10.15,undefined,undefined,1920 x 1080,1920 x 1080
S003,60,Mannelijk,Links,1,47,right,no,500,rightarrow,1059,true,focus,yes,197495,Firefox,108.0,macOS,10.15,undefined,undefined,1920 x 1080,1920 x 1080
S003,60,Mannelijk,Links,1,48,left,no,500,leftarrow,993,true,focus,yes,199252,Firefox,108.0,macOS,10.15,undefined,undefined,1920 x 1080,1920 x 1080
S003,60,Mannelijk,Links,1,49,right,yes,500,rightarrow,603,false,focus,yes,200615,Firefox,108.0,macOS,10.15,undefined,undefined,1920 x 1080,1920 x 1080
S003,60,Mannelijk,Links,1,50,right,no,450,rightarrow,887,true,focus,yes,202264,Firefox,108.0,macOS,10.15,undefined,undefined,1920 x 1080,1920 x 1080
S003,60,Mannelijk,Links,1,51,left,yes,450,undefined,null,true,focus,yes,204278,Firefox,108.0,macOS,10.15,undefined,undefined,1920 x 1080,1920 x 1080
S003,60,Mannelijk,Links,1,52,left,no,500,leftarrow,727,true,focus,yes,205769,Firefox,108.0,macOS,10.15,undefined,undefined,1920 x 1080,1920 x 1080
S003,60,Mannelijk,Links,1,53,right,no,500,rightarrow,783,true,focus,yes,207308,Firefox,108.0,macOS,10.15,undefined,undefined,1920 x 1080,1920 x 1080
S003,60,Mannelijk,Links,1,54,left,no,500,leftarrow,629,true,focus,yes,208696,Firefox,108.0,macOS,10.15,undefined,undefined,1920 x 1080,1920 x 1080
S003,60,Mannelijk,Links,1,55,left,no,500,leftarrow,731,true,focus,yes,210185,Firefox,108.0,macOS,10.15,undefined,undefined,1920 x 1080,1920 x 1080
S003,60,Mannelijk,Links,1,56,right,no,500,rightarrow,976,true,focus,yes,211921,Firefox,108.0,macOS,10.15,undefined,undefined,1920 x 1080,1920 x 1080
S003,60,Mannelijk,Links,1,57,right,no,500,rightarrow,865,true,focus,yes,213546,Firefox,108.0,macOS,10.15,undefined,undefined,1920 x 1080,1920 x 1080
S003,60,Mannelijk,Links,1,58,right,no,500,rightarrow,750,true,focus,yes,215056,Firefox,108.0,macOS,10.15,undefined,undefined,1920 x 1080,1920 x 1080
S003,60,Mannelijk,Links,1,59,left,no,500,leftarrow,720,true,focus,yes,216536,Firefox,108.0,macOS,10.15,undefined,undefined,1920 x 1080,1920 x 1080
S003,60,Mannelijk,Links,1,60,left,no,500,leftarrow,873,true,focus,yes,218166,Firefox,108.0,macOS,10.15,undefined,undefined,1920 x 1080,1920 x 1080
S003,60,Mannelijk,Links,1,61,left,yes,500,leftarrow,818,false,focus,yes,219745,Firefox,108.0,macOS,10.15,undefined,undefined,1920 x 1080,1920 x 1080
S003,60,Mannelijk,Links,1,62,right,no,450,rightarrow,881,true,focus,yes,221390,Firefox,108.0,macOS,10.15,undefined,undefined,1920 x 1080,1920 x 1080
S003,60,Mannelijk,Links,1,63,left,no,450,leftarrow,899,true,focus,yes,223048,Firefox,108.0,macOS,10.15,undefined,undefined,1920 x 1080,1920 x 1080
S003,60,Mannelijk,Links,1,64,right,yes,450,undefined,null,true,focus,yes,225068,Firefox,108.0,macOS,10.15,undefined,undefined,1920 x 1080,1920 x 1080
S003,60,Mannelijk,Links,1,65,left,no,500,leftarrow,464,true,focus,yes,226293,Firefox,108.0,macOS,10.15,undefined,undefined,1920 x 1080,1920 x 1080
S003,60,Mannelijk,Links,1,66,left,yes,500,undefined,null,true,focus,yes,228309,Firefox,108.0,macOS,10.15,undefined,undefined,1920 x 1080,1920 x 1080
S003,60,Mannelijk,Links,1,67,right,no,550,rightarrow,658,true,focus,yes,229729,Firefox,108.0,macOS,10.15,undefined,undefined,1920 x 1080,1920 x 1080
S003,60,Mannelijk,Links,1,68,left,no,550,leftarrow,801,true,focus,yes,231286,Firefox,108.0,macOS,10.15,undefined,undefined,1920 x 1080,1920 x 1080
S003,60,Mannelijk,Links,1,69,left,no,550,leftarrow,653,true,focus,yes,232699,Firefox,108.0,macOS,10.15,undefined,undefined,1920 x 1080,1920 x 1080
S003,60,Mannelijk,Links,1,70,right,yes,550,rightarrow,660,false,focus,yes,234116,Firefox,108.0,macOS,10.15,undefined,undefined,1920 x 1080,1920 x 1080
S003,60,Mannelijk,Links,1,71,right,no,500,rightarrow,1187,true,focus,yes,236066,Firefox,108.0,macOS,10.15,undefined,undefined,1920 x 1080,1920 x 1080
S003,60,Mannelijk,Links,1,72,right,no,500,undefined,null,false,focus,yes,238082,Firefox,108.0,macOS,10.15,undefined,undefined,1920 x 1080,1920 x 1080
S003,60,Mannelijk,Links,1,73,left,yes,500,undefined,null,true,focus,yes,240099,Firefox,108.0,macOS,10.15,undefined,undefined,1920 x 1080,1920 x 1080
S003,60,Mannelijk,Links,1,74,left,no,550,leftarrow,711,true,focus,yes,241570,Firefox,108.0,macOS,10.15,undefined,undefined,1920 x 1080,1920 x 1080
S003,60,Mannelijk,Links,1,75,left,no,550,leftarrow,1134,true,focus,yes,243469,Firefox,108.0,macOS,10.15,undefined,undefined,1920 x 1080,1920 x 1080
S003,60,Mannelijk,Links,1,76,right,no,550,rightarrow,790,true,focus,yes,245021,Firefox,108.0,macOS,10.15,undefined,undefined,1920 x 1080,1920 x 1080
S003,60,Mannelijk,Links,1,77,left,no,550,leftarrow,1102,true,focus,yes,246888,Firefox,108.0,macOS,10.15,undefined,undefined,1920 x 1080,1920 x 1080
S003,60,Mannelijk,Links,1,78,right,yes,550,undefined,null,true,focus,yes,248900,Firefox,108.0,macOS,10.15,undefined,undefined,1920 x 1080,1920 x 1080
S003,60,Mannelijk,Links,1,79,right,no,600,rightarrow,809,true,focus,yes,250466,Firefox,108.0,macOS,10.15,undefined,undefined,1920 x 1080,1920 x 1080
S003,60,Mannelijk,Links,1,80,right,no,600,rightarrow,926,true,focus,yes,252154,Firefox,108.0,macOS,10.15,undefined,undefined,1920 x 1080,1920 x 1080
S003,60,Mannelijk,Links,1,81,left,yes,600,leftarrow,939,false,focus,yes,253849,Firefox,108.0,macOS,10.15,undefined,undefined,1920 x 1080,1920 x 1080
S003,60,Mannelijk,Links,1,82,right,yes,550,undefined,null,true,focus,yes,255865,Firefox,108.0,macOS,10.15,undefined,undefined,1920 x 1080,1920 x 1080
S003,60,Mannelijk,Links,1,83,left,no,600,leftarrow,753,true,focus,yes,257382,Firefox,108.0,macOS,10.15,undefined,undefined,1920 x 1080,1920 x 1080
S003,60,Mannelijk,Links,1,84,right,no,600,rightarrow,966,true,focus,yes,259113,Firefox,108.0,macOS,10.15,undefined,undefined,1920 x 1080,1920 x 1080
S003,60,Mannelijk,Links,1,85,right,no,600,rightarrow,1158,true,focus,yes,261033,Firefox,108.0,macOS,10.15,undefined,undefined,1920 x 1080,1920 x 1080
S003,60,Mannelijk,Links,1,86,left,no,600,leftarrow,1011,true,focus,yes,262800,Firefox,108.0,macOS,10.15,undefined,undefined,1920 x 1080,1920 x 1080
S003,60,Mannelijk,Links,1,87,left,no,600,leftarrow,911,true,focus,yes,264473,Firefox,108.0,macOS,10.15,undefined,undefined,1920 x 1080,1920 x 1080
S003,60,Mannelijk,Links,1,88,right,no,600,rightarrow,894,true,focus,yes,266128,Firefox,108.0,macOS,10.15,undefined,undefined,1920 x 1080,1920 x 1080
S003,60,Mannelijk,Links,1,89,left,no,600,leftarrow,865,true,focus,yes,267757,Firefox,108.0,macOS,10.15,undefined,undefined,1920 x 1080,1920 x 1080
S003,60,Mannelijk,Links,1,90,right,no,600,rightarrow,855,true,focus,yes,269373,Firefox,108.0,macOS,10.15,undefined,undefined,1920 x 1080,1920 x 1080
S003,60,Mannelijk,Links,1,91,left,yes,600,leftarrow,711,false,focus,yes,270843,Firefox,108.0,macOS,10.15,undefined,undefined,1920 x 1080,1920 x 1080
S003,60,Mannelijk,Links,1,92,left,no,550,leftarrow,934,true,focus,yes,272539,Firefox,108.0,macOS,10.15,undefined,undefined,1920 x 1080,1920 x 1080
S003,60,Mannelijk,Links,1,93,right,no,550,rightarrow,1136,true,focus,yes,274435,Firefox,108.0,macOS,10.15,undefined,undefined,1920 x 1080,1920 x 1080
S003,60,Mannelijk,Links,1,94,right,yes,550,undefined,null,true,focus,yes,276450,Firefox,108.0,macOS,10.15,undefined,undefined,1920 x 1080,1920 x 1080
S003,60,Mannelijk,Links,1,95,left,no,600,leftarrow,666,true,focus,yes,277877,Firefox,108.0,macOS,10.15,undefined,undefined,1920 x 1080,1920 x 1080
S003,60,Mannelijk,Links,1,96,right,no,600,rightarrow,861,true,focus,yes,279500,Firefox,108.0,macOS,10.15,undefined,undefined,1920 x 1080,1920 x 1080
S003,60,Mannelijk,Links,1,97,right,no,600,rightarrow,979,true,focus,yes,281243,Firefox,108.0,macOS,10.15,undefined,undefined,1920 x 1080,1920 x 1080
S003,60,Mannelijk,Links,1,98,right,yes,600,undefined,null,true,focus,yes,283262,Firefox,108.0,macOS,10.15,undefined,undefined,1920 x 1080,1920 x 1080
S003,60,Mannelijk,Links,1,99,right,no,650,rightarrow,587,true,focus,yes,284611,Firefox,108.0,macOS,10.15,undefined,undefined,1920 x 1080,1920 x 1080
S003,60,Mannelijk,Links,1,100,right,no,650,rightarrow,980,true,focus,yes,286355,Firefox,108.0,macOS,10.15,undefined,undefined,1920 x 1080,1920 x 1080
S003,60,Mannelijk,Links,1,101,left,no,650,leftarrow,1081,true,focus,yes,288199,Firefox,108.0,macOS,10.15,undefined,undefined,1920 x 1080,1920 x 1080
S003,60,Mannelijk,Links,1,102,left,no,650,undefined,null,false,focus,yes,290214,Firefox,108.0,macOS,10.15,undefined,undefined,1920 x 1080,1920 x 1080
S003,60,Mannelijk,Links,1,103,left,no,650,leftarrow,971,true,focus,yes,291947,Firefox,108.0,macOS,10.15,undefined,undefined,1920 x 1080,1920 x 1080
S003,60,Mannelijk,Links,1,104,left,yes,650,undefined,null,true,focus,yes,293957,Firefox,108.0,macOS,10.15,undefined,undefined,1920 x 1080,1920 x 1080
S003,60,Mannelijk,Links,1,105,left,no,700,leftarrow,458,true,focus,yes,295177,Firefox,108.0,macOS,10.15,undefined,undefined,1920 x 1080,1920 x 1080
S003,60,Mannelijk,Links,1,106,left,no,700,leftarrow,551,true,focus,yes,296489,Firefox,108.0,macOS,10.15,undefined,undefined,1920 x 1080,1920 x 1080
S003,60,Mannelijk,Links,1,107,left,no,700,leftarrow,643,true,focus,yes,297893,Firefox,108.0,macOS,10.15,undefined,undefined,1920 x 1080,1920 x 1080
S003,60,Mannelijk,Links,1,108,right,no,700,rightarrow,1091,true,focus,yes,299749,Firefox,108.0,macOS,10.15,undefined,undefined,1920 x 1080,1920 x 1080
S003,60,Mannelijk,Links,1,109,right,yes,700,rightarrow,928,false,focus,yes,301438,Firefox,108.0,macOS,10.15,undefined,undefined,1920 x 1080,1920 x 1080
S003,60,Mannelijk,Links,1,110,right,no,650,rightarrow,979,true,focus,yes,303178,Firefox,108.0,macOS,10.15,undefined,undefined,1920 x 1080,1920 x 1080
S003,60,Mannelijk,Links,1,111,right,no,650,rightarrow,1214,true,focus,yes,305154,Firefox,108.0,macOS,10.15,undefined,undefined,1920 x 1080,1920 x 1080
S003,60,Mannelijk,Links,1,112,left,yes,650,leftarrow,900,false,focus,yes,306816,Firefox,108.0,macOS,10.15,undefined,undefined,1920 x 1080,1920 x 1080
S003,60,Mannelijk,Links,1,113,right,no,600,rightarrow,769,true,focus,yes,308351,Firefox,108.0,macOS,10.15,undefined,undefined,1920 x 1080,1920 x 1080
S003,60,Mannelijk,Links,1,114,left,no,600,undefined,null,false,focus,yes,310364,Firefox,108.0,macOS,10.15,undefined,undefined,1920 x 1080,1920 x 1080
S003,60,Mannelijk,Links,1,115,left,yes,600,undefined,null,true,focus,yes,312381,Firefox,108.0,macOS,10.15,undefined,undefined,1920 x 1080,1920 x 1080
S003,60,Mannelijk,Links,1,116,right,no,650,rightarrow,840,true,focus,yes,313986,Firefox,108.0,macOS,10.15,undefined,undefined,1920 x 1080,1920 x 1080
S003,60,Mannelijk,Links,1,117,right,yes,650,undefined,null,true,focus,yes,316005,Firefox,108.0,macOS,10.15,undefined,undefined,1920 x 1080,1920 x 1080
S003,60,Mannelijk,Links,1,118,left,no,700,leftarrow,999,true,focus,yes,317766,Firefox,108.0,macOS,10.15,undefined,undefined,1920 x 1080,1920 x 1080
S003,60,Mannelijk,Links,1,119,left,no,700,leftarrow,912,true,focus,yes,319437,Firefox,108.0,macOS,10.15,undefined,undefined,1920 x 1080,1920 x 1080
S003,60,Mannelijk,Links,1,120,right,no,700,rightarrow,1124,true,focus,yes,321323,Firefox,108.0,macOS,10.15,undefined,undefined,1920 x 1080,1920 x 1080
S003,60,Mannelijk,Links,1,121,left,no,700,leftarrow,1096,true,focus,yes,323183,Firefox,108.0,macOS,10.15,undefined,undefined,1920 x 1080,1920 x 1080
S003,60,Mannelijk,Links,1,122,left,no,700,leftarrow,1069,true,focus,yes,325015,Firefox,108.0,macOS,10.15,undefined,undefined,1920 x 1080,1920 x 1080
S003,60,Mannelijk,Links,1,123,left,no,700,undefined,null,false,focus,yes,327028,Firefox,108.0,macOS,10.15,undefined,undefined,1920 x 1080,1920 x 1080
S003,60,Mannelijk,Links,1,124,right,yes,700,rightarrow,1047,false,focus,yes,328835,Firefox,108.0,macOS,10.15,undefined,undefined,1920 x 1080,1920 x 1080
S003,60,Mannelijk,Links,1,125,right,no,650,rightarrow,1186,true,focus,yes,330784,Firefox,108.0,macOS,10.15,undefined,undefined,1920 x 1080,1920 x 1080
S003,60,Mannelijk,Links,1,126,right,no,650,undefined,null,false,focus,yes,332803,Firefox,108.0,macOS,10.15,undefined,undefined,1920 x 1080,1920 x 1080
S003,60,Mannelijk,Links,1,127,right,no,650,undefined,null,false,focus,yes,334813,Firefox,108.0,macOS,10.15,undefined,undefined,1920 x 1080,1920 x 1080
S003,60,Mannelijk,Links,1,128,left,yes,650,undefined,null,true,focus,yes,336829,Firefox,108.0,macOS,10.15,undefined,undefined,1920 x 1080,1920 x 1080
S003,60,Mannelijk,Links,2,1,right,no,700,rightarrow,1212,true,focus,yes,360801,Firefox,108.0,macOS,10.15,undefined,undefined,1920 x 1080,1920 x 1080
S003,60,Mannelijk,Links,2,2,right,no,700,rightarrow,936,true,focus,yes,362501,Firefox,108.0,macOS,10.15,undefined,undefined,1920 x 1080,1920 x 1080
S003,60,Mannelijk,Links,2,3,right,yes,700,undefined,null,true,focus,yes,364515,Firefox,108.0,macOS,10.15,undefined,undefined,1920 x 1080,1920 x 1080
S003,60,Mannelijk,Links,2,4,left,no,750,leftarrow,875,true,focus,yes,366148,Firefox,108.0,macOS,10.15,undefined,undefined,1920 x 1080,1920 x 1080
S003,60,Mannelijk,Links,2,5,left,yes,750,undefined,null,true,focus,yes,368163,Firefox,108.0,macOS,10.15,undefined,undefined,1920 x 1080,1920 x 1080
S003,60,Mannelijk,Links,2,6,left,no,800,leftarrow,770,true,focus,yes,369694,Firefox,108.0,macOS,10.15,undefined,undefined,1920 x 1080,1920 x 1080
S003,60,Mannelijk,Links,2,7,right,no,800,rightarrow,958,true,focus,yes,371409,Firefox,108.0,macOS,10.15,undefined,undefined,1920 x 1080,1920 x 1080
S003,60,Mannelijk,Links,2,8,left,no,800,leftarrow,1106,true,focus,yes,373277,Firefox,108.0,macOS,10.15,undefined,undefined,1920 x 1080,1920 x 1080
S003,60,Mannelijk,Links,2,9,left,no,800,leftarrow,1112,true,focus,yes,375147,Firefox,108.0,macOS,10.15,undefined,undefined,1920 x 1080,1920 x 1080
S003,60,Mannelijk,Links,2,10,left,no,800,leftarrow,1059,true,focus,yes,376967,Firefox,108.0,macOS,10.15,undefined,undefined,1920 x 1080,1920 x 1080
S003,60,Mannelijk,Links,2,11,right,no,800,rightarrow,1083,true,focus,yes,378811,Firefox,108.0,macOS,10.15,undefined,undefined,1920 x 1080,1920 x 1080
S003,60,Mannelijk,Links,2,12,right,no,800,rightarrow,824,true,focus,yes,380398,Firefox,108.0,macOS,10.15,undefined,undefined,1920 x 1080,1920 x 1080
S003,60,Mannelijk,Links,2,13,right,no,800,rightarrow,1088,true,focus,yes,382249,Firefox,108.0,macOS,10.15,undefined,undefined,1920 x 1080,1920 x 1080
S003,60,Mannelijk,Links,2,14,left,no,800,leftarrow,1172,true,focus,yes,384185,Firefox,108.0,macOS,10.15,undefined,undefined,1920 x 1080,1920 x 1080
S003,60,Mannelijk,Links,2,15,right,yes,800,rightarrow,869,false,focus,yes,385814,Firefox,108.0,macOS,10.15,undefined,undefined,1920 x 1080,1920 x 1080
S003,60,Mannelijk,Links,2,16,left,yes,750,undefined,null,true,focus,yes,387830,Firefox,108.0,macOS,10.15,undefined,undefined,1920 x 1080,1920 x 1080
S003,60,Mannelijk,Links,2,17,left,no,800,leftarrow,731,true,focus,yes,389322,Firefox,108.0,macOS,10.15,undefined,undefined,1920 x 1080,1920 x 1080
S003,60,Mannelijk,Links,2,18,left,no,800,leftarrow,1084,true,focus,yes,391162,Firefox,108.0,macOS,10.15,undefined,undefined,1920 x 1080,1920 x 1080
S003,60,Mannelijk,Links,2,19,right,no,800,rightarrow,1117,true,focus,yes,393043,Firefox,108.0,macOS,10.15,undefined,undefined,1920 x 1080,1920 x 1080
S003,60,Mannelijk,Links,2,20,right,no,800,rightarrow,1215,true,focus,yes,395017,Firefox,108.0,macOS,10.15,undefined,undefined,1920 x 1080,1920 x 1080
S003,60,Mannelijk,Links,2,21,left,no,800,undefined,null,false,focus,yes,397037,Firefox,108.0,macOS,10.15,undefined,undefined,1920 x 1080,1920 x 1080
S003,60,Mannelijk,Links,2,22,left,yes,800,undefined,null,true,focus,yes,399050,Firefox,108.0,macOS,10.15,undefined,undefined,1920 x 1080,1920 x 1080
S003,60,Mannelijk,Links,2,23,right,yes,850,rightarrow,802,false,focus,yes,400614,Firefox,108.0,macOS,10.15,undefined,undefined,1920 x 1080,1920 x 1080
S003,60,Mannelijk,Links,2,24,right,no,800,undefined,null,false,focus,yes,402624,Firefox,108.0,macOS,10.15,undefined,undefined,1920 x 1080,1920 x 1080
S003,60,Mannelijk,Links,2,25,left,yes,800,undefined,null,true,focus,yes,404642,Firefox,108.0,macOS,10.15,undefined,undefined,1920 x 1080,1920 x 1080
S003,60,Mannelijk,Links,2,26,right,no,850,rightarrow,778,true,focus,yes,406183,Firefox,108.0,macOS,10.15,undefined,undefined,1920 x 1080,1920 x 1080
S003,60,Mannelijk,Links,2,27,right,no,850,undefined,null,false,focus,yes,408200,Firefox,108.0,macOS,10.15,undefined,undefined,1920 x 1080,1920 x 1080
S003,60,Mannelijk,Links,2,28,left,no,850,undefined,null,false,focus,yes,410215,Firefox,108.0,macOS,10.15,undefined,undefined,1920 x 1080,1920 x 1080
S003,60,Mannelijk,Links,2,29,left,no,850,leftarrow,920,true,focus,yes,411897,Firefox,108.0,macOS,10.15,undefined,undefined,1920 x 1080,1920 x 1080
S003,60,Mannelijk,Links,2,30,left,no,850,leftarrow,731,true,focus,yes,413391,Firefox,108.0,macOS,10.15,undefined,undefined,1920 x 1080,1920 x 1080
S003,60,Mannelijk,Links,2,31,right,yes,850,rightarrow,1125,false,focus,yes,415275,Firefox,108.0,macOS,10.15,undefined,undefined,1920 x 1080,1920 x 1080
S003,60,Mannelijk,Links,2,32,right,no,800,undefined,null,false,focus,yes,417293,Firefox,108.0,macOS,10.15,undefined,undefined,1920 x 1080,1920 x 1080
S003,60,Mannelijk,Links,2,33,right,no,800,undefined,null,false,focus,yes,419303,Firefox,108.0,macOS,10.15,undefined,undefined,1920 x 1080,1920 x 1080
S003,60,Mannelijk,Links,2,34,left,yes,800,leftarrow,1065,false,focus,yes,421127,Firefox,108.0,macOS,10.15,undefined,undefined,1920 x 1080,1920 x 1080
S003,60,Mannelijk,Links,2,35,left,no,750,leftarrow,755,true,focus,yes,422644,Firefox,108.0,macOS,10.15,undefined,undefined,1920 x 1080,1920 x 1080
S003,60,Mannelijk,Links,2,36,right,no,750,rightarrow,1237,true,focus,yes,424643,Firefox,108.0,macOS,10.15,undefined,undefined,1920 x 1080,1920 x 1080
S003,60,Mannelijk,Links,2,37,right,no,750,rightarrow,1195,true,focus,yes,426601,Firefox,108.0,macOS,10.15,undefined,undefined,1920 x 1080,1920 x 1080
S003,60,Mannelijk,Links,2,38,left,no,750,leftarrow,1066,true,focus,yes,428427,Firefox,108.0,macOS,10.15,undefined,undefined,1920 x 1080,1920 x 1080
S003,60,Mannelijk,Links,2,39,right,yes,750,rightarrow,920,false,focus,yes,430105,Firefox,108.0,macOS,10.15,undefined,undefined,1920 x 1080,1920 x 1080
S003,60,Mannelijk,Links,2,40,left,no,700,leftarrow,871,true,focus,yes,431738,Firefox,108.0,macOS,10.15,undefined,undefined,1920 x 1080,1920 x 1080
S003,60,Mannelijk,Links,2,41,right,no,700,undefined,null,false,focus,yes,433747,Firefox,108.0,macOS,10.15,undefined,undefined,1920 x 1080,1920 x 1080
S003,60,Mannelijk,Links,2,42,left,no,700,leftarrow,703,true,focus,yes,435211,Firefox,108.0,macOS,10.15,undefined,undefined,1920 x 1080,1920 x 1080
S003,60,Mannelijk,Links,2,43,left,no,700,leftarrow,639,true,focus,yes,436614,Firefox,108.0,macOS,10.15,undefined,undefined,1920 x 1080,1920 x 1080
S003,60,Mannelijk,Links,2,44,right,yes,700,rightarrow,645,false,focus,yes,438018,Firefox,108.0,macOS,10.15,undefined,undefined,1920 x 1080,1920 x 1080
S003,60,Mannelijk,Links,2,45,right,no,650,rightarrow,859,true,focus,yes,439637,Firefox,108.0,macOS,10.15,undefined,undefined,1920 x 1080,1920 x 1080
S003,60,Mannelijk,Links,2,46,right,no,650,rightarrow,804,true,focus,yes,441202,Firefox,108.0,macOS,10.15,undefined,undefined,1920 x 1080,1920 x 1080
S003,60,Mannelijk,Links,2,47,left,no,650,leftarrow,1095,true,focus,yes,443062,Firefox,108.0,macOS,10.15,undefined,undefined,1920 x 1080,1920 x 1080
S003,60,Mannelijk,Links,2,48,left,yes,650,undefined,null,true,focus,yes,445069,Firefox,108.0,macOS,10.15,undefined,undefined,1920 x 1080,1920 x 1080
S003,60,Mannelijk,Links,2,49,left,no,700,leftarrow,467,true,focus,yes,446295,Firefox,108.0,macOS,10.15,undefined,undefined,1920 x 1080,1920 x 1080
S003,60,Mannelijk,Links,2,50,right,no,700,rightarrow,1245,true,focus,yes,448303,Firefox,108.0,macOS,10.15,undefined,undefined,1920 x 1080,1920 x 1080
S003,60,Mannelijk,Links,2,51,right,no,700,rightarrow,938,true,focus,yes,450001,Firefox,108.0,macOS,10.15,undefined,undefined,1920 x 1080,1920 x 1080
S003,60,Mannelijk,Links,2,52,right,no,700,rightarrow,1184,true,focus,yes,451945,Firefox,108.0,macOS,10.15,undefined,undefined,1920 x 1080,1920 x 1080
S003,60,Mannelijk,Links,2,53,left,yes,700,leftarrow,1033,false,focus,yes,453742,Firefox,108.0,macOS,10.15,undefined,undefined,1920 x 1080,1920 x 1080
S003,60,Mannelijk,Links,2,54,right,yes,650,undefined,null,true,focus,yes,455757,Firefox,108.0,macOS,10.15,undefined,undefined,1920 x 1080,1920 x 1080
S003,60,Mannelijk,Links,2,55,left,no,700,leftarrow,550,true,focus,yes,457070,Firefox,108.0,macOS,10.15,undefined,undefined,1920 x 1080,1920 x 1080
S003,60,Mannelijk,Links,2,56,left,no,700,leftarrow,1053,true,focus,yes,458882,Firefox,108.0,macOS,10.15,undefined,undefined,1920 x 1080,1920 x 1080
S003,60,Mannelijk,Links,2,57,left,no,700,leftarrow,1074,true,focus,yes,460717,Firefox,108.0,macOS,10.15,undefined,undefined,1920 x 1080,1920 x 1080
S003,60,Mannelijk,Links,2,58,left,no,700,leftarrow,1152,true,focus,yes,462633,Firefox,108.0,macOS,10.15,undefined,undefined,1920 x 1080,1920 x 1080
S003,60,Mannelijk,Links,2,59,left,yes,700,leftarrow,959,false,focus,yes,464353,Firefox,108.0,macOS,10.15,undefined,undefined,1920 x 1080,1920 x 1080
S003,60,Mannelijk,Links,2,60,right,no,650,rightarrow,731,true,focus,yes,465847,Firefox,108.0,macOS,10.15,undefined,undefined,1920 x 1080,1920 x 1080
S003,60,Mannelijk,Links,2,61,right,no,650,rightarrow,1171,true,focus,yes,467783,Firefox,108.0,macOS,10.15,undefined,undefined,1920 x 1080,1920 x 1080
S003,60,Mannelijk,Links,2,62,right,no,650,rightarrow,947,true,focus,yes,469491,Firefox,108.0,macOS,10.15,undefined,undefined,1920 x 1080,1920 x 1080
S003,60,Mannelijk,Links,2,63,left,no,650,undefined,null,false,focus,yes,471503,Firefox,108.0,macOS,10.15,undefined,undefined,1920 x 1080,1920 x 1080
S003,60,Mannelijk,Links,2,64,right,yes,650,undefined,null,true,focus,yes,473520,Firefox,108.0,macOS,10.15,undefined,undefined,1920 x 1080,1920 x 1080
S003,60,Mannelijk,Links,2,65,left,no,700,leftarrow,596,true,focus,yes,474879,Firefox,108.0,macOS,10.15,undefined,undefined,1920 x 1080,1920 x 1080
S003,60,Mannelijk,Links,2,66,left,no,700,leftarrow,1226,true,focus,yes,476862,Firefox,108.0,macOS,10.15,undefined,undefined,1920 x 1080,1920 x 1080
S003,60,Mannelijk,Links,2,67,right,no,700,rightarrow,1199,true,focus,yes,478827,Firefox,108.0,macOS,10.15,undefined,undefined,1920 x 1080,1920 x 1080
S003,60,Mannelijk,Links,2,68,right,yes,700,undefined,null,true,focus,yes,480845,Firefox,108.0,macOS,10.15,undefined,undefined,1920 x 1080,1920 x 1080
S003,60,Mannelijk,Links,2,69,left,yes,750,undefined,null,true,focus,yes,482857,Firefox,108.0,macOS,10.15,undefined,undefined,1920 x 1080,1920 x 1080
S003,60,Mannelijk,Links,2,70,right,no,800,rightarrow,679,true,focus,yes,484294,Firefox,108.0,macOS,10.15,undefined,undefined,1920 x 1080,1920 x 1080
S003,60,Mannelijk,Links,2,71,right,no,800,rightarrow,948,true,focus,yes,486007,Firefox,108.0,macOS,10.15,undefined,undefined,1920 x 1080,1920 x 1080
S003,60,Mannelijk,Links,2,72,left,no,800,leftarrow,1041,true,focus,yes,487813,Firefox,108.0,macOS,10.15,undefined,undefined,1920 x 1080,1920 x 1080
S003,60,Mannelijk,Links,2,73,left,yes,800,leftarrow,869,false,focus,yes,489445,Firefox,108.0,macOS,10.15,undefined,undefined,1920 x 1080,1920 x 1080
S003,60,Mannelijk,Links,2,74,left,no,750,undefined,null,false,focus,yes,491463,Firefox,108.0,macOS,10.15,undefined,undefined,1920 x 1080,1920 x 1080
S003,60,Mannelijk,Links,2,75,left,no,750,leftarrow,1232,true,focus,yes,493458,Firefox,108.0,macOS,10.15,undefined,undefined,1920 x 1080,1920 x 1080
S003,60,Mannelijk,Links,2,76,left,no,750,leftarrow,1095,true,focus,yes,495313,Firefox,108.0,macOS,10.15,undefined,undefined,1920 x 1080,1920 x 1080
S003,60,Mannelijk,Links,2,77,right,no,750,rightarrow,789,true,focus,yes,496867,Firefox,108.0,macOS,10.15,undefined,undefined,1920 x 1080,1920 x 1080
S003,60,Mannelijk,Links,2,78,right,no,750,rightarrow,1019,true,focus,yes,498643,Firefox,108.0,macOS,10.15,undefined,undefined,1920 x 1080,1920 x 1080
S003,60,Mannelijk,Links,2,79,right,no,750,rightarrow,1005,true,focus,yes,500413,Firefox,108.0,macOS,10.15,undefined,undefined,1920 x 1080,1920 x 1080
S003,60,Mannelijk,Links,2,80,right,yes,750,rightarrow,942,false,focus,yes,502117,Firefox,108.0,macOS,10.15,undefined,undefined,1920 x 1080,1920 x 1080
S003,60,Mannelijk,Links,2,81,right,no,700,rightarrow,984,true,focus,yes,503859,Firefox,108.0,macOS,10.15,undefined,undefined,1920 x 1080,1920 x 1080
S003,60,Mannelijk,Links,2,82,right,no,700,rightarrow,1131,true,focus,yes,505752,Firefox,108.0,macOS,10.15,undefined,undefined,1920 x 1080,1920 x 1080
S003,60,Mannelijk,Links,2,83,left,no,700,leftarrow,865,true,focus,yes,507384,Firefox,108.0,macOS,10.15,undefined,undefined,1920 x 1080,1920 x 1080
S003,60,Mannelijk,Links,2,84,left,no,700,leftarrow,822,true,focus,yes,508970,Firefox,108.0,macOS,10.15,undefined,undefined,1920 x 1080,1920 x 1080
S003,60,Mannelijk,Links,2,85,right,yes,700,rightarrow,893,false,focus,yes,510628,Firefox,108.0,macOS,10.15,undefined,undefined,1920 x 1080,1920 x 1080
S003,60,Mannelijk,Links,2,86,right,no,650,rightarrow,1160,true,focus,yes,512552,Firefox,108.0,macOS,10.15,undefined,undefined,1920 x 1080,1920 x 1080
S003,60,Mannelijk,Links,2,87,left,no,650,leftarrow,919,true,focus,yes,514236,Firefox,108.0,macOS,10.15,undefined,undefined,1920 x 1080,1920 x 1080
S003,60,Mannelijk,Links,2,88,left,yes,650,undefined,null,true,focus,yes,516248,Firefox,108.0,macOS,10.15,undefined,undefined,1920 x 1080,1920 x 1080
S003,60,Mannelijk,Links,2,89,right,no,700,rightarrow,978,true,focus,yes,517985,Firefox,108.0,macOS,10.15,undefined,undefined,1920 x 1080,1920 x 1080
S003,60,Mannelijk,Links,2,90,left,no,700,leftarrow,764,true,focus,yes,519515,Firefox,108.0,macOS,10.15,undefined,undefined,1920 x 1080,1920 x 1080
S003,60,Mannelijk,Links,2,91,left,yes,700,undefined,null,true,focus,yes,521528,Firefox,108.0,macOS,10.15,undefined,undefined,1920 x 1080,1920 x 1080
S003,60,Mannelijk,Links,2,92,left,no,750,leftarrow,760,true,focus,yes,523049,Firefox,108.0,macOS,10.15,undefined,undefined,1920 x 1080,1920 x 1080
S003,60,Mannelijk,Links,2,93,right,yes,750,rightarrow,584,false,focus,yes,524394,Firefox,108.0,macOS,10.15,undefined,undefined,1920 x 1080,1920 x 1080
S003,60,Mannelijk,Links,2,94,right,no,700,rightarrow,1160,true,focus,yes,526317,Firefox,108.0,macOS,10.15,undefined,undefined,1920 x 1080,1920 x 1080
S003,60,Mannelijk,Links,2,95,right,no,700,rightarrow,1100,true,focus,yes,528181,Firefox,108.0,macOS,10.15,undefined,undefined,1920 x 1080,1920 x 1080
S003,60,Mannelijk,Links,2,96,left,no,700,leftarrow,972,true,focus,yes,529917,Firefox,108.0,macOS,10.15,undefined,undefined,1920 x 1080,1920 x 1080
S003,60,Mannelijk,Links,2,97,right,no,700,rightarrow,853,true,focus,yes,531529,Firefox,108.0,macOS,10.15,undefined,undefined,1920 x 1080,1920 x 1080
S003,60,Mannelijk,Links,2,98,left,yes,700,undefined,null,true,focus,yes,533545,Firefox,108.0,macOS,10.15,undefined,undefined,1920 x 1080,1920 x 1080
S003,60,Mannelijk,Links,2,99,right,yes,750,undefined,null,true,focus,yes,535557,Firefox,108.0,macOS,10.15,undefined,undefined,1920 x 1080,1920 x 1080
S003,60,Mannelijk,Links,2,100,left,no,800,leftarrow,630,true,focus,yes,536952,Firefox,108.0,macOS,10.15,undefined,undefined,1920 x 1080,1920 x 1080
S003,60,Mannelijk,Links,2,101,right,no,800,rightarrow,1028,true,focus,yes,538739,Firefox,108.0,macOS,10.15,undefined,undefined,1920 x 1080,1920 x 1080
S003,60,Mannelijk,Links,2,102,right,no,800,rightarrow,1125,true,focus,yes,540627,Firefox,108.0,macOS,10.15,undefined,undefined,1920 x 1080,1920 x 1080
S003,60,Mannelijk,Links,2,103,left,no,800,leftarrow,1204,true,focus,yes,542594,Firefox,108.0,macOS,10.15,undefined,undefined,1920 x 1080,1920 x 1080
S003,60,Mannelijk,Links,2,104,left,no,800,leftarrow,751,true,focus,yes,544112,Firefox,108.0,macOS,10.15,undefined,undefined,1920 x 1080,1920 x 1080
S003,60,Mannelijk,Links,2,105,left,no,800,undefined,null,false,focus,yes,546125,Firefox,108.0,macOS,10.15,undefined,undefined,1920 x 1080,1920 x 1080
S003,60,Mannelijk,Links,2,106,left,no,800,undefined,null,false,focus,yes,548141,Firefox,108.0,macOS,10.15,undefined,undefined,1920 x 1080,1920 x 1080
S003,60,Mannelijk,Links,2,107,right,no,800,rightarrow,1143,true,focus,yes,550047,Firefox,108.0,macOS,10.15,undefined,undefined,1920 x 1080,1920 x 1080
S003,60,Mannelijk,Links,2,108,left,no,800,leftarrow,1068,true,focus,yes,551882,Firefox,108.0,macOS,10.15,undefined,undefined,1920 x 1080,1920 x 1080
S003,60,Mannelijk,Links,2,109,left,yes,800,undefined,null,true,focus,yes,553900,Firefox,108.0,macOS,10.15,undefined,undefined,1920 x 1080,1920 x 1080
S003,60,Mannelijk,Links,2,110,right,no,850,rightarrow,1055,true,focus,yes,555716,Firefox,108.0,macOS,10.15,undefined,undefined,1920 x 1080,1920 x 1080
S003,60,Mannelijk,Links,2,111,right,no,850,rightarrow,1157,true,focus,yes,557639,Firefox,108.0,macOS,10.15,undefined,undefined,1920 x 1080,1920 x 1080
S003,60,Mannelijk,Links,2,112,right,yes,850,undefined,null,true,focus,yes,559657,Firefox,108.0,macOS,10.15,undefined,undefined,1920 x 1080,1920 x 1080
S003,60,Mannelijk,Links,2,113,left,no,900,leftarrow,707,true,focus,yes,561126,Firefox,108.0,macOS,10.15,undefined,undefined,1920 x 1080,1920 x 1080
S003,60,Mannelijk,Links,2,114,right,no,900,rightarrow,1053,true,focus,yes,562940,Firefox,108.0,macOS,10.15,undefined,undefined,1920 x 1080,1920 x 1080
S003,60,Mannelijk,Links,2,115,right,no,900,rightarrow,1032,true,focus,yes,564735,Firefox,108.0,macOS,10.15,undefined,undefined,1920 x 1080,1920 x 1080
S003,60,Mannelijk,Links,2,116,right,no,900,rightarrow,1161,true,focus,yes,566662,Firefox,108.0,macOS,10.15,undefined,undefined,1920 x 1080,1920 x 1080
S003,60,Mannelijk,Links,2,117,right,yes,900,undefined,null,true,focus,yes,568674,Firefox,108.0,macOS,10.15,undefined,undefined,1920 x 1080,1920 x 1080
S003,60,Mannelijk,Links,2,118,left,no,950,leftarrow,506,true,focus,yes,569941,Firefox,108.0,macOS,10.15,undefined,undefined,1920 x 1080,1920 x 1080
S003,60,Mannelijk,Links,2,119,left,no,950,leftarrow,968,true,focus,yes,571673,Firefox,108.0,macOS,10.15,undefined,undefined,1920 x 1080,1920 x 1080
S003,60,Mannelijk,Links,2,120,left,yes,950,leftarrow,1085,false,focus,yes,573524,Firefox,108.0,macOS,10.15,undefined,undefined,1920 x 1080,1920 x 1080
S003,60,Mannelijk,Links,2,121,left,no,900,undefined,null,false,focus,yes,575539,Firefox,108.0,macOS,10.15,undefined,undefined,1920 x 1080,1920 x 1080
S003,60,Mannelijk,Links,2,122,right,yes,900,rightarrow,727,false,focus,yes,577033,Firefox,108.0,macOS,10.15,undefined,undefined,1920 x 1080,1920 x 1080
S003,60,Mannelijk,Links,2,123,left,no,850,leftarrow,1232,true,focus,yes,579031,Firefox,108.0,macOS,10.15,undefined,undefined,1920 x 1080,1920 x 1080
S003,60,Mannelijk,Links,2,124,left,no,850,leftarrow,1238,true,focus,yes,581031,Firefox,108.0,macOS,10.15,undefined,undefined,1920 x 1080,1920 x 1080
S003,60,Mannelijk,Links,2,125,right,no,850,rightarrow,922,true,focus,yes,582714,Firefox,108.0,macOS,10.15,undefined,undefined,1920 x 1080,1920 x 1080
S003,60,Mannelijk,Links,2,126,right,no,850,rightarrow,1068,true,focus,yes,584541,Firefox,108.0,macOS,10.15,undefined,undefined,1920 x 1080,1920 x 1080
S003,60,Mannelijk,Links,2,127,right,no,850,rightarrow,1090,true,focus,yes,586389,Firefox,108.0,macOS,10.15,undefined,undefined,1920 x 1080,1920 x 1080
S003,60,Mannelijk,Links,2,128,left,yes,850,leftarrow,909,false,focus,yes,588060,Firefox,108.0,macOS,10.15,undefined,undefined,1920 x 1080,1920 x 1080
S003,60,Mannelijk,Links,3,1,left,no,800,leftarrow,878,true,focus,yes,611826,Firefox,108.0,macOS,10.15,undefined,undefined,1920 x 1080,1920 x 1080
S003,60,Mannelijk,Links,3,2,left,yes,800,leftarrow,926,false,focus,yes,613511,Firefox,108.0,macOS,10.15,undefined,undefined,1920 x 1080,1920 x 1080
S003,60,Mannelijk,Links,3,3,left,no,750,leftarrow,835,true,focus,yes,615109,Firefox,108.0,macOS,10.15,undefined,undefined,1920 x 1080,1920 x 1080
S003,60,Mannelijk,Links,3,4,right,no,750,rightarrow,599,true,focus,yes,616468,Firefox,108.0,macOS,10.15,undefined,undefined,1920 x 1080,1920 x 1080
S003,60,Mannelijk,Links,3,5,right,yes,750,rightarrow,526,false,focus,yes,617760,Firefox,108.0,macOS,10.15,undefined,undefined,1920 x 1080,1920 x 1080
S003,60,Mannelijk,Links,3,6,right,no,700,rightarrow,1008,true,focus,yes,619534,Firefox,108.0,macOS,10.15,undefined,undefined,1920 x 1080,1920 x 1080
S003,60,Mannelijk,Links,3,7,right,no,700,rightarrow,718,true,focus,yes,621011,Firefox,108.0,macOS,10.15,undefined,undefined,1920 x 1080,1920 x 1080
S003,60,Mannelijk,Links,3,8,left,no,700,leftarrow,954,true,focus,yes,622727,Firefox,108.0,macOS,10.15,undefined,undefined,1920 x 1080,1920 x 1080
S003,60,Mannelijk,Links,3,9,left,no,700,leftarrow,1032,true,focus,yes,624518,Firefox,108.0,macOS,10.15,undefined,undefined,1920 x 1080,1920 x 1080
S003,60,Mannelijk,Links,3,10,right,yes,700,rightarrow,663,false,focus,yes,625947,Firefox,108.0,macOS,10.15,undefined,undefined,1920 x 1080,1920 x 1080
S003,60,Mannelijk,Links,3,11,right,no,650,rightarrow,1041,true,focus,yes,627755,Firefox,108.0,macOS,10.15,undefined,undefined,1920 x 1080,1920 x 1080
S003,60,Mannelijk,Links,3,12,left,yes,650,undefined,null,true,focus,yes,629776,Firefox,108.0,macOS,10.15,undefined,undefined,1920 x 1080,1920 x 1080
S003,60,Mannelijk,Links,3,13,left,no,700,leftarrow,633,true,focus,yes,631175,Firefox,108.0,macOS,10.15,undefined,undefined,1920 x 1080,1920 x 1080
S003,60,Mannelijk,Links,3,14,right,no,700,rightarrow,862,true,focus,yes,632796,Firefox,108.0,macOS,10.15,undefined,undefined,1920 x 1080,1920 x 1080
S003,60,Mannelijk,Links,3,15,left,no,700,leftarrow,836,true,focus,yes,634399,Firefox,108.0,macOS,10.15,undefined,undefined,1920 x 1080,1920 x 1080
S003,60,Mannelijk,Links,3,16,right,no,700,rightarrow,890,true,focus,yes,636053,Firefox,108.0,macOS,10.15,undefined,undefined,1920 x 1080,1920 x 1080
S003,60,Mannelijk,Links,3,17,right,no,700,rightarrow,997,true,focus,yes,637811,Firefox,108.0,macOS,10.15,undefined,undefined,1920 x 1080,1920 x 1080
S003,60,Mannelijk,Links,3,18,right,no,700,rightarrow,791,true,focus,yes,639367,Firefox,108.0,macOS,10.15,undefined,undefined,1920 x 1080,1920 x 1080
S003,60,Mannelijk,Links,3,19,left,no,700,leftarrow,1056,true,focus,yes,641189,Firefox,108.0,macOS,10.15,undefined,undefined,1920 x 1080,1920 x 1080
S003,60,Mannelijk,Links,3,20,left,yes,700,undefined,null,true,focus,yes,643204,Firefox,108.0,macOS,10.15,undefined,undefined,1920 x 1080,1920 x 1080
S003,60,Mannelijk,Links,3,21,right,yes,750,rightarrow,548,false,focus,yes,644514,Firefox,108.0,macOS,10.15,undefined,undefined,1920 x 1080,1920 x 1080
S003,60,Mannelijk,Links,3,22,left,no,700,leftarrow,940,true,focus,yes,646217,Firefox,108.0,macOS,10.15,undefined,undefined,1920 x 1080,1920 x 1080
S003,60,Mannelijk,Links,3,23,left,no,700,leftarrow,902,true,focus,yes,647880,Firefox,108.0,macOS,10.15,undefined,undefined,1920 x 1080,1920 x 1080
S003,60,Mannelijk,Links,3,24,right,no,700,rightarrow,854,true,focus,yes,649496,Firefox,108.0,macOS,10.15,undefined,undefined,1920 x 1080,1920 x 1080
S003,60,Mannelijk,Links,3,25,right,no,700,rightarrow,845,true,focus,yes,651103,Firefox,108.0,macOS,10.15,undefined,undefined,1920 x 1080,1920 x 1080
S003,60,Mannelijk,Links,3,26,left,no,700,leftarrow,1052,true,focus,yes,652921,Firefox,108.0,macOS,10.15,undefined,undefined,1920 x 1080,1920 x 1080
S003,60,Mannelijk,Links,3,27,left,yes,700,undefined,null,true,focus,yes,654935,Firefox,108.0,macOS,10.15,undefined,undefined,1920 x 1080,1920 x 1080
S003,60,Mannelijk,Links,3,28,left,no,750,leftarrow,748,true,focus,yes,656440,Firefox,108.0,macOS,10.15,undefined,undefined,1920 x 1080,1920 x 1080
S003,60,Mannelijk,Links,3,29,right,no,750,rightarrow,807,true,focus,yes,658010,Firefox,108.0,macOS,10.15,undefined,undefined,1920 x 1080,1920 x 1080
S003,60,Mannelijk,Links,3,30,right,no,750,rightarrow,1076,true,focus,yes,659848,Firefox,108.0,macOS,10.15,undefined,undefined,1920 x 1080,1920 x 1080
S003,60,Mannelijk,Links,3,31,right,yes,750,rightarrow,873,false,focus,yes,661485,Firefox,108.0,macOS,10.15,undefined,undefined,1920 x 1080,1920 x 1080
S003,60,Mannelijk,Links,3,32,left,no,700,leftarrow,674,true,focus,yes,662925,Firefox,108.0,macOS,10.15,undefined,undefined,1920 x 1080,1920 x 1080
S003,60,Mannelijk,Links,3,33,right,no,700,rightarrow,779,true,focus,yes,664465,Firefox,108.0,macOS,10.15,undefined,undefined,1920 x 1080,1920 x 1080
S003,60,Mannelijk,Links,3,34,left,yes,700,leftarrow,867,false,focus,yes,666096,Firefox,108.0,macOS,10.15,undefined,undefined,1920 x 1080,1920 x 1080
S003,60,Mannelijk,Links,3,35,right,no,650,rightarrow,637,true,focus,yes,667498,Firefox,108.0,macOS,10.15,undefined,undefined,1920 x 1080,1920 x 1080
S003,60,Mannelijk,Links,3,36,left,no,650,leftarrow,423,true,focus,yes,668685,Firefox,108.0,macOS,10.15,undefined,undefined,1920 x 1080,1920 x 1080
S003,60,Mannelijk,Links,3,37,right,no,650,rightarrow,398,true,focus,yes,669849,Firefox,108.0,macOS,10.15,undefined,undefined,1920 x 1080,1920 x 1080
S003,60,Mannelijk,Links,3,38,left,no,650,leftarrow,383,true,focus,yes,670994,Firefox,108.0,macOS,10.15,undefined,undefined,1920 x 1080,1920 x 1080
S003,60,Mannelijk,Links,3,39,right,yes,650,rightarrow,374,false,focus,yes,672131,Firefox,108.0,macOS,10.15,undefined,undefined,1920 x 1080,1920 x 1080
S003,60,Mannelijk,Links,3,40,left,no,600,leftarrow,438,true,focus,yes,673331,Firefox,108.0,macOS,10.15,undefined,undefined,1920 x 1080,1920 x 1080
S003,60,Mannelijk,Links,3,41,right,yes,600,rightarrow,360,false,focus,yes,674453,Firefox,108.0,macOS,10.15,undefined,undefined,1920 x 1080,1920 x 1080
S003,60,Mannelijk,Links,3,42,right,no,550,leftarrow,507,false,focus,yes,675720,Firefox,108.0,macOS,10.15,undefined,undefined,1920 x 1080,1920 x 1080
S003,60,Mannelijk,Links,3,43,left,no,550,leftarrow,574,true,focus,yes,677056,Firefox,108.0,macOS,10.15,undefined,undefined,1920 x 1080,1920 x 1080
S003,60,Mannelijk,Links,3,44,left,yes,550,leftarrow,553,false,focus,yes,678372,Firefox,108.0,macOS,10.15,undefined,undefined,1920 x 1080,1920 x 1080
S003,60,Mannelijk,Links,3,45,right,no,500,rightarrow,459,true,focus,yes,679593,Firefox,108.0,macOS,10.15,undefined,undefined,1920 x 1080,1920 x 1080
S003,60,Mannelijk,Links,3,46,right,no,500,rightarrow,543,true,focus,yes,680901,Firefox,108.0,macOS,10.15,undefined,undefined,1920 x 1080,1920 x 1080
S003,60,Mannelijk,Links,3,47,left,no,500,leftarrow,427,true,focus,yes,682090,Firefox,108.0,macOS,10.15,undefined,undefined,1920 x 1080,1920 x 1080
S003,60,Mannelijk,Links,3,48,left,no,500,leftarrow,643,true,focus,yes,683493,Firefox,108.0,macOS,10.15,undefined,undefined,1920 x 1080,1920 x 1080
S003,60,Mannelijk,Links,3,49,right,yes,500,rightarrow,521,false,focus,yes,684775,Firefox,108.0,macOS,10.15,undefined,undefined,1920 x 1080,1920 x 1080
S003,60,Mannelijk,Links,3,50,right,no,450,rightarrow,561,true,focus,yes,686097,Firefox,108.0,macOS,10.15,undefined,undefined,1920 x 1080,1920 x 1080
S003,60,Mannelijk,Links,3,51,right,no,450,rightarrow,498,true,focus,yes,687361,Firefox,108.0,macOS,10.15,undefined,undefined,1920 x 1080,1920 x 1080
S003,60,Mannelijk,Links,3,52,left,yes,450,leftarrow,610,false,focus,yes,688736,Firefox,108.0,macOS,10.15,undefined,undefined,1920 x 1080,1920 x 1080
S003,60,Mannelijk,Links,3,53,left,no,400,leftarrow,964,true,focus,yes,690467,Firefox,108.0,macOS,10.15,undefined,undefined,1920 x 1080,1920 x 1080
S003,60,Mannelijk,Links,3,54,left,no,400,leftarrow,1001,true,focus,yes,692233,Firefox,108.0,macOS,10.15,undefined,undefined,1920 x 1080,1920 x 1080
S003,60,Mannelijk,Links,3,55,left,no,400,leftarrow,936,true,focus,yes,693934,Firefox,108.0,macOS,10.15,undefined,undefined,1920 x 1080,1920 x 1080
S003,60,Mannelijk,Links,3,56,right,no,400,rightarrow,866,true,focus,yes,695564,Firefox,108.0,macOS,10.15,undefined,undefined,1920 x 1080,1920 x 1080
S003,60,Mannelijk,Links,3,57,left,no,400,leftarrow,738,true,focus,yes,697069,Firefox,108.0,macOS,10.15,undefined,undefined,1920 x 1080,1920 x 1080
S003,60,Mannelijk,Links,3,58,left,no,400,leftarrow,883,true,focus,yes,698712,Firefox,108.0,macOS,10.15,undefined,undefined,1920 x 1080,1920 x 1080
S003,60,Mannelijk,Links,3,59,right,no,400,rightarrow,566,true,focus,yes,700043,Firefox,108.0,macOS,10.15,undefined,undefined,1920 x 1080,1920 x 1080
S003,60,Mannelijk,Links,3,60,left,no,400,leftarrow,553,true,focus,yes,701359,Firefox,108.0,macOS,10.15,undefined,undefined,1920 x 1080,1920 x 1080
S003,60,Mannelijk,Links,3,61,right,no,400,rightarrow,939,true,focus,yes,703064,Firefox,108.0,macOS,10.15,undefined,undefined,1920 x 1080,1920 x 1080
S003,60,Mannelijk,Links,3,62,right,no,400,rightarrow,1037,true,focus,yes,704867,Firefox,108.0,macOS,10.15,undefined,undefined,1920 x 1080,1920 x 1080
S003,60,Mannelijk,Links,3,63,left,yes,400,undefined,null,true,focus,yes,706879,Firefox,108.0,macOS,10.15,undefined,undefined,1920 x 1080,1920 x 1080
S003,60,Mannelijk,Links,3,64,right,yes,450,rightarrow,608,false,focus,yes,708255,Firefox,108.0,macOS,10.15,undefined,undefined,1920 x 1080,1920 x 1080
S003,60,Mannelijk,Links,3,65,left,no,400,leftarrow,539,true,focus,yes,709556,Firefox,108.0,macOS,10.15,undefined,undefined,1920 x 1080,1920 x 1080
S003,60,Mannelijk,Links,3,66,left,yes,400,undefined,null,true,focus,yes,711573,Firefox,108.0,macOS,10.15,undefined,undefined,1920 x 1080,1920 x 1080
S003,60,Mannelijk,Links,3,67,right,no,450,rightarrow,497,true,focus,yes,712833,Firefox,108.0,macOS,10.15,undefined,undefined,1920 x 1080,1920 x 1080
S003,60,Mannelijk,Links,3,68,left,no,450,leftarrow,667,true,focus,yes,714259,Firefox,108.0,macOS,10.15,undefined,undefined,1920 x 1080,1920 x 1080
S003,60,Mannelijk,Links,3,69,right,no,450,rightarrow,843,true,focus,yes,715863,Firefox,108.0,macOS,10.15,undefined,undefined,1920 x 1080,1920 x 1080
S003,60,Mannelijk,Links,3,70,left,no,450,leftarrow,1069,true,focus,yes,717692,Firefox,108.0,macOS,10.15,undefined,undefined,1920 x 1080,1920 x 1080
S003,60,Mannelijk,Links,3,71,right,no,450,rightarrow,1028,true,focus,yes,719486,Firefox,108.0,macOS,10.15,undefined,undefined,1920 x 1080,1920 x 1080
S003,60,Mannelijk,Links,3,72,right,yes,450,rightarrow,609,false,focus,yes,720860,Firefox,108.0,macOS,10.15,undefined,undefined,1920 x 1080,1920 x 1080
S003,60,Mannelijk,Links,3,73,left,yes,400,leftarrow,640,false,focus,yes,722263,Firefox,108.0,macOS,10.15,undefined,undefined,1920 x 1080,1920 x 1080
S003,60,Mannelijk,Links,3,74,left,no,350,leftarrow,894,true,focus,yes,723919,Firefox,108.0,macOS,10.15,undefined,undefined,1920 x 1080,1920 x 1080
S003,60,Mannelijk,Links,3,75,right,no,350,rightarrow,587,true,focus,yes,725265,Firefox,108.0,macOS,10.15,undefined,undefined,1920 x 1080,1920 x 1080
S003,60,Mannelijk,Links,3,76,left,no,350,leftarrow,804,true,focus,yes,726833,Firefox,108.0,macOS,10.15,undefined,undefined,1920 x 1080,1920 x 1080
S003,60,Mannelijk,Links,3,77,right,yes,350,rightarrow,511,false,focus,yes,728105,Firefox,108.0,macOS,10.15,undefined,undefined,1920 x 1080,1920 x 1080
S003,60,Mannelijk,Links,3,78,left,no,300,leftarrow,724,true,focus,yes,729591,Firefox,108.0,macOS,10.15,undefined,undefined,1920 x 1080,1920 x 1080
S003,60,Mannelijk,Links,3,79,right,no,300,rightarrow,376,true,focus,yes,730734,Firefox,108.0,macOS,10.15,undefined,undefined,1920 x 1080,1920 x 1080
S003,60,Mannelijk,Links,3,80,right,no,300,rightarrow,813,true,focus,yes,732315,Firefox,108.0,macOS,10.15,undefined,undefined,1920 x 1080,1920 x 1080
S003,60,Mannelijk,Links,3,81,left,no,300,leftarrow,798,true,focus,yes,733875,Firefox,108.0,macOS,10.15,undefined,undefined,1920 x 1080,1920 x 1080
S003,60,Mannelijk,Links,3,82,left,no,300,leftarrow,757,true,focus,yes,735398,Firefox,108.0,macOS,10.15,undefined,undefined,1920 x 1080,1920 x 1080
S003,60,Mannelijk,Links,3,83,right,no,300,rightarrow,842,true,focus,yes,737006,Firefox,108.0,macOS,10.15,undefined,undefined,1920 x 1080,1920 x 1080
S003,60,Mannelijk,Links,3,84,left,no,300,leftarrow,785,true,focus,yes,738556,Firefox,108.0,macOS,10.15,undefined,undefined,1920 x 1080,1920 x 1080
S003,60,Mannelijk,Links,3,85,left,yes,300,undefined,null,true,focus,yes,740576,Firefox,108.0,macOS,10.15,undefined,undefined,1920 x 1080,1920 x 1080
S003,60,Mannelijk,Links,3,86,right,no,350,rightarrow,509,true,focus,yes,741850,Firefox,108.0,macOS,10.15,undefined,undefined,1920 x 1080,1920 x 1080
S003,60,Mannelijk,Links,3,87,right,yes,350,undefined,null,true,focus,yes,743872,Firefox,108.0,macOS,10.15,undefined,undefined,1920 x 1080,1920 x 1080
S003,60,Mannelijk,Links,3,88,right,no,400,rightarrow,480,true,focus,yes,745120,Firefox,108.0,macOS,10.15,undefined,undefined,1920 x 1080,1920 x 1080
S003,60,Mannelijk,Links,3,89,right,no,400,rightarrow,710,true,focus,yes,746597,Firefox,108.0,macOS,10.15,undefined,undefined,1920 x 1080,1920 x 1080
S003,60,Mannelijk,Links,3,90,right,no,400,rightarrow,680,true,focus,yes,748038,Firefox,108.0,macOS,10.15,undefined,undefined,1920 x 1080,1920 x 1080
S003,60,Mannelijk,Links,3,91,right,yes,400,undefined,null,true,focus,yes,750056,Firefox,108.0,macOS,10.15,undefined,undefined,1920 x 1080,1920 x 1080
S003,60,Mannelijk,Links,3,92,left,yes,450,leftarrow,465,false,focus,yes,751285,Firefox,108.0,macOS,10.15,undefined,undefined,1920 x 1080,1920 x 1080
S003,60,Mannelijk,Links,3,93,left,no,400,leftarrow,545,true,focus,yes,752597,Firefox,108.0,macOS,10.15,undefined,undefined,1920 x 1080,1920 x 1080
S003,60,Mannelijk,Links,3,94,left,no,400,leftarrow,899,true,focus,yes,754261,Firefox,108.0,macOS,10.15,undefined,undefined,1920 x 1080,1920 x 1080
S003,60,Mannelijk,Links,3,95,right,no,400,rightarrow,942,true,focus,yes,755970,Firefox,108.0,macOS,10.15,undefined,undefined,1920 x 1080,1920 x 1080
S003,60,Mannelijk,Links,3,96,left,no,400,leftarrow,706,true,focus,yes,757437,Firefox,108.0,macOS,10.15,undefined,undefined,1920 x 1080,1920 x 1080
S003,60,Mannelijk,Links,3,97,right,no,400,rightarrow,755,true,focus,yes,758959,Firefox,108.0,macOS,10.15,undefined,undefined,1920 x 1080,1920 x 1080
S003,60,Mannelijk,Links,3,98,left,no,400,leftarrow,1025,true,focus,yes,760748,Firefox,108.0,macOS,10.15,undefined,undefined,1920 x 1080,1920 x 1080
S003,60,Mannelijk,Links,3,99,left,no,400,leftarrow,809,true,focus,yes,762322,Firefox,108.0,macOS,10.15,undefined,undefined,1920 x 1080,1920 x 1080
S003,60,Mannelijk,Links,3,100,right,yes,400,undefined,null,true,focus,yes,764338,Firefox,108.0,macOS,10.15,undefined,undefined,1920 x 1080,1920 x 1080
S003,60,Mannelijk,Links,3,101,right,no,450,rightarrow,445,true,focus,yes,765551,Firefox,108.0,macOS,10.15,undefined,undefined,1920 x 1080,1920 x 1080
S003,60,Mannelijk,Links,3,102,left,no,450,leftarrow,451,true,focus,yes,766764,Firefox,108.0,macOS,10.15,undefined,undefined,1920 x 1080,1920 x 1080
S003,60,Mannelijk,Links,3,103,left,yes,450,undefined,null,true,focus,yes,768786,Firefox,108.0,macOS,10.15,undefined,undefined,1920 x 1080,1920 x 1080
S003,60,Mannelijk,Links,3,104,right,no,500,rightarrow,751,true,focus,yes,770300,Firefox,108.0,macOS,10.15,undefined,undefined,1920 x 1080,1920 x 1080
S003,60,Mannelijk,Links,3,105,right,no,500,rightarrow,884,true,focus,yes,771949,Firefox,108.0,macOS,10.15,undefined,undefined,1920 x 1080,1920 x 1080
S003,60,Mannelijk,Links,3,106,right,yes,500,undefined,null,true,focus,yes,773960,Firefox,108.0,macOS,10.15,undefined,undefined,1920 x 1080,1920 x 1080
S003,60,Mannelijk,Links,3,107,left,no,550,leftarrow,613,true,focus,yes,775335,Firefox,108.0,macOS,10.15,undefined,undefined,1920 x 1080,1920 x 1080
S003,60,Mannelijk,Links,3,108,right,no,550,rightarrow,691,true,focus,yes,776787,Firefox,108.0,macOS,10.15,undefined,undefined,1920 x 1080,1920 x 1080
S003,60,Mannelijk,Links,3,109,left,no,550,leftarrow,887,true,focus,yes,778441,Firefox,108.0,macOS,10.15,undefined,undefined,1920 x 1080,1920 x 1080
S003,60,Mannelijk,Links,3,110,left,no,550,leftarrow,1041,true,focus,yes,780249,Firefox,108.0,macOS,10.15,undefined,undefined,1920 x 1080,1920 x 1080
S003,60,Mannelijk,Links,3,111,right,no,550,rightarrow,1040,true,focus,yes,782055,Firefox,108.0,macOS,10.15,undefined,undefined,1920 x 1080,1920 x 1080
S003,60,Mannelijk,Links,3,112,left,yes,550,undefined,null,true,focus,yes,784071,Firefox,108.0,macOS,10.15,undefined,undefined,1920 x 1080,1920 x 1080
S003,60,Mannelijk,Links,3,113,left,yes,600,leftarrow,754,false,focus,yes,785586,Firefox,108.0,macOS,10.15,undefined,undefined,1920 x 1080,1920 x 1080
S003,60,Mannelijk,Links,3,114,left,no,550,leftarrow,661,true,focus,yes,787014,Firefox,108.0,macOS,10.15,undefined,undefined,1920 x 1080,1920 x 1080
S003,60,Mannelijk,Links,3,115,right,no,550,rightarrow,887,true,focus,yes,788664,Firefox,108.0,macOS,10.15,undefined,undefined,1920 x 1080,1920 x 1080
S003,60,Mannelijk,Links,3,116,right,no,550,rightarrow,1054,true,focus,yes,790480,Firefox,108.0,macOS,10.15,undefined,undefined,1920 x 1080,1920 x 1080
S003,60,Mannelijk,Links,3,117,left,no,550,undefined,null,false,focus,yes,792495,Firefox,108.0,macOS,10.15,undefined,undefined,1920 x 1080,1920 x 1080
S003,60,Mannelijk,Links,3,118,right,no,550,rightarrow,824,true,focus,yes,794076,Firefox,108.0,macOS,10.15,undefined,undefined,1920 x 1080,1920 x 1080
S003,60,Mannelijk,Links,3,119,right,yes,550,undefined,null,true,focus,yes,796098,Firefox,108.0,macOS,10.15,undefined,undefined,1920 x 1080,1920 x 1080
S003,60,Mannelijk,Links,3,120,left,no,600,leftarrow,621,true,focus,yes,797485,Firefox,108.0,macOS,10.15,undefined,undefined,1920 x 1080,1920 x 1080
S003,60,Mannelijk,Links,3,121,left,no,600,leftarrow,795,true,focus,yes,799046,Firefox,108.0,macOS,10.15,undefined,undefined,1920 x 1080,1920 x 1080
S003,60,Mannelijk,Links,3,122,right,no,600,rightarrow,787,true,focus,yes,800594,Firefox,108.0,macOS,10.15,undefined,undefined,1920 x 1080,1920 x 1080
S003,60,Mannelijk,Links,3,123,right,no,600,rightarrow,867,true,focus,yes,802224,Firefox,108.0,macOS,10.15,undefined,undefined,1920 x 1080,1920 x 1080
S003,60,Mannelijk,Links,3,124,left,no,600,leftarrow,829,true,focus,yes,803818,Firefox,108.0,macOS,10.15,undefined,undefined,1920 x 1080,1920 x 1080
S003,60,Mannelijk,Links,3,125,left,yes,600,leftarrow,777,false,focus,yes,805361,Firefox,108.0,macOS,10.15,undefined,undefined,1920 x 1080,1920 x 1080
S003,60,Mannelijk,Links,3,126,right,no,550,rightarrow,610,true,focus,yes,806736,Firefox,108.0,macOS,10.15,undefined,undefined,1920 x 1080,1920 x 1080
S003,60,Mannelijk,Links,3,127,left,no,550,leftarrow,1034,true,focus,yes,808532,Firefox,108.0,macOS,10.15,undefined,undefined,1920 x 1080,1920 x 1080
S003,60,Mannelijk,Links,3,128,right,yes,550,rightarrow,551,false,focus,yes,809848,Firefox,108.0,macOS,10.15,undefined,undefined,1920 x 1080,1920 x 1080
S003,60,Mannelijk,Links,4,1,left,yes,500,undefined,null,true,focus,yes,833419,Firefox,108.0,macOS,10.15,undefined,undefined,1920 x 1080,1920 x 1080
S003,60,Mannelijk,Links,4,2,right,no,550,rightarrow,663,true,focus,yes,834849,Firefox,108.0,macOS,10.15,undefined,undefined,1920 x 1080,1920 x 1080
S003,60,Mannelijk,Links,4,3,left,no,550,leftarrow,819,true,focus,yes,836431,Firefox,108.0,macOS,10.15,undefined,undefined,1920 x 1080,1920 x 1080
S003,60,Mannelijk,Links,4,4,right,yes,550,undefined,null,true,focus,yes,838449,Firefox,108.0,macOS,10.15,undefined,undefined,1920 x 1080,1920 x 1080
S003,60,Mannelijk,Links,4,5,left,no,600,leftarrow,622,true,focus,yes,839834,Firefox,108.0,macOS,10.15,undefined,undefined,1920 x 1080,1920 x 1080
S003,60,Mannelijk,Links,4,6,right,no,600,rightarrow,674,true,focus,yes,841275,Firefox,108.0,macOS,10.15,undefined,undefined,1920 x 1080,1920 x 1080
S003,60,Mannelijk,Links,4,7,left,no,600,leftarrow,983,true,focus,yes,843020,Firefox,108.0,macOS,10.15,undefined,undefined,1920 x 1080,1920 x 1080
S003,60,Mannelijk,Links,4,8,right,no,600,rightarrow,974,true,focus,yes,844757,Firefox,108.0,macOS,10.15,undefined,undefined,1920 x 1080,1920 x 1080
S003,60,Mannelijk,Links,4,9,right,no,600,rightarrow,1039,true,focus,yes,846560,Firefox,108.0,macOS,10.15,undefined,undefined,1920 x 1080,1920 x 1080
S003,60,Mannelijk,Links,4,10,right,yes,600,undefined,null,true,focus,yes,848577,Firefox,108.0,macOS,10.15,undefined,undefined,1920 x 1080,1920 x 1080
S003,60,Mannelijk,Links,4,11,right,no,650,rightarrow,732,true,focus,yes,850072,Firefox,108.0,macOS,10.15,undefined,undefined,1920 x 1080,1920 x 1080
S003,60,Mannelijk,Links,4,12,left,yes,650,leftarrow,594,false,focus,yes,851428,Firefox,108.0,macOS,10.15,undefined,undefined,1920 x 1080,1920 x 1080
S003,60,Mannelijk,Links,4,13,right,no,600,rightarrow,872,true,focus,yes,853061,Firefox,108.0,macOS,10.15,undefined,undefined,1920 x 1080,1920 x 1080
S003,60,Mannelijk,Links,4,14,left,no,600,leftarrow,978,true,focus,yes,854799,Firefox,108.0,macOS,10.15,undefined,undefined,1920 x 1080,1920 x 1080
S003,60,Mannelijk,Links,4,15,left,no,600,leftarrow,1150,true,focus,yes,856715,Firefox,108.0,macOS,10.15,undefined,undefined,1920 x 1080,1920 x 1080
S003,60,Mannelijk,Links,4,16,left,no,600,leftarrow,1151,true,focus,yes,858635,Firefox,108.0,macOS,10.15,undefined,undefined,1920 x 1080,1920 x 1080
S003,60,Mannelijk,Links,4,17,left,no,600,leftarrow,1000,true,focus,yes,860399,Firefox,108.0,macOS,10.15,undefined,undefined,1920 x 1080,1920 x 1080
S003,60,Mannelijk,Links,4,18,right,no,600,rightarrow,960,true,focus,yes,862119,Firefox,108.0,macOS,10.15,undefined,undefined,1920 x 1080,1920 x 1080
S003,60,Mannelijk,Links,4,19,right,yes,600,undefined,null,true,focus,yes,864140,Firefox,108.0,macOS,10.15,undefined,undefined,1920 x 1080,1920 x 1080
S003,60,Mannelijk,Links,4,20,left,no,650,leftarrow,721,true,focus,yes,865630,Firefox,108.0,macOS,10.15,undefined,undefined,1920 x 1080,1920 x 1080
S003,60,Mannelijk,Links,4,21,left,no,650,leftarrow,1043,true,focus,yes,867440,Firefox,108.0,macOS,10.15,undefined,undefined,1920 x 1080,1920 x 1080
S003,60,Mannelijk,Links,4,22,right,no,650,rightarrow,723,true,focus,yes,868926,Firefox,108.0,macOS,10.15,undefined,undefined,1920 x 1080,1920 x 1080
S003,60,Mannelijk,Links,4,23,right,no,650,rightarrow,904,true,focus,yes,870589,Firefox,108.0,macOS,10.15,undefined,undefined,1920 x 1080,1920 x 1080
S003,60,Mannelijk,Links,4,24,left,yes,650,leftarrow,861,false,focus,yes,872210,Firefox,108.0,macOS,10.15,undefined,undefined,1920 x 1080,1920 x 1080
S003,60,Mannelijk,Links,4,25,right,yes,600,undefined,null,true,focus,yes,874224,Firefox,108.0,macOS,10.15,undefined,undefined,1920 x 1080,1920 x 1080
S003,60,Mannelijk,Links,4,26,left,no,650,leftarrow,821,true,focus,yes,875808,Firefox,108.0,macOS,10.15,undefined,undefined,1920 x 1080,1920 x 1080
S003,60,Mannelijk,Links,4,27,left,no,650,leftarrow,787,true,focus,yes,877359,Firefox,108.0,macOS,10.15,undefined,undefined,1920 x 1080,1920 x 1080
S003,60,Mannelijk,Links,4,28,left,yes,650,undefined,null,true,focus,yes,879376,Firefox,108.0,macOS,10.15,undefined,undefined,1920 x 1080,1920 x 1080
S003,60,Mannelijk,Links,4,29,right,no,700,rightarrow,732,true,focus,yes,880870,Firefox,108.0,macOS,10.15,undefined,undefined,1920 x 1080,1920 x 1080
S003,60,Mannelijk,Links,4,30,right,no,700,rightarrow,986,true,focus,yes,882619,Firefox,108.0,macOS,10.15,undefined,undefined,1920 x 1080,1920 x 1080
S003,60,Mannelijk,Links,4,31,left,no,700,leftarrow,918,true,focus,yes,884304,Firefox,108.0,macOS,10.15,undefined,undefined,1920 x 1080,1920 x 1080
S003,60,Mannelijk,Links,4,32,right,no,700,rightarrow,982,true,focus,yes,886050,Firefox,108.0,macOS,10.15,undefined,undefined,1920 x 1080,1920 x 1080
S003,60,Mannelijk,Links,4,33,right,no,700,rightarrow,1126,true,focus,yes,887935,Firefox,108.0,macOS,10.15,undefined,undefined,1920 x 1080,1920 x 1080
S003,60,Mannelijk,Links,4,34,right,yes,700,undefined,null,true,focus,yes,889956,Firefox,108.0,macOS,10.15,undefined,undefined,1920 x 1080,1920 x 1080
S003,60,Mannelijk,Links,4,35,right,no,750,rightarrow,953,true,focus,yes,891674,Firefox,108.0,macOS,10.15,undefined,undefined,1920 x 1080,1920 x 1080
S003,60,Mannelijk,Links,4,36,left,no,750,leftarrow,800,true,focus,yes,893237,Firefox,108.0,macOS,10.15,undefined,undefined,1920 x 1080,1920 x 1080
S003,60,Mannelijk,Links,4,37,left,no,750,leftarrow,1217,true,focus,yes,895218,Firefox,108.0,macOS,10.15,undefined,undefined,1920 x 1080,1920 x 1080
S003,60,Mannelijk,Links,4,38,right,no,750,rightarrow,1060,true,focus,yes,897041,Firefox,108.0,macOS,10.15,undefined,undefined,1920 x 1080,1920 x 1080
S003,60,Mannelijk,Links,4,39,left,no,750,leftarrow,1165,true,focus,yes,898973,Firefox,108.0,macOS,10.15,undefined,undefined,1920 x 1080,1920 x 1080
S003,60,Mannelijk,Links,4,40,left,yes,750,leftarrow,673,false,focus,yes,900408,Firefox,108.0,macOS,10.15,undefined,undefined,1920 x 1080,1920 x 1080
S003,60,Mannelijk,Links,4,41,right,no,700,rightarrow,646,true,focus,yes,901820,Firefox,108.0,macOS,10.15,undefined,undefined,1920 x 1080,1920 x 1080
S003,60,Mannelijk,Links,4,42,left,no,700,leftarrow,961,true,focus,yes,903542,Firefox,108.0,macOS,10.15,undefined,undefined,1920 x 1080,1920 x 1080
S003,60,Mannelijk,Links,4,43,right,no,700,rightarrow,1023,true,focus,yes,905330,Firefox,108.0,macOS,10.15,undefined,undefined,1920 x 1080,1920 x 1080
S003,60,Mannelijk,Links,4,44,right,no,700,rightarrow,911,true,focus,yes,907002,Firefox,108.0,macOS,10.15,undefined,undefined,1920 x 1080,1920 x 1080
S003,60,Mannelijk,Links,4,45,left,yes,700,leftarrow,1005,false,focus,yes,908770,Firefox,108.0,macOS,10.15,undefined,undefined,1920 x 1080,1920 x 1080
S003,60,Mannelijk,Links,4,46,left,no,650,leftarrow,821,true,focus,yes,910353,Firefox,108.0,macOS,10.15,undefined,undefined,1920 x 1080,1920 x 1080
S003,60,Mannelijk,Links,4,47,left,no,650,leftarrow,990,true,focus,yes,912106,Firefox,108.0,macOS,10.15,undefined,undefined,1920 x 1080,1920 x 1080
S003,60,Mannelijk,Links,4,48,right,yes,650,rightarrow,697,false,focus,yes,913567,Firefox,108.0,macOS,10.15,undefined,undefined,1920 x 1080,1920 x 1080
S003,60,Mannelijk,Links,4,49,left,no,600,leftarrow,866,true,focus,yes,915200,Firefox,108.0,macOS,10.15,undefined,undefined,1920 x 1080,1920 x 1080
S003,60,Mannelijk,Links,4,50,right,yes,600,undefined,null,true,focus,yes,917219,Firefox,108.0,macOS,10.15,undefined,undefined,1920 x 1080,1920 x 1080
S003,60,Mannelijk,Links,4,51,left,no,650,leftarrow,744,true,focus,yes,918724,Firefox,108.0,macOS,10.15,undefined,undefined,1920 x 1080,1920 x 1080
S003,60,Mannelijk,Links,4,52,right,no,650,rightarrow,742,true,focus,yes,920226,Firefox,108.0,macOS,10.15,undefined,undefined,1920 x 1080,1920 x 1080
S003,60,Mannelijk,Links,4,53,left,yes,650,undefined,null,true,focus,yes,922244,Firefox,108.0,macOS,10.15,undefined,undefined,1920 x 1080,1920 x 1080
S003,60,Mannelijk,Links,4,54,right,no,700,rightarrow,989,true,focus,yes,923997,Firefox,108.0,macOS,10.15,undefined,undefined,1920 x 1080,1920 x 1080
S003,60,Mannelijk,Links,4,55,left,no,700,leftarrow,760,true,focus,yes,925519,Firefox,108.0,macOS,10.15,undefined,undefined,1920 x 1080,1920 x 1080
S003,60,Mannelijk,Links,4,56,right,no,700,rightarrow,730,true,focus,yes,927012,Firefox,108.0,macOS,10.15,undefined,undefined,1920 x 1080,1920 x 1080
S003,60,Mannelijk,Links,4,57,left,no,700,leftarrow,989,true,focus,yes,928760,Firefox,108.0,macOS,10.15,undefined,undefined,1920 x 1080,1920 x 1080
S003,60,Mannelijk,Links,4,58,right,yes,700,undefined,null,true,focus,yes,930776,Firefox,108.0,macOS,10.15,undefined,undefined,1920 x 1080,1920 x 1080
S003,60,Mannelijk,Links,4,59,left,no,750,leftarrow,883,true,focus,yes,932420,Firefox,108.0,macOS,10.15,undefined,undefined,1920 x 1080,1920 x 1080
S003,60,Mannelijk,Links,4,60,left,no,750,leftarrow,1050,true,focus,yes,934230,Firefox,108.0,macOS,10.15,undefined,undefined,1920 x 1080,1920 x 1080
S003,60,Mannelijk,Links,4,61,left,yes,750,undefined,null,true,focus,yes,936240,Firefox,108.0,macOS,10.15,undefined,undefined,1920 x 1080,1920 x 1080
S003,60,Mannelijk,Links,4,62,right,no,800,rightarrow,1007,true,focus,yes,938008,Firefox,108.0,macOS,10.15,undefined,undefined,1920 x 1080,1920 x 1080
S003,60,Mannelijk,Links,4,63,right,no,800,rightarrow,1049,true,focus,yes,939824,Firefox,108.0,macOS,10.15,undefined,undefined,1920 x 1080,1920 x 1080
S003,60,Mannelijk,Links,4,64,right,no,800,undefined,null,false,focus,yes,941844,Firefox,108.0,macOS,10.15,undefined,undefined,1920 x 1080,1920 x 1080
S003,60,Mannelijk,Links,4,65,right,no,800,rightarrow,1183,true,focus,yes,943789,Firefox,108.0,macOS,10.15,undefined,undefined,1920 x 1080,1920 x 1080
S003,60,Mannelijk,Links,4,66,right,no,800,rightarrow,1052,true,focus,yes,945609,Firefox,108.0,macOS,10.15,undefined,undefined,1920 x 1080,1920 x 1080
S003,60,Mannelijk,Links,4,67,left,yes,800,leftarrow,1044,false,focus,yes,947417,Firefox,108.0,macOS,10.15,undefined,undefined,1920 x 1080,1920 x 1080
S003,60,Mannelijk,Links,4,68,right,no,750,rightarrow,916,true,focus,yes,949094,Firefox,108.0,macOS,10.15,undefined,undefined,1920 x 1080,1920 x 1080
S003,60,Mannelijk,Links,4,69,right,yes,750,undefined,null,true,focus,yes,951107,Firefox,108.0,macOS,10.15,undefined,undefined,1920 x 1080,1920 x 1080
S003,60,Mannelijk,Links,4,70,left,no,800,leftarrow,814,true,focus,yes,952687,Firefox,108.0,macOS,10.15,undefined,undefined,1920 x 1080,1920 x 1080
S003,60,Mannelijk,Links,4,71,left,no,800,undefined,null,false,focus,yes,954694,Firefox,108.0,macOS,10.15,undefined,undefined,1920 x 1080,1920 x 1080
S003,60,Mannelijk,Links,4,72,left,no,800,leftarrow,1133,true,focus,yes,956585,Firefox,108.0,macOS,10.15,undefined,undefined,1920 x 1080,1920 x 1080
S003,60,Mannelijk,Links,4,73,left,no,800,leftarrow,1130,true,focus,yes,958469,Firefox,108.0,macOS,10.15,undefined,undefined,1920 x 1080,1920 x 1080
S003,60,Mannelijk,Links,4,74,left,no,800,leftarrow,823,true,focus,yes,960058,Firefox,108.0,macOS,10.15,undefined,undefined,1920 x 1080,1920 x 1080
S003,60,Mannelijk,Links,4,75,right,no,800,rightarrow,1006,true,focus,yes,961832,Firefox,108.0,macOS,10.15,undefined,undefined,1920 x 1080,1920 x 1080
S003,60,Mannelijk,Links,4,76,left,no,800,leftarrow,876,true,focus,yes,963467,Firefox,108.0,macOS,10.15,undefined,undefined,1920 x 1080,1920 x 1080
S003,60,Mannelijk,Links,4,77,left,yes,800,undefined,null,true,focus,yes,965483,Firefox,108.0,macOS,10.15,undefined,undefined,1920 x 1080,1920 x 1080
S003,60,Mannelijk,Links,4,78,right,yes,850,rightarrow,861,false,focus,yes,967104,Firefox,108.0,macOS,10.15,undefined,undefined,1920 x 1080,1920 x 1080
S003,60,Mannelijk,Links,4,79,right,no,800,rightarrow,1090,true,focus,yes,968960,Firefox,108.0,macOS,10.15,undefined,undefined,1920 x 1080,1920 x 1080
S003,60,Mannelijk,Links,4,80,right,no,800,rightarrow,1111,true,focus,yes,970839,Firefox,108.0,macOS,10.15,undefined,undefined,1920 x 1080,1920 x 1080
S003,60,Mannelijk,Links,4,81,right,no,800,rightarrow,1083,true,focus,yes,972685,Firefox,108.0,macOS,10.15,undefined,undefined,1920 x 1080,1920 x 1080
S003,60,Mannelijk,Links,4,82,left,no,800,leftarrow,1110,true,focus,yes,974562,Firefox,108.0,macOS,10.15,undefined,undefined,1920 x 1080,1920 x 1080
S003,60,Mannelijk,Links,4,83,left,no,800,leftarrow,1011,true,focus,yes,976336,Firefox,108.0,macOS,10.15,undefined,undefined,1920 x 1080,1920 x 1080
S003,60,Mannelijk,Links,4,84,right,yes,800,rightarrow,989,false,focus,yes,978088,Firefox,108.0,macOS,10.15,undefined,undefined,1920 x 1080,1920 x 1080
S003,60,Mannelijk,Links,4,85,right,no,750,rightarrow,1100,true,focus,yes,979950,Firefox,108.0,macOS,10.15,undefined,undefined,1920 x 1080,1920 x 1080
S003,60,Mannelijk,Links,4,86,left,no,750,leftarrow,802,true,focus,yes,981520,Firefox,108.0,macOS,10.15,undefined,undefined,1920 x 1080,1920 x 1080
S003,60,Mannelijk,Links,4,87,right,no,750,rightarrow,1135,true,focus,yes,983423,Firefox,108.0,macOS,10.15,undefined,undefined,1920 x 1080,1920 x 1080
S003,60,Mannelijk,Links,4,88,left,yes,750,leftarrow,1008,false,focus,yes,985198,Firefox,108.0,macOS,10.15,undefined,undefined,1920 x 1080,1920 x 1080
S003,60,Mannelijk,Links,4,89,left,no,700,undefined,null,false,focus,yes,987219,Firefox,108.0,macOS,10.15,undefined,undefined,1920 x 1080,1920 x 1080
S003,60,Mannelijk,Links,4,90,left,no,700,leftarrow,1175,true,focus,yes,989156,Firefox,108.0,macOS,10.15,undefined,undefined,1920 x 1080,1920 x 1080
S003,60,Mannelijk,Links,4,91,right,yes,700,undefined,null,true,focus,yes,991174,Firefox,108.0,macOS,10.15,undefined,undefined,1920 x 1080,1920 x 1080
S003,60,Mannelijk,Links,4,92,right,no,750,rightarrow,1093,true,focus,yes,993030,Firefox,108.0,macOS,10.15,undefined,undefined,1920 x 1080,1920 x 1080
S003,60,Mannelijk,Links,4,93,right,no,750,rightarrow,1043,true,focus,yes,994836,Firefox,108.0,macOS,10.15,undefined,undefined,1920 x 1080,1920 x 1080
S003,60,Mannelijk,Links,4,94,right,no,750,rightarrow,1046,true,focus,yes,996649,Firefox,108.0,macOS,10.15,undefined,undefined,1920 x 1080,1920 x 1080
S003,60,Mannelijk,Links,4,95,left,yes,750,undefined,null,true,focus,yes,998664,Firefox,108.0,macOS,10.15,undefined,undefined,1920 x 1080,1920 x 1080
S003,60,Mannelijk,Links,4,96,left,no,800,leftarrow,756,true,focus,yes,1000189,Firefox,108.0,macOS,10.15,undefined,undefined,1920 x 1080,1920 x 1080
S003,60,Mannelijk,Links,4,97,right,yes,800,undefined,null,true,focus,yes,1002209,Firefox,108.0,macOS,10.15,undefined,undefined,1920 x 1080,1920 x 1080
S003,60,Mannelijk,Links,4,98,left,no,850,leftarrow,975,true,focus,yes,1003948,Firefox,108.0,macOS,10.15,undefined,undefined,1920 x 1080,1920 x 1080
S003,60,Mannelijk,Links,4,99,left,yes,850,leftarrow,1114,false,focus,yes,1005823,Firefox,108.0,macOS,10.15,undefined,undefined,1920 x 1080,1920 x 1080
S003,60,Mannelijk,Links,4,100,right,no,800,undefined,null,false,focus,yes,1007840,Firefox,108.0,macOS,10.15,undefined,undefined,1920 x 1080,1920 x 1080
S003,60,Mannelijk,Links,4,101,left,no,800,leftarrow,800,true,focus,yes,1009662,Firefox,108.0,macOS,10.15,undefined,undefined,1920 x 1080,1920 x 1080
S003,60,Mannelijk,Links,4,102,left,no,800,leftarrow,731,true,focus,yes,1011157,Firefox,108.0,macOS,10.15,undefined,undefined,1920 x 1080,1920 x 1080
S003,60,Mannelijk,Links,4,103,right,no,800,rightarrow,1181,true,focus,yes,1013101,Firefox,108.0,macOS,10.15,undefined,undefined,1920 x 1080,1920 x 1080
S003,60,Mannelijk,Links,4,104,right,no,800,undefined,null,false,focus,yes,1015119,Firefox,108.0,macOS,10.15,undefined,undefined,1920 x 1080,1920 x 1080
S003,60,Mannelijk,Links,4,105,left,yes,800,undefined,null,true,focus,yes,1017141,Firefox,108.0,macOS,10.15,undefined,undefined,1920 x 1080,1920 x 1080
S003,60,Mannelijk,Links,4,106,left,no,850,leftarrow,781,true,focus,yes,1018684,Firefox,108.0,macOS,10.15,undefined,undefined,1920 x 1080,1920 x 1080
S003,60,Mannelijk,Links,4,107,right,yes,850,rightarrow,1053,false,focus,yes,1020503,Firefox,108.0,macOS,10.15,undefined,undefined,1920 x 1080,1920 x 1080
S003,60,Mannelijk,Links,4,108,right,no,800,rightarrow,1128,true,focus,yes,1022394,Firefox,108.0,macOS,10.15,undefined,undefined,1920 x 1080,1920 x 1080
S003,60,Mannelijk,Links,4,109,right,no,800,rightarrow,1219,true,focus,yes,1024381,Firefox,108.0,macOS,10.15,undefined,undefined,1920 x 1080,1920 x 1080
S003,60,Mannelijk,Links,4,110,right,no,800,rightarrow,1230,true,focus,yes,1026373,Firefox,108.0,macOS,10.15,undefined,undefined,1920 x 1080,1920 x 1080
S003,60,Mannelijk,Links,4,111,left,no,800,undefined,null,false,focus,yes,1028388,Firefox,108.0,macOS,10.15,undefined,undefined,1920 x 1080,1920 x 1080
S003,60,Mannelijk,Links,4,112,left,no,800,leftarrow,926,true,focus,yes,1030076,Firefox,108.0,macOS,10.15,undefined,undefined,1920 x 1080,1920 x 1080
S003,60,Mannelijk,Links,4,113,left,yes,800,undefined,null,true,focus,yes,1032095,Firefox,108.0,macOS,10.15,undefined,undefined,1920 x 1080,1920 x 1080
S003,60,Mannelijk,Links,4,114,right,no,850,rightarrow,820,true,focus,yes,1033683,Firefox,108.0,macOS,10.15,undefined,undefined,1920 x 1080,1920 x 1080
S003,60,Mannelijk,Links,4,115,left,no,850,leftarrow,883,true,focus,yes,1035333,Firefox,108.0,macOS,10.15,undefined,undefined,1920 x 1080,1920 x 1080
S003,60,Mannelijk,Links,4,116,left,no,850,leftarrow,1180,true,focus,yes,1037282,Firefox,108.0,macOS,10.15,undefined,undefined,1920 x 1080,1920 x 1080
S003,60,Mannelijk,Links,4,117,right,yes,850,rightarrow,993,false,focus,yes,1039038,Firefox,108.0,macOS,10.15,undefined,undefined,1920 x 1080,1920 x 1080
S003,60,Mannelijk,Links,4,118,left,no,800,leftarrow,841,true,focus,yes,1040647,Firefox,108.0,macOS,10.15,undefined,undefined,1920 x 1080,1920 x 1080
S003,60,Mannelijk,Links,4,119,right,no,800,rightarrow,920,true,focus,yes,1042330,Firefox,108.0,macOS,10.15,undefined,undefined,1920 x 1080,1920 x 1080
S003,60,Mannelijk,Links,4,120,right,no,800,rightarrow,1046,true,focus,yes,1044141,Firefox,108.0,macOS,10.15,undefined,undefined,1920 x 1080,1920 x 1080
S003,60,Mannelijk,Links,4,121,left,no,800,undefined,null,false,focus,yes,1046157,Firefox,108.0,macOS,10.15,undefined,undefined,1920 x 1080,1920 x 1080
S003,60,Mannelijk,Links,4,122,left,yes,800,leftarrow,787,false,focus,yes,1047708,Firefox,108.0,macOS,10.15,undefined,undefined,1920 x 1080,1920 x 1080
S003,60,Mannelijk,Links,4,123,left,no,750,leftarrow,667,true,focus,yes,1049135,Firefox,108.0,macOS,10.15,undefined,undefined,1920 x 1080,1920 x 1080
S003,60,Mannelijk,Links,4,124,left,no,750,leftarrow,1158,true,focus,yes,1051060,Firefox,108.0,macOS,10.15,undefined,undefined,1920 x 1080,1920 x 1080
S003,60,Mannelijk,Links,4,125,right,yes,750,rightarrow,880,false,focus,yes,1052707,Firefox,108.0,macOS,10.15,undefined,undefined,1920 x 1080,1920 x 1080
S003,60,Mannelijk,Links,4,126,right,no,700,rightarrow,838,true,focus,yes,1054315,Firefox,108.0,macOS,10.15,undefined,undefined,1920 x 1080,1920 x 1080
S003,60,Mannelijk,Links,4,127,right,no,700,rightarrow,1078,true,focus,yes,1056154,Firefox,108.0,macOS,10.15,undefined,undefined,1920 x 1080,1920 x 1080
S003,60,Mannelijk,Links,4,128,right,no,700,rightarrow,1096,true,focus,yes,1058019,Firefox,108.0,macOS,10.15,undefined,undefined,1920 x 1080,1920 x 1080
S003,60,Mannelijk,Links,5,1,right,no,700,rightarrow,775,true,focus,yes,1081787,Firefox,108.0,macOS,10.15,undefined,undefined,1920 x 1080,1920 x 1080
S003,60,Mannelijk,Links,5,2,right,no,700,rightarrow,990,true,focus,yes,1083544,Firefox,108.0,macOS,10.15,undefined,undefined,1920 x 1080,1920 x 1080
S003,60,Mannelijk,Links,5,3,left,yes,700,undefined,null,true,focus,yes,1085558,Firefox,108.0,macOS,10.15,undefined,undefined,1920 x 1080,1920 x 1080
S003,60,Mannelijk,Links,5,4,right,no,750,rightarrow,778,true,focus,yes,1087096,Firefox,108.0,macOS,10.15,undefined,undefined,1920 x 1080,1920 x 1080
S003,60,Mannelijk,Links,5,5,left,no,750,leftarrow,1011,true,focus,yes,1088874,Firefox,108.0,macOS,10.15,undefined,undefined,1920 x 1080,1920 x 1080
S003,60,Mannelijk,Links,5,6,left,no,750,leftarrow,1012,true,focus,yes,1090649,Firefox,108.0,macOS,10.15,undefined,undefined,1920 x 1080,1920 x 1080
S003,60,Mannelijk,Links,5,7,right,yes,750,undefined,null,true,focus,yes,1092673,Firefox,108.0,macOS,10.15,undefined,undefined,1920 x 1080,1920 x 1080
S003,60,Mannelijk,Links,5,8,left,no,800,leftarrow,854,true,focus,yes,1094295,Firefox,108.0,macOS,10.15,undefined,undefined,1920 x 1080,1920 x 1080
S003,60,Mannelijk,Links,5,9,left,yes,800,undefined,null,true,focus,yes,1096318,Firefox,108.0,macOS,10.15,undefined,undefined,1920 x 1080,1920 x 1080
S003,60,Mannelijk,Links,5,10,left,no,850,leftarrow,799,true,focus,yes,1097886,Firefox,108.0,macOS,10.15,undefined,undefined,1920 x 1080,1920 x 1080
S003,60,Mannelijk,Links,5,11,left,no,850,leftarrow,1175,true,focus,yes,1099828,Firefox,108.0,macOS,10.15,undefined,undefined,1920 x 1080,1920 x 1080
S003,60,Mannelijk,Links,5,12,left,no,850,undefined,null,false,focus,yes,1101839,Firefox,108.0,macOS,10.15,undefined,undefined,1920 x 1080,1920 x 1080
S003,60,Mannelijk,Links,5,13,right,no,850,rightarrow,1041,true,focus,yes,1103648,Firefox,108.0,macOS,10.15,undefined,undefined,1920 x 1080,1920 x 1080
S003,60,Mannelijk,Links,5,14,right,no,850,rightarrow,1113,true,focus,yes,1105525,Firefox,108.0,macOS,10.15,undefined,undefined,1920 x 1080,1920 x 1080
S003,60,Mannelijk,Links,5,15,right,no,850,rightarrow,977,true,focus,yes,1107269,Firefox,108.0,macOS,10.15,undefined,undefined,1920 x 1080,1920 x 1080
S003,60,Mannelijk,Links,5,16,right,yes,850,undefined,null,true,focus,yes,1109283,Firefox,108.0,macOS,10.15,undefined,undefined,1920 x 1080,1920 x 1080
S003,60,Mannelijk,Links,5,17,right,yes,900,rightarrow,958,false,focus,yes,1111003,Firefox,108.0,macOS,10.15,undefined,undefined,1920 x 1080,1920 x 1080
S003,60,Mannelijk,Links,5,18,right,no,850,rightarrow,1081,true,focus,yes,1112851,Firefox,108.0,macOS,10.15,undefined,undefined,1920 x 1080,1920 x 1080
S003,60,Mannelijk,Links,5,19,left,no,850,leftarrow,1078,true,focus,yes,1114696,Firefox,108.0,macOS,10.15,undefined,undefined,1920 x 1080,1920 x 1080
S003,60,Mannelijk,Links,5,20,left,no,850,leftarrow,1247,true,focus,yes,1116708,Firefox,108.0,macOS,10.15,undefined,undefined,1920 x 1080,1920 x 1080
S003,60,Mannelijk,Links,5,21,left,yes,850,undefined,null,true,focus,yes,1118721,Firefox,108.0,macOS,10.15,undefined,undefined,1920 x 1080,1920 x 1080
S003,60,Mannelijk,Links,5,22,left,no,900,leftarrow,1095,true,focus,yes,1120579,Firefox,108.0,macOS,10.15,undefined,undefined,1920 x 1080,1920 x 1080
S003,60,Mannelijk,Links,5,23,right,no,900,rightarrow,1037,true,focus,yes,1122383,Firefox,108.0,macOS,10.15,undefined,undefined,1920 x 1080,1920 x 1080
S003,60,Mannelijk,Links,5,24,right,no,900,undefined,null,false,focus,yes,1124402,Firefox,108.0,macOS,10.15,undefined,undefined,1920 x 1080,1920 x 1080
S003,60,Mannelijk,Links,5,25,left,no,900,leftarrow,855,true,focus,yes,1126025,Firefox,108.0,macOS,10.15,undefined,undefined,1920 x 1080,1920 x 1080
S003,60,Mannelijk,Links,5,26,right,no,900,rightarrow,777,true,focus,yes,1127561,Firefox,108.0,macOS,10.15,undefined,undefined,1920 x 1080,1920 x 1080
S003,60,Mannelijk,Links,5,27,right,no,900,rightarrow,1040,true,focus,yes,1129361,Firefox,108.0,macOS,10.15,undefined,undefined,1920 x 1080,1920 x 1080
S003,60,Mannelijk,Links,5,28,right,yes,900,rightarrow,1097,false,focus,yes,1131221,Firefox,108.0,macOS,10.15,undefined,undefined,1920 x 1080,1920 x 1080
S003,60,Mannelijk,Links,5,29,left,no,850,leftarrow,924,true,focus,yes,1132910,Firefox,108.0,macOS,10.15,undefined,undefined,1920 x 1080,1920 x 1080
S003,60,Mannelijk,Links,5,30,left,yes,850,leftarrow,979,false,focus,yes,1134657,Firefox,108.0,macOS,10.15,undefined,undefined,1920 x 1080,1920 x 1080
S003,60,Mannelijk,Links,5,31,left,no,800,leftarrow,1209,true,focus,yes,1136633,Firefox,108.0,macOS,10.15,undefined,undefined,1920 x 1080,1920 x 1080
S003,60,Mannelijk,Links,5,32,right,no,800,rightarrow,1137,true,focus,yes,1138535,Firefox,108.0,macOS,10.15,undefined,undefined,1920 x 1080,1920 x 1080
S003,60,Mannelijk,Links,5,33,left,no,800,leftarrow,918,true,focus,yes,1140221,Firefox,108.0,macOS,10.15,undefined,undefined,1920 x 1080,1920 x 1080
S003,60,Mannelijk,Links,5,34,right,yes,800,rightarrow,1027,false,focus,yes,1142013,Firefox,108.0,macOS,10.15,undefined,undefined,1920 x 1080,1920 x 1080
S003,60,Mannelijk,Links,5,35,left,no,750,leftarrow,800,true,focus,yes,1143582,Firefox,108.0,macOS,10.15,undefined,undefined,1920 x 1080,1920 x 1080
S003,60,Mannelijk,Links,5,36,right,no,750,rightarrow,808,true,focus,yes,1145155,Firefox,108.0,macOS,10.15,undefined,undefined,1920 x 1080,1920 x 1080
S003,60,Mannelijk,Links,5,37,left,yes,750,undefined,null,true,focus,yes,1147169,Firefox,108.0,macOS,10.15,undefined,undefined,1920 x 1080,1920 x 1080
S003,60,Mannelijk,Links,5,38,right,no,800,rightarrow,771,true,focus,yes,1148708,Firefox,108.0,macOS,10.15,undefined,undefined,1920 x 1080,1920 x 1080
S003,60,Mannelijk,Links,5,39,left,no,800,leftarrow,989,true,focus,yes,1150465,Firefox,108.0,macOS,10.15,undefined,undefined,1920 x 1080,1920 x 1080
S003,60,Mannelijk,Links,5,40,right,no,800,undefined,null,false,focus,yes,1152487,Firefox,108.0,macOS,10.15,undefined,undefined,1920 x 1080,1920 x 1080
S003,60,Mannelijk,Links,5,41,left,no,800,leftarrow,1135,true,focus,yes,1154386,Firefox,108.0,macOS,10.15,undefined,undefined,1920 x 1080,1920 x 1080
S003,60,Mannelijk,Links,5,42,right,yes,800,undefined,null,true,focus,yes,1156406,Firefox,108.0,macOS,10.15,undefined,undefined,1920 x 1080,1920 x 1080
S003,60,Mannelijk,Links,5,43,right,no,850,rightarrow,831,true,focus,yes,1158007,Firefox,108.0,macOS,10.15,undefined,undefined,1920 x 1080,1920 x 1080
S003,60,Mannelijk,Links,5,44,right,no,850,undefined,null,false,focus,yes,1160025,Firefox,108.0,macOS,10.15,undefined,undefined,1920 x 1080,1920 x 1080
S003,60,Mannelijk,Links,5,45,left,no,850,leftarrow,943,true,focus,yes,1161733,Firefox,108.0,macOS,10.15,undefined,undefined,1920 x 1080,1920 x 1080
S003,60,Mannelijk,Links,5,46,left,no,850,leftarrow,1159,true,focus,yes,1163661,Firefox,108.0,macOS,10.15,undefined,undefined,1920 x 1080,1920 x 1080
S003,60,Mannelijk,Links,5,47,left,yes,850,leftarrow,995,false,focus,yes,1165421,Firefox,108.0,macOS,10.15,undefined,undefined,1920 x 1080,1920 x 1080
S003,60,Mannelijk,Links,5,48,right,no,800,rightarrow,993,true,focus,yes,1167176,Firefox,108.0,macOS,10.15,undefined,undefined,1920 x 1080,1920 x 1080
S003,60,Mannelijk,Links,5,49,left,no,800,leftarrow,879,true,focus,yes,1168815,Firefox,108.0,macOS,10.15,undefined,undefined,1920 x 1080,1920 x 1080
S003,60,Mannelijk,Links,5,50,right,no,800,rightarrow,443,true,focus,yes,1170021,Firefox,108.0,macOS,10.15,undefined,undefined,1920 x 1080,1920 x 1080
S003,60,Mannelijk,Links,5,51,right,no,800,rightarrow,1031,true,focus,yes,1171817,Firefox,108.0,macOS,10.15,undefined,undefined,1920 x 1080,1920 x 1080
S003,60,Mannelijk,Links,5,52,left,yes,800,leftarrow,1008,false,focus,yes,1173590,Firefox,108.0,macOS,10.15,undefined,undefined,1920 x 1080,1920 x 1080
S003,60,Mannelijk,Links,5,53,right,yes,750,rightarrow,968,false,focus,yes,1175325,Firefox,108.0,macOS,10.15,undefined,undefined,1920 x 1080,1920 x 1080
S003,60,Mannelijk,Links,5,54,right,no,700,rightarrow,871,true,focus,yes,1176965,Firefox,108.0,macOS,10.15,undefined,undefined,1920 x 1080,1920 x 1080
S003,60,Mannelijk,Links,5,55,left,no,700,leftarrow,1168,true,focus,yes,1178897,Firefox,108.0,macOS,10.15,undefined,undefined,1920 x 1080,1920 x 1080
S003,60,Mannelijk,Links,5,56,left,no,700,undefined,null,false,focus,yes,1180917,Firefox,108.0,macOS,10.15,undefined,undefined,1920 x 1080,1920 x 1080
S003,60,Mannelijk,Links,5,57,left,yes,700,leftarrow,982,false,focus,yes,1182665,Firefox,108.0,macOS,10.15,undefined,undefined,1920 x 1080,1920 x 1080
S003,60,Mannelijk,Links,5,58,right,no,650,rightarrow,750,true,focus,yes,1184183,Firefox,108.0,macOS,10.15,undefined,undefined,1920 x 1080,1920 x 1080
S003,60,Mannelijk,Links,5,59,right,no,650,rightarrow,712,true,focus,yes,1185659,Firefox,108.0,macOS,10.15,undefined,undefined,1920 x 1080,1920 x 1080
S003,60,Mannelijk,Links,5,60,right,no,650,rightarrow,1195,true,focus,yes,1187620,Firefox,108.0,macOS,10.15,undefined,undefined,1920 x 1080,1920 x 1080
S003,60,Mannelijk,Links,5,61,left,no,650,leftarrow,684,true,focus,yes,1189069,Firefox,108.0,macOS,10.15,undefined,undefined,1920 x 1080,1920 x 1080
S003,60,Mannelijk,Links,5,62,left,no,650,leftarrow,866,true,focus,yes,1190700,Firefox,108.0,macOS,10.15,undefined,undefined,1920 x 1080,1920 x 1080
S003,60,Mannelijk,Links,5,63,right,yes,650,rightarrow,795,false,focus,yes,1192258,Firefox,108.0,macOS,10.15,undefined,undefined,1920 x 1080,1920 x 1080
S003,60,Mannelijk,Links,5,64,left,no,600,leftarrow,727,true,focus,yes,1193747,Firefox,108.0,macOS,10.15,undefined,undefined,1920 x 1080,1920 x 1080
S003,60,Mannelijk,Links,5,65,right,no,600,rightarrow,1099,true,focus,yes,1195610,Firefox,108.0,macOS,10.15,undefined,undefined,1920 x 1080,1920 x 1080
S003,60,Mannelijk,Links,5,66,left,no,600,leftarrow,763,true,focus,yes,1197141,Firefox,108.0,macOS,10.15,undefined,undefined,1920 x 1080,1920 x 1080
S003,60,Mannelijk,Links,5,67,right,yes,600,undefined,null,true,focus,yes,1199163,Firefox,108.0,macOS,10.15,undefined,undefined,1920 x 1080,1920 x 1080
S003,60,Mannelijk,Links,5,68,right,no,650,rightarrow,914,true,focus,yes,1200847,Firefox,108.0,macOS,10.15,undefined,undefined,1920 x 1080,1920 x 1080
S003,60,Mannelijk,Links,5,69,left,no,650,leftarrow,1177,true,focus,yes,1202788,Firefox,108.0,macOS,10.15,undefined,undefined,1920 x 1080,1920 x 1080
S003,60,Mannelijk,Links,5,70,right,no,650,rightarrow,1185,true,focus,yes,1204736,Firefox,108.0,macOS,10.15,undefined,undefined,1920 x 1080,1920 x 1080
S003,60,Mannelijk,Links,5,71,left,no,650,leftarrow,1064,true,focus,yes,1206565,Firefox,108.0,macOS,10.15,undefined,undefined,1920 x 1080,1920 x 1080
S003,60,Mannelijk,Links,5,72,left,yes,650,undefined,null,true,focus,yes,1208585,Firefox,108.0,macOS,10.15,undefined,undefined,1920 x 1080,1920 x 1080
S003,60,Mannelijk,Links,5,73,right,no,700,rightarrow,1052,true,focus,yes,1210401,Firefox,108.0,macOS,10.15,undefined,undefined,1920 x 1080,1920 x 1080
S003,60,Mannelijk,Links,5,74,left,yes,700,undefined,null,true,focus,yes,1212414,Firefox,108.0,macOS,10.15,undefined,undefined,1920 x 1080,1920 x 1080
S003,60,Mannelijk,Links,5,75,left,no,750,leftarrow,774,true,focus,yes,1213955,Firefox,108.0,macOS,10.15,undefined,undefined,1920 x 1080,1920 x 1080
S003,60,Mannelijk,Links,5,76,right,no,750,rightarrow,1018,true,focus,yes,1215738,Firefox,108.0,macOS,10.15,undefined,undefined,1920 x 1080,1920 x 1080
S003,60,Mannelijk,Links,5,77,right,yes,750,rightarrow,802,false,focus,yes,1217306,Firefox,108.0,macOS,10.15,undefined,undefined,1920 x 1080,1920 x 1080
S003,60,Mannelijk,Links,5,78,left,no,700,leftarrow,995,true,focus,yes,1219068,Firefox,108.0,macOS,10.15,undefined,undefined,1920 x 1080,1920 x 1080
S003,60,Mannelijk,Links,5,79,left,no,700,leftarrow,820,true,focus,yes,1220648,Firefox,108.0,macOS,10.15,undefined,undefined,1920 x 1080,1920 x 1080
S003,60,Mannelijk,Links,5,80,right,no,700,rightarrow,988,true,focus,yes,1222405,Firefox,108.0,macOS,10.15,undefined,undefined,1920 x 1080,1920 x 1080
S003,60,Mannelijk,Links,5,81,right,no,700,rightarrow,1024,true,focus,yes,1224190,Firefox,108.0,macOS,10.15,undefined,undefined,1920 x 1080,1920 x 1080
S003,60,Mannelijk,Links,5,82,left,yes,700,leftarrow,912,false,focus,yes,1225870,Firefox,108.0,macOS,10.15,undefined,undefined,1920 x 1080,1920 x 1080
S003,60,Mannelijk,Links,5,83,right,no,650,rightarrow,886,true,focus,yes,1227523,Firefox,108.0,macOS,10.15,undefined,undefined,1920 x 1080,1920 x 1080
S003,60,Mannelijk,Links,5,84,left,no,650,leftarrow,834,true,focus,yes,1229121,Firefox,108.0,macOS,10.15,undefined,undefined,1920 x 1080,1920 x 1080
S003,60,Mannelijk,Links,5,85,left,no,650,leftarrow,798,true,focus,yes,1230684,Firefox,108.0,macOS,10.15,undefined,undefined,1920 x 1080,1920 x 1080
S003,60,Mannelijk,Links,5,86,right,yes,650,undefined,null,true,focus,yes,1232705,Firefox,108.0,macOS,10.15,undefined,undefined,1920 x 1080,1920 x 1080
S003,60,Mannelijk,Links,5,87,left,no,700,leftarrow,981,true,focus,yes,1234450,Firefox,108.0,macOS,10.15,undefined,undefined,1920 x 1080,1920 x 1080
S003,60,Mannelijk,Links,5,88,right,no,700,rightarrow,784,true,focus,yes,1235997,Firefox,108.0,macOS,10.15,undefined,undefined,1920 x 1080,1920 x 1080
S003,60,Mannelijk,Links,5,89,left,no,700,leftarrow,733,true,focus,yes,1237494,Firefox,108.0,macOS,10.15,undefined,undefined,1920 x 1080,1920 x 1080
S003,60,Mannelijk,Links,5,90,right,yes,700,rightarrow,835,false,focus,yes,1239096,Firefox,108.0,macOS,10.15,undefined,undefined,1920 x 1080,1920 x 1080
S003,60,Mannelijk,Links,5,91,left,no,650,leftarrow,804,true,focus,yes,1240670,Firefox,108.0,macOS,10.15,undefined,undefined,1920 x 1080,1920 x 1080
S003,60,Mannelijk,Links,5,92,left,no,650,leftarrow,1156,true,focus,yes,1242595,Firefox,108.0,macOS,10.15,undefined,undefined,1920 x 1080,1920 x 1080
S003,60,Mannelijk,Links,5,93,left,yes,650,undefined,null,true,focus,yes,1244616,Firefox,108.0,macOS,10.15,undefined,undefined,1920 x 1080,1920 x 1080
S003,60,Mannelijk,Links,5,94,right,no,700,rightarrow,937,true,focus,yes,1246314,Firefox,108.0,macOS,10.15,undefined,undefined,1920 x 1080,1920 x 1080
S003,60,Mannelijk,Links,5,95,right,no,700,rightarrow,1174,true,focus,yes,1248254,Firefox,108.0,macOS,10.15,undefined,undefined,1920 x 1080,1920 x 1080
S003,60,Mannelijk,Links,5,96,right,no,700,rightarrow,1110,true,focus,yes,1250131,Firefox,108.0,macOS,10.15,undefined,undefined,1920 x 1080,1920 x 1080
S003,60,Mannelijk,Links,5,97,left,yes,700,undefined,null,true,focus,yes,1252151,Firefox,108.0,macOS,10.15,undefined,undefined,1920 x 1080,1920 x 1080
S003,60,Mannelijk,Links,5,98,left,no,750,leftarrow,935,true,focus,yes,1253856,Firefox,108.0,macOS,10.15,undefined,undefined,1920 x 1080,1920 x 1080
S003,60,Mannelijk,Links,5,99,right,no,750,rightarrow,1130,true,focus,yes,1255748,Firefox,108.0,macOS,10.15,undefined,undefined,1920 x 1080,1920 x 1080
S003,60,Mannelijk,Links,5,100,right,no,750,rightarrow,1190,true,focus,yes,1257704,Firefox,108.0,macOS,10.15,undefined,undefined,1920 x 1080,1920 x 1080
S003,60,Mannelijk,Links,5,101,right,no,750,rightarrow,1124,true,focus,yes,1259593,Firefox,108.0,macOS,10.15,undefined,undefined,1920 x 1080,1920 x 1080
S003,60,Mannelijk,Links,5,102,left,no,750,leftarrow,1120,true,focus,yes,1261481,Firefox,108.0,macOS,10.15,undefined,undefined,1920 x 1080,1920 x 1080
S003,60,Mannelijk,Links,5,103,right,yes,750,undefined,null,true,focus,yes,1263498,Firefox,108.0,macOS,10.15,undefined,undefined,1920 x 1080,1920 x 1080
S003,60,Mannelijk,Links,5,104,left,no,800,leftarrow,912,true,focus,yes,1265176,Firefox,108.0,macOS,10.15,undefined,undefined,1920 x 1080,1920 x 1080
S003,60,Mannelijk,Links,5,105,right,no,800,rightarrow,1007,true,focus,yes,1266952,Firefox,108.0,macOS,10.15,undefined,undefined,1920 x 1080,1920 x 1080
S003,60,Mannelijk,Links,5,106,left,no,800,leftarrow,1184,true,focus,yes,1268903,Firefox,108.0,macOS,10.15,undefined,undefined,1920 x 1080,1920 x 1080
S003,60,Mannelijk,Links,5,107,left,no,800,leftarrow,1197,true,focus,yes,1270866,Firefox,108.0,macOS,10.15,undefined,undefined,1920 x 1080,1920 x 1080
S003,60,Mannelijk,Links,5,108,right,no,800,rightarrow,1081,true,focus,yes,1272713,Firefox,108.0,macOS,10.15,undefined,undefined,1920 x 1080,1920 x 1080
S003,60,Mannelijk,Links,5,109,left,no,800,leftarrow,1042,true,focus,yes,1274522,Firefox,108.0,macOS,10.15,undefined,undefined,1920 x 1080,1920 x 1080
S003,60,Mannelijk,Links,5,110,left,yes,800,leftarrow,918,false,focus,yes,1276203,Firefox,108.0,macOS,10.15,undefined,undefined,1920 x 1080,1920 x 1080
S003,60,Mannelijk,Links,5,111,right,yes,750,rightarrow,948,false,focus,yes,1277917,Firefox,108.0,macOS,10.15,undefined,undefined,1920 x 1080,1920 x 1080
S003,60,Mannelijk,Links,5,112,right,no,700,undefined,null,false,focus,yes,1279942,Firefox,108.0,macOS,10.15,undefined,undefined,1920 x 1080,1920 x 1080
S003,60,Mannelijk,Links,5,113,left,no,700,leftarrow,1166,true,focus,yes,1281875,Firefox,108.0,macOS,10.15,undefined,undefined,1920 x 1080,1920 x 1080
S003,60,Mannelijk,Links,5,114,left,yes,700,undefined,null,true,focus,yes,1283903,Firefox,108.0,macOS,10.15,undefined,undefined,1920 x 1080,1920 x 1080
S003,60,Mannelijk,Links,5,115,right,yes,750,rightarrow,1027,false,focus,yes,1285701,Firefox,108.0,macOS,10.15,undefined,undefined,1920 x 1080,1920 x 1080
S003,60,Mannelijk,Links,5,116,left,no,700,leftarrow,925,true,focus,yes,1287390,Firefox,108.0,macOS,10.15,undefined,undefined,1920 x 1080,1920 x 1080
S003,60,Mannelijk,Links,5,117,left,no,700,undefined,null,false,focus,yes,1289415,Firefox,108.0,macOS,10.15,undefined,undefined,1920 x 1080,1920 x 1080
S003,60,Mannelijk,Links,5,118,right,no,700,rightarrow,1091,true,focus,yes,1291272,Firefox,108.0,macOS,10.15,undefined,undefined,1920 x 1080,1920 x 1080
S003,60,Mannelijk,Links,5,119,right,no,700,rightarrow,1177,true,focus,yes,1293218,Firefox,108.0,macOS,10.15,undefined,undefined,1920 x 1080,1920 x 1080
S003,60,Mannelijk,Links,5,120,right,no,700,rightarrow,1168,true,focus,yes,1295155,Firefox,108.0,macOS,10.15,undefined,undefined,1920 x 1080,1920 x 1080
S003,60,Mannelijk,Links,5,121,left,yes,700,undefined,null,true,focus,yes,1297173,Firefox,108.0,macOS,10.15,undefined,undefined,1920 x 1080,1920 x 1080
S003,60,Mannelijk,Links,5,122,left,no,750,leftarrow,860,true,focus,yes,1298805,Firefox,108.0,macOS,10.15,undefined,undefined,1920 x 1080,1920 x 1080
S003,60,Mannelijk,Links,5,123,left,no,750,leftarrow,1172,true,focus,yes,1300744,Firefox,108.0,macOS,10.15,undefined,undefined,1920 x 1080,1920 x 1080
S003,60,Mannelijk,Links,5,124,right,yes,750,undefined,null,true,focus,yes,1302768,Firefox,108.0,macOS,10.15,undefined,undefined,1920 x 1080,1920 x 1080
S003,60,Mannelijk,Links,5,125,right,no,800,rightarrow,1033,true,focus,yes,1304570,Firefox,108.0,macOS,10.15,undefined,undefined,1920 x 1080,1920 x 1080
S003,60,Mannelijk,Links,5,126,left,no,800,leftarrow,1212,true,focus,yes,1306546,Firefox,108.0,macOS,10.15,undefined,undefined,1920 x 1080,1920 x 1080
S003,60,Mannelijk,Links,5,127,right,no,800,undefined,null,false,focus,yes,1308567,Firefox,108.0,macOS,10.15,undefined,undefined,1920 x 1080,1920 x 1080
S003,60,Mannelijk,Links,5,128,right,no,800,rightarrow,1114,true,focus,yes,1310445,Firefox,108.0,macOS,10.15,undefined,undefined,1920 x 1080,1920 x 1080
S003,60,Mannelijk,Links,6,1,right,no,800,rightarrow,1017,true,focus,yes,1338163,Firefox,108.0,macOS,10.15,undefined,undefined,1920 x 1080,1920 x 1080
S003,60,Mannelijk,Links,6,2,right,yes,800,rightarrow,955,false,focus,yes,1339882,Firefox,108.0,macOS,10.15,undefined,undefined,1920 x 1080,1920 x 1080
S003,60,Mannelijk,Links,6,3,left,no,750,leftarrow,667,true,focus,yes,1341317,Firefox,108.0,macOS,10.15,undefined,undefined,1920 x 1080,1920 x 1080
S003,60,Mannelijk,Links,6,4,right,no,750,rightarrow,825,true,focus,yes,1342908,Firefox,108.0,macOS,10.15,undefined,undefined,1920 x 1080,1920 x 1080
S003,60,Mannelijk,Links,6,5,right,no,750,rightarrow,904,true,focus,yes,1344574,Firefox,108.0,macOS,10.15,undefined,undefined,1920 x 1080,1920 x 1080
S003,60,Mannelijk,Links,6,6,left,yes,750,leftarrow,1014,false,focus,yes,1346358,Firefox,108.0,macOS,10.15,undefined,undefined,1920 x 1080,1920 x 1080
S003,60,Mannelijk,Links,6,7,left,no,700,leftarrow,973,true,focus,yes,1348096,Firefox,108.0,macOS,10.15,undefined,undefined,1920 x 1080,1920 x 1080
S003,60,Mannelijk,Links,6,8,left,no,700,undefined,null,false,focus,yes,1350119,Firefox,108.0,macOS,10.15,undefined,undefined,1920 x 1080,1920 x 1080
S003,60,Mannelijk,Links,6,9,left,no,700,leftarrow,1215,true,focus,yes,1352101,Firefox,108.0,macOS,10.15,undefined,undefined,1920 x 1080,1920 x 1080
S003,60,Mannelijk,Links,6,10,left,yes,700,undefined,null,true,focus,yes,1354120,Firefox,108.0,macOS,10.15,undefined,undefined,1920 x 1080,1920 x 1080
S003,60,Mannelijk,Links,6,11,right,no,750,undefined,null,false,focus,yes,1356140,Firefox,108.0,macOS,10.15,undefined,undefined,1920 x 1080,1920 x 1080
S003,60,Mannelijk,Links,6,12,left,no,750,leftarrow,1044,true,focus,yes,1357949,Firefox,108.0,macOS,10.15,undefined,undefined,1920 x 1080,1920 x 1080
S003,60,Mannelijk,Links,6,13,left,no,750,leftarrow,745,true,focus,yes,1359459,Firefox,108.0,macOS,10.15,undefined,undefined,1920 x 1080,1920 x 1080
S003,60,Mannelijk,Links,6,14,right,no,750,rightarrow,1018,true,focus,yes,1361237,Firefox,108.0,macOS,10.15,undefined,undefined,1920 x 1080,1920 x 1080
S003,60,Mannelijk,Links,6,15,right,no,750,undefined,null,false,focus,yes,1363255,Firefox,108.0,macOS,10.15,undefined,undefined,1920 x 1080,1920 x 1080
S003,60,Mannelijk,Links,6,16,right,yes,750,undefined,null,true,focus,yes,1365271,Firefox,108.0,macOS,10.15,undefined,undefined,1920 x 1080,1920 x 1080
S003,60,Mannelijk,Links,6,17,right,no,800,rightarrow,672,true,focus,yes,1366709,Firefox,108.0,macOS,10.15,undefined,undefined,1920 x 1080,1920 x 1080
S003,60,Mannelijk,Links,6,18,right,yes,800,undefined,null,true,focus,yes,1368735,Firefox,108.0,macOS,10.15,undefined,undefined,1920 x 1080,1920 x 1080
S003,60,Mannelijk,Links,6,19,right,no,850,rightarrow,677,true,focus,yes,1370180,Firefox,108.0,macOS,10.15,undefined,undefined,1920 x 1080,1920 x 1080
S003,60,Mannelijk,Links,6,20,right,no,850,rightarrow,671,true,focus,yes,1371619,Firefox,108.0,macOS,10.15,undefined,undefined,1920 x 1080,1920 x 1080
