participantID;age;gender;handedness;block_i;trial_i;stim;signal;SSD;response;rt;correct;focus;Fullscreen;time_elapsed;browser_name;browser_version;os_name;os_version;tablet;mobile;screen_resolution;window_resolution
H026;25;Vrouwelijk;Rechts;0;1;left;yes;200;leftarrow;475;false;focus;yes;91068;Chrome;108.0;macOS;10.15.7;undefined;undefined;1440 x 900;1440 x 900
H026;25;Vrouwelijk;Rechts;0;2;right;no;150;rightarrow;419;true;focus;yes;93002;Chrome;108.0;macOS;10.15.7;undefined;undefined;1440 x 900;1440 x 900
H026;25;Vrouwelijk;Rechts;0;3;right;no;150;rightarrow;562;true;focus;yes;95084;Chrome;108.0;macOS;10.15.7;undefined;undefined;1440 x 900;1440 x 900
H026;25;Vrouwelijk;Rechts;0;4;right;yes;150;leftarrow;795;false;focus;yes;97392;Chrome;108.0;macOS;10.15.7;undefined;undefined;1440 x 900;1440 x 900
H026;25;Vrouwelijk;Rechts;0;5;left;no;100;leftarrow;472;true;focus;yes;99386;Chrome;108.0;macOS;10.15.7;undefined;undefined;1440 x 900;1440 x 900
H026;25;Vrouwelijk;Rechts;0;6;left;no;100;leftarrow;356;true;focus;yes;101254;Chrome;108.0;macOS;10.15.7;undefined;undefined;1440 x 900;1440 x 900
H026;25;Vrouwelijk;Rechts;0;7;right;no;100;undefined;null;false;focus;yes;104031;Chrome;108.0;macOS;10.15.7;undefined;undefined;1440 x 900;1440 x 900
H026;25;Vrouwelijk;Rechts;0;8;left;no;100;leftarrow;461;true;focus;yes;106013;Chrome;108.0;macOS;10.15.7;undefined;undefined;1440 x 900;1440 x 900
H026;25;Vrouwelijk;Rechts;1;1;left;no;100;leftarrow;344;true;focus;yes;125865;Chrome;108.0;macOS;10.15.7;undefined;undefined;1440 x 900;1440 x 900
H026;25;Vrouwelijk;Rechts;1;2;right;yes;100;rightarrow;318;false;focus;yes;126939;Chrome;108.0;macOS;10.15.7;undefined;undefined;1440 x 900;1440 x 900
H026;25;Vrouwelijk;Rechts;1;3;right;no;50;leftarrow;306;false;focus;yes;128002;Chrome;108.0;macOS;10.15.7;undefined;undefined;1440 x 900;1440 x 900
H026;25;Vrouwelijk;Rechts;1;4;right;no;50;rightarrow;360;true;focus;yes;129118;Chrome;108.0;macOS;10.15.7;undefined;undefined;1440 x 900;1440 x 900
H026;25;Vrouwelijk;Rechts;1;5;left;no;50;leftarrow;402;true;focus;yes;130276;Chrome;108.0;macOS;10.15.7;undefined;undefined;1440 x 900;1440 x 900
H026;25;Vrouwelijk;Rechts;1;6;left;yes;50;rightarrow;534;false;focus;yes;131566;Chrome;108.0;macOS;10.15.7;undefined;undefined;1440 x 900;1440 x 900
H026;25;Vrouwelijk;Rechts;1;7;right;no;50;rightarrow;495;true;focus;yes;132816;Chrome;108.0;macOS;10.15.7;undefined;undefined;1440 x 900;1440 x 900
H026;25;Vrouwelijk;Rechts;1;8;left;no;50;leftarrow;327;true;focus;yes;133898;Chrome;108.0;macOS;10.15.7;undefined;undefined;1440 x 900;1440 x 900
H026;25;Vrouwelijk;Rechts;1;9;right;no;50;rightarrow;397;true;focus;yes;135051;Chrome;108.0;macOS;10.15.7;undefined;undefined;1440 x 900;1440 x 900
H026;25;Vrouwelijk;Rechts;1;10;left;yes;50;leftarrow;303;false;focus;yes;136111;Chrome;108.0;macOS;10.15.7;undefined;undefined;1440 x 900;1440 x 900
H026;25;Vrouwelijk;Rechts;1;11;left;no;50;leftarrow;459;true;focus;yes;137325;Chrome;108.0;macOS;10.15.7;undefined;undefined;1440 x 900;1440 x 900
H026;25;Vrouwelijk;Rechts;1;12;right;no;50;rightarrow;327;true;focus;yes;138408;Chrome;108.0;macOS;10.15.7;undefined;undefined;1440 x 900;1440 x 900
H026;25;Vrouwelijk;Rechts;1;13;left;no;50;leftarrow;351;true;focus;yes;139515;Chrome;108.0;macOS;10.15.7;undefined;undefined;1440 x 900;1440 x 900
H026;25;Vrouwelijk;Rechts;1;14;right;yes;50;leftarrow;394;false;focus;yes;140665;Chrome;108.0;macOS;10.15.7;undefined;undefined;1440 x 900;1440 x 900
H026;25;Vrouwelijk;Rechts;1;15;right;no;50;rightarrow;446;true;focus;yes;141866;Chrome;108.0;macOS;10.15.7;undefined;undefined;1440 x 900;1440 x 900
H026;25;Vrouwelijk;Rechts;1;16;left;no;50;leftarrow;364;true;focus;yes;142986;Chrome;108.0;macOS;10.15.7;undefined;undefined;1440 x 900;1440 x 900
H026;25;Vrouwelijk;Rechts;1;17;right;yes;50;rightarrow;432;false;focus;yes;144174;Chrome;108.0;macOS;10.15.7;undefined;undefined;1440 x 900;1440 x 900
H026;25;Vrouwelijk;Rechts;1;18;left;no;50;leftarrow;350;true;focus;yes;145279;Chrome;108.0;macOS;10.15.7;undefined;undefined;1440 x 900;1440 x 900
H026;25;Vrouwelijk;Rechts;1;19;left;yes;50;leftarrow;405;false;focus;yes;146439;Chrome;108.0;macOS;10.15.7;undefined;undefined;1440 x 900;1440 x 900
H026;25;Vrouwelijk;Rechts;1;20;left;no;50;leftarrow;565;true;focus;yes;147760;Chrome;108.0;macOS;10.15.7;undefined;undefined;1440 x 900;1440 x 900
H026;25;Vrouwelijk;Rechts;1;21;right;no;50;rightarrow;444;true;focus;yes;148959;Chrome;108.0;macOS;10.15.7;undefined;undefined;1440 x 900;1440 x 900
H026;25;Vrouwelijk;Rechts;1;22;right;no;50;leftarrow;543;false;focus;yes;150257;Chrome;108.0;macOS;10.15.7;undefined;undefined;1440 x 900;1440 x 900
H026;25;Vrouwelijk;Rechts;1;23;right;no;50;rightarrow;522;true;focus;yes;151534;Chrome;108.0;macOS;10.15.7;undefined;undefined;1440 x 900;1440 x 900
H026;25;Vrouwelijk;Rechts;1;24;left;no;50;leftarrow;418;true;focus;yes;152709;Chrome;108.0;macOS;10.15.7;undefined;undefined;1440 x 900;1440 x 900
H026;25;Vrouwelijk;Rechts;1;25;right;no;50;rightarrow;524;true;focus;yes;153988;Chrome;108.0;macOS;10.15.7;undefined;undefined;1440 x 900;1440 x 900
H026;25;Vrouwelijk;Rechts;1;26;right;no;50;rightarrow;396;true;focus;yes;155140;Chrome;108.0;macOS;10.15.7;undefined;undefined;1440 x 900;1440 x 900
H026;25;Vrouwelijk;Rechts;1;27;right;yes;50;leftarrow;659;false;focus;yes;156555;Chrome;108.0;macOS;10.15.7;undefined;undefined;1440 x 900;1440 x 900
H026;25;Vrouwelijk;Rechts;1;28;left;no;50;leftarrow;413;true;focus;yes;157724;Chrome;108.0;macOS;10.15.7;undefined;undefined;1440 x 900;1440 x 900
H026;25;Vrouwelijk;Rechts;1;29;left;yes;50;rightarrow;658;false;focus;yes;159137;Chrome;108.0;macOS;10.15.7;undefined;undefined;1440 x 900;1440 x 900
H026;25;Vrouwelijk;Rechts;1;30;left;no;50;leftarrow;406;true;focus;yes;160302;Chrome;108.0;macOS;10.15.7;undefined;undefined;1440 x 900;1440 x 900
H026;25;Vrouwelijk;Rechts;1;31;left;no;50;leftarrow;433;true;focus;yes;161490;Chrome;108.0;macOS;10.15.7;undefined;undefined;1440 x 900;1440 x 900
H026;25;Vrouwelijk;Rechts;1;32;right;no;50;rightarrow;363;true;focus;yes;162609;Chrome;108.0;macOS;10.15.7;undefined;undefined;1440 x 900;1440 x 900
H026;25;Vrouwelijk;Rechts;1;33;right;no;50;rightarrow;411;true;focus;yes;163776;Chrome;108.0;macOS;10.15.7;undefined;undefined;1440 x 900;1440 x 900
H026;25;Vrouwelijk;Rechts;1;34;right;no;50;rightarrow;388;true;focus;yes;164922;Chrome;108.0;macOS;10.15.7;undefined;undefined;1440 x 900;1440 x 900
H026;25;Vrouwelijk;Rechts;1;35;left;yes;50;rightarrow;519;false;focus;yes;166197;Chrome;108.0;macOS;10.15.7;undefined;undefined;1440 x 900;1440 x 900
H026;25;Vrouwelijk;Rechts;1;36;right;yes;50;leftarrow;576;false;focus;yes;167530;Chrome;108.0;macOS;10.15.7;undefined;undefined;1440 x 900;1440 x 900
H026;25;Vrouwelijk;Rechts;1;37;left;no;50;leftarrow;409;true;focus;yes;168696;Chrome;108.0;macOS;10.15.7;undefined;undefined;1440 x 900;1440 x 900
H026;25;Vrouwelijk;Rechts;1;38;left;no;50;leftarrow;361;true;focus;yes;169814;Chrome;108.0;macOS;10.15.7;undefined;undefined;1440 x 900;1440 x 900
H026;25;Vrouwelijk;Rechts;1;39;right;no;50;rightarrow;357;true;focus;yes;170927;Chrome;108.0;macOS;10.15.7;undefined;undefined;1440 x 900;1440 x 900
H026;25;Vrouwelijk;Rechts;1;40;left;no;50;leftarrow;417;true;focus;yes;172099;Chrome;108.0;macOS;10.15.7;undefined;undefined;1440 x 900;1440 x 900
H026;25;Vrouwelijk;Rechts;1;41;right;no;50;rightarrow;400;true;focus;yes;173255;Chrome;108.0;macOS;10.15.7;undefined;undefined;1440 x 900;1440 x 900
H026;25;Vrouwelijk;Rechts;1;42;left;no;50;leftarrow;412;true;focus;yes;174423;Chrome;108.0;macOS;10.15.7;undefined;undefined;1440 x 900;1440 x 900
H026;25;Vrouwelijk;Rechts;1;43;right;no;50;rightarrow;361;true;focus;yes;175540;Chrome;108.0;macOS;10.15.7;undefined;undefined;1440 x 900;1440 x 900
H026;25;Vrouwelijk;Rechts;1;44;right;no;50;rightarrow;339;true;focus;yes;176635;Chrome;108.0;macOS;10.15.7;undefined;undefined;1440 x 900;1440 x 900
H026;25;Vrouwelijk;Rechts;1;45;left;no;50;leftarrow;329;true;focus;yes;177721;Chrome;108.0;macOS;10.15.7;undefined;undefined;1440 x 900;1440 x 900
H026;25;Vrouwelijk;Rechts;1;46;left;no;50;leftarrow;359;true;focus;yes;178836;Chrome;108.0;macOS;10.15.7;undefined;undefined;1440 x 900;1440 x 900
H026;25;Vrouwelijk;Rechts;1;47;right;yes;50;rightarrow;446;false;focus;yes;180037;Chrome;108.0;macOS;10.15.7;undefined;undefined;1440 x 900;1440 x 900
H026;25;Vrouwelijk;Rechts;1;48;left;yes;50;rightarrow;858;false;focus;yes;181651;Chrome;108.0;macOS;10.15.7;undefined;undefined;1440 x 900;1440 x 900
H026;25;Vrouwelijk;Rechts;1;49;left;yes;50;rightarrow;567;false;focus;yes;182974;Chrome;108.0;macOS;10.15.7;undefined;undefined;1440 x 900;1440 x 900
H026;25;Vrouwelijk;Rechts;1;50;right;no;50;rightarrow;456;true;focus;yes;184186;Chrome;108.0;macOS;10.15.7;undefined;undefined;1440 x 900;1440 x 900
H026;25;Vrouwelijk;Rechts;1;51;right;no;50;rightarrow;472;true;focus;yes;185415;Chrome;108.0;macOS;10.15.7;undefined;undefined;1440 x 900;1440 x 900
H026;25;Vrouwelijk;Rechts;1;52;left;no;50;leftarrow;379;true;focus;yes;186550;Chrome;108.0;macOS;10.15.7;undefined;undefined;1440 x 900;1440 x 900
H026;25;Vrouwelijk;Rechts;1;53;right;no;50;rightarrow;391;true;focus;yes;187699;Chrome;108.0;macOS;10.15.7;undefined;undefined;1440 x 900;1440 x 900
H026;25;Vrouwelijk;Rechts;1;54;right;yes;50;leftarrow;584;false;focus;yes;189039;Chrome;108.0;macOS;10.15.7;undefined;undefined;1440 x 900;1440 x 900
H026;25;Vrouwelijk;Rechts;1;55;left;no;50;leftarrow;397;true;focus;yes;190192;Chrome;108.0;macOS;10.15.7;undefined;undefined;1440 x 900;1440 x 900
H026;25;Vrouwelijk;Rechts;1;56;left;no;50;leftarrow;424;true;focus;yes;191371;Chrome;108.0;macOS;10.15.7;undefined;undefined;1440 x 900;1440 x 900
H026;25;Vrouwelijk;Rechts;1;57;right;yes;50;leftarrow;1208;false;focus;yes;193336;Chrome;108.0;macOS;10.15.7;undefined;undefined;1440 x 900;1440 x 900
H026;25;Vrouwelijk;Rechts;1;58;right;no;50;rightarrow;537;true;focus;yes;194630;Chrome;108.0;macOS;10.15.7;undefined;undefined;1440 x 900;1440 x 900
H026;25;Vrouwelijk;Rechts;1;59;left;no;50;leftarrow;659;true;focus;yes;196045;Chrome;108.0;macOS;10.15.7;undefined;undefined;1440 x 900;1440 x 900
H026;25;Vrouwelijk;Rechts;1;60;right;no;50;rightarrow;563;true;focus;yes;197366;Chrome;108.0;macOS;10.15.7;undefined;undefined;1440 x 900;1440 x 900
H026;25;Vrouwelijk;Rechts;1;61;left;no;50;leftarrow;712;true;focus;yes;198834;Chrome;108.0;macOS;10.15.7;undefined;undefined;1440 x 900;1440 x 900
H026;25;Vrouwelijk;Rechts;1;62;left;yes;50;rightarrow;657;false;focus;yes;200246;Chrome;108.0;macOS;10.15.7;undefined;undefined;1440 x 900;1440 x 900
H026;25;Vrouwelijk;Rechts;1;63;right;no;50;rightarrow;396;true;focus;yes;201398;Chrome;108.0;macOS;10.15.7;undefined;undefined;1440 x 900;1440 x 900
H026;25;Vrouwelijk;Rechts;1;64;left;no;50;leftarrow;410;true;focus;yes;202563;Chrome;108.0;macOS;10.15.7;undefined;undefined;1440 x 900;1440 x 900
H026;25;Vrouwelijk;Rechts;1;65;right;yes;50;leftarrow;587;false;focus;yes;203906;Chrome;108.0;macOS;10.15.7;undefined;undefined;1440 x 900;1440 x 900
H026;25;Vrouwelijk;Rechts;1;66;left;no;50;leftarrow;370;true;focus;yes;205030;Chrome;108.0;macOS;10.15.7;undefined;undefined;1440 x 900;1440 x 900
H026;25;Vrouwelijk;Rechts;1;67;right;no;50;rightarrow;460;true;focus;yes;206247;Chrome;108.0;macOS;10.15.7;undefined;undefined;1440 x 900;1440 x 900
H026;25;Vrouwelijk;Rechts;1;68;left;no;50;leftarrow;616;true;focus;yes;207619;Chrome;108.0;macOS;10.15.7;undefined;undefined;1440 x 900;1440 x 900
H026;25;Vrouwelijk;Rechts;1;69;right;no;50;rightarrow;420;true;focus;yes;208795;Chrome;108.0;macOS;10.15.7;undefined;undefined;1440 x 900;1440 x 900
H026;25;Vrouwelijk;Rechts;1;70;left;yes;50;rightarrow;586;false;focus;yes;210137;Chrome;108.0;macOS;10.15.7;undefined;undefined;1440 x 900;1440 x 900
H026;25;Vrouwelijk;Rechts;1;71;right;no;50;leftarrow;412;false;focus;yes;211306;Chrome;108.0;macOS;10.15.7;undefined;undefined;1440 x 900;1440 x 900
H026;25;Vrouwelijk;Rechts;1;72;left;no;50;leftarrow;414;true;focus;yes;212475;Chrome;108.0;macOS;10.15.7;undefined;undefined;1440 x 900;1440 x 900
H026;25;Vrouwelijk;Rechts;1;73;right;no;50;rightarrow;460;true;focus;yes;213691;Chrome;108.0;macOS;10.15.7;undefined;undefined;1440 x 900;1440 x 900
H026;25;Vrouwelijk;Rechts;1;74;right;yes;50;leftarrow;523;false;focus;yes;214971;Chrome;108.0;macOS;10.15.7;undefined;undefined;1440 x 900;1440 x 900
H026;25;Vrouwelijk;Rechts;1;75;right;no;50;rightarrow;611;true;focus;yes;216338;Chrome;108.0;macOS;10.15.7;undefined;undefined;1440 x 900;1440 x 900
H026;25;Vrouwelijk;Rechts;1;76;left;no;50;leftarrow;407;true;focus;yes;217502;Chrome;108.0;macOS;10.15.7;undefined;undefined;1440 x 900;1440 x 900
H026;25;Vrouwelijk;Rechts;1;77;left;no;50;leftarrow;407;true;focus;yes;218665;Chrome;108.0;macOS;10.15.7;undefined;undefined;1440 x 900;1440 x 900
H026;25;Vrouwelijk;Rechts;1;78;left;no;50;leftarrow;388;true;focus;yes;219809;Chrome;108.0;macOS;10.15.7;undefined;undefined;1440 x 900;1440 x 900
H026;25;Vrouwelijk;Rechts;1;79;right;no;50;rightarrow;432;true;focus;yes;220997;Chrome;108.0;macOS;10.15.7;undefined;undefined;1440 x 900;1440 x 900
H026;25;Vrouwelijk;Rechts;1;80;left;yes;50;rightarrow;686;false;focus;yes;222441;Chrome;108.0;macOS;10.15.7;undefined;undefined;1440 x 900;1440 x 900
H026;25;Vrouwelijk;Rechts;1;81;left;no;50;leftarrow;594;true;focus;yes;223795;Chrome;108.0;macOS;10.15.7;undefined;undefined;1440 x 900;1440 x 900
H026;25;Vrouwelijk;Rechts;1;82;right;no;50;rightarrow;438;true;focus;yes;224989;Chrome;108.0;macOS;10.15.7;undefined;undefined;1440 x 900;1440 x 900
H026;25;Vrouwelijk;Rechts;1;83;left;no;50;leftarrow;535;true;focus;yes;226281;Chrome;108.0;macOS;10.15.7;undefined;undefined;1440 x 900;1440 x 900
H026;25;Vrouwelijk;Rechts;1;84;left;yes;50;rightarrow;553;false;focus;yes;227590;Chrome;108.0;macOS;10.15.7;undefined;undefined;1440 x 900;1440 x 900
H026;25;Vrouwelijk;Rechts;1;85;right;no;50;rightarrow;566;true;focus;yes;228912;Chrome;108.0;macOS;10.15.7;undefined;undefined;1440 x 900;1440 x 900
H026;25;Vrouwelijk;Rechts;1;86;right;no;50;rightarrow;395;true;focus;yes;230063;Chrome;108.0;macOS;10.15.7;undefined;undefined;1440 x 900;1440 x 900
H026;25;Vrouwelijk;Rechts;1;87;right;yes;50;leftarrow;514;false;focus;yes;231334;Chrome;108.0;macOS;10.15.7;undefined;undefined;1440 x 900;1440 x 900
H026;25;Vrouwelijk;Rechts;1;88;left;no;50;leftarrow;409;true;focus;yes;232499;Chrome;108.0;macOS;10.15.7;undefined;undefined;1440 x 900;1440 x 900
H026;25;Vrouwelijk;Rechts;1;89;left;no;50;leftarrow;441;true;focus;yes;233695;Chrome;108.0;macOS;10.15.7;undefined;undefined;1440 x 900;1440 x 900
H026;25;Vrouwelijk;Rechts;1;90;right;no;50;rightarrow;527;true;focus;yes;234978;Chrome;108.0;macOS;10.15.7;undefined;undefined;1440 x 900;1440 x 900
H026;25;Vrouwelijk;Rechts;1;91;right;yes;50;rightarrow;642;false;focus;yes;236376;Chrome;108.0;macOS;10.15.7;undefined;undefined;1440 x 900;1440 x 900
H026;25;Vrouwelijk;Rechts;1;92;left;no;50;leftarrow;378;true;focus;yes;237511;Chrome;108.0;macOS;10.15.7;undefined;undefined;1440 x 900;1440 x 900
H026;25;Vrouwelijk;Rechts;1;93;right;no;50;rightarrow;478;true;focus;yes;238745;Chrome;108.0;macOS;10.15.7;undefined;undefined;1440 x 900;1440 x 900
H026;25;Vrouwelijk;Rechts;1;94;right;no;50;rightarrow;422;true;focus;yes;239924;Chrome;108.0;macOS;10.15.7;undefined;undefined;1440 x 900;1440 x 900
H026;25;Vrouwelijk;Rechts;1;95;left;no;50;leftarrow;458;true;focus;yes;241137;Chrome;108.0;macOS;10.15.7;undefined;undefined;1440 x 900;1440 x 900
H026;25;Vrouwelijk;Rechts;1;96;left;yes;50;rightarrow;535;false;focus;yes;242428;Chrome;108.0;macOS;10.15.7;undefined;undefined;1440 x 900;1440 x 900
H026;25;Vrouwelijk;Rechts;1;97;right;no;50;rightarrow;1115;true;focus;yes;244298;Chrome;108.0;macOS;10.15.7;undefined;undefined;1440 x 900;1440 x 900
H026;25;Vrouwelijk;Rechts;1;98;left;no;50;leftarrow;407;true;focus;yes;245461;Chrome;108.0;macOS;10.15.7;undefined;undefined;1440 x 900;1440 x 900
H026;25;Vrouwelijk;Rechts;1;99;left;no;50;leftarrow;538;true;focus;yes;246754;Chrome;108.0;macOS;10.15.7;undefined;undefined;1440 x 900;1440 x 900
H026;25;Vrouwelijk;Rechts;1;100;right;no;50;rightarrow;517;true;focus;yes;248029;Chrome;108.0;macOS;10.15.7;undefined;undefined;1440 x 900;1440 x 900
H026;25;Vrouwelijk;Rechts;1;101;left;yes;50;rightarrow;605;false;focus;yes;249390;Chrome;108.0;macOS;10.15.7;undefined;undefined;1440 x 900;1440 x 900
H026;25;Vrouwelijk;Rechts;1;102;right;no;50;undefined;null;false;focus;yes;251399;Chrome;108.0;macOS;10.15.7;undefined;undefined;1440 x 900;1440 x 900
H026;25;Vrouwelijk;Rechts;1;103;left;no;50;undefined;null;false;focus;yes;253412;Chrome;108.0;macOS;10.15.7;undefined;undefined;1440 x 900;1440 x 900
H026;25;Vrouwelijk;Rechts;1;104;right;yes;50;leftarrow;-120;false;focus;yes;254053;Chrome;108.0;macOS;10.15.7;undefined;undefined;1440 x 900;1440 x 900
H026;25;Vrouwelijk;Rechts;1;105;left;yes;50;rightarrow;650;false;focus;yes;255459;Chrome;108.0;macOS;10.15.7;undefined;undefined;1440 x 900;1440 x 900
H026;25;Vrouwelijk;Rechts;1;106;left;no;50;leftarrow;550;true;focus;yes;256766;Chrome;108.0;macOS;10.15.7;undefined;undefined;1440 x 900;1440 x 900
H026;25;Vrouwelijk;Rechts;1;107;left;no;50;leftarrow;632;true;focus;yes;258154;Chrome;108.0;macOS;10.15.7;undefined;undefined;1440 x 900;1440 x 900
H026;25;Vrouwelijk;Rechts;1;108;right;no;50;rightarrow;811;true;focus;yes;259721;Chrome;108.0;macOS;10.15.7;undefined;undefined;1440 x 900;1440 x 900
H026;25;Vrouwelijk;Rechts;1;109;right;no;50;rightarrow;441;true;focus;yes;260919;Chrome;108.0;macOS;10.15.7;undefined;undefined;1440 x 900;1440 x 900
H026;25;Vrouwelijk;Rechts;1;110;left;no;50;leftarrow;485;true;focus;yes;262161;Chrome;108.0;macOS;10.15.7;undefined;undefined;1440 x 900;1440 x 900
H026;25;Vrouwelijk;Rechts;1;111;right;yes;50;leftarrow;623;false;focus;yes;263543;Chrome;108.0;macOS;10.15.7;undefined;undefined;1440 x 900;1440 x 900
H026;25;Vrouwelijk;Rechts;1;112;right;no;50;rightarrow;420;true;focus;yes;264719;Chrome;108.0;macOS;10.15.7;undefined;undefined;1440 x 900;1440 x 900
H026;25;Vrouwelijk;Rechts;1;113;left;no;50;leftarrow;376;true;focus;yes;265851;Chrome;108.0;macOS;10.15.7;undefined;undefined;1440 x 900;1440 x 900
H026;25;Vrouwelijk;Rechts;1;114;right;no;50;rightarrow;572;true;focus;yes;267180;Chrome;108.0;macOS;10.15.7;undefined;undefined;1440 x 900;1440 x 900
H026;25;Vrouwelijk;Rechts;1;115;left;no;50;leftarrow;440;true;focus;yes;268376;Chrome;108.0;macOS;10.15.7;undefined;undefined;1440 x 900;1440 x 900
H026;25;Vrouwelijk;Rechts;1;116;left;no;50;leftarrow;542;true;focus;yes;269676;Chrome;108.0;macOS;10.15.7;undefined;undefined;1440 x 900;1440 x 900
H026;25;Vrouwelijk;Rechts;1;117;left;yes;50;rightarrow;555;false;focus;yes;270987;Chrome;108.0;macOS;10.15.7;undefined;undefined;1440 x 900;1440 x 900
H026;25;Vrouwelijk;Rechts;1;118;right;yes;50;rightarrow;314;false;focus;yes;272057;Chrome;108.0;macOS;10.15.7;undefined;undefined;1440 x 900;1440 x 900
H026;25;Vrouwelijk;Rechts;1;119;right;no;50;rightarrow;410;true;focus;yes;273225;Chrome;108.0;macOS;10.15.7;undefined;undefined;1440 x 900;1440 x 900
H026;25;Vrouwelijk;Rechts;1;120;right;no;50;rightarrow;387;true;focus;yes;274368;Chrome;108.0;macOS;10.15.7;undefined;undefined;1440 x 900;1440 x 900
H026;25;Vrouwelijk;Rechts;1;121;right;no;50;rightarrow;425;true;focus;yes;275549;Chrome;108.0;macOS;10.15.7;undefined;undefined;1440 x 900;1440 x 900
H026;25;Vrouwelijk;Rechts;1;122;left;no;50;leftarrow;438;true;focus;yes;276743;Chrome;108.0;macOS;10.15.7;undefined;undefined;1440 x 900;1440 x 900
H026;25;Vrouwelijk;Rechts;1;123;right;no;50;rightarrow;506;true;focus;yes;278006;Chrome;108.0;macOS;10.15.7;undefined;undefined;1440 x 900;1440 x 900
H026;25;Vrouwelijk;Rechts;1;124;right;no;50;rightarrow;388;true;focus;yes;279150;Chrome;108.0;macOS;10.15.7;undefined;undefined;1440 x 900;1440 x 900
H026;25;Vrouwelijk;Rechts;1;125;right;yes;50;leftarrow;491;false;focus;yes;280399;Chrome;108.0;macOS;10.15.7;undefined;undefined;1440 x 900;1440 x 900
H026;25;Vrouwelijk;Rechts;1;126;left;no;50;leftarrow;425;true;focus;yes;281583;Chrome;108.0;macOS;10.15.7;undefined;undefined;1440 x 900;1440 x 900
H026;25;Vrouwelijk;Rechts;1;127;left;yes;50;rightarrow;516;false;focus;yes;282855;Chrome;108.0;macOS;10.15.7;undefined;undefined;1440 x 900;1440 x 900
H026;25;Vrouwelijk;Rechts;1;128;left;no;50;leftarrow;589;true;focus;yes;284201;Chrome;108.0;macOS;10.15.7;undefined;undefined;1440 x 900;1440 x 900
H026;25;Vrouwelijk;Rechts;2;1;left;no;50;leftarrow;386;true;focus;yes;304281;Chrome;108.0;macOS;10.15.7;undefined;undefined;1440 x 900;1440 x 900
H026;25;Vrouwelijk;Rechts;2;2;right;yes;50;leftarrow;569;false;focus;yes;305607;Chrome;108.0;macOS;10.15.7;undefined;undefined;1440 x 900;1440 x 900
H026;25;Vrouwelijk;Rechts;2;3;right;no;50;rightarrow;928;true;focus;yes;307292;Chrome;108.0;macOS;10.15.7;undefined;undefined;1440 x 900;1440 x 900
H026;25;Vrouwelijk;Rechts;2;4;left;no;50;leftarrow;369;true;focus;yes;308418;Chrome;108.0;macOS;10.15.7;undefined;undefined;1440 x 900;1440 x 900
H026;25;Vrouwelijk;Rechts;2;5;left;no;50;leftarrow;371;true;focus;yes;309544;Chrome;108.0;macOS;10.15.7;undefined;undefined;1440 x 900;1440 x 900
H026;25;Vrouwelijk;Rechts;2;6;right;no;50;rightarrow;378;true;focus;yes;310679;Chrome;108.0;macOS;10.15.7;undefined;undefined;1440 x 900;1440 x 900
H026;25;Vrouwelijk;Rechts;2;7;left;yes;50;leftarrow;302;false;focus;yes;311737;Chrome;108.0;macOS;10.15.7;undefined;undefined;1440 x 900;1440 x 900
H026;25;Vrouwelijk;Rechts;2;8;right;no;50;rightarrow;374;true;focus;yes;312868;Chrome;108.0;macOS;10.15.7;undefined;undefined;1440 x 900;1440 x 900
H026;25;Vrouwelijk;Rechts;2;9;right;no;50;rightarrow;363;true;focus;yes;313988;Chrome;108.0;macOS;10.15.7;undefined;undefined;1440 x 900;1440 x 900
H026;25;Vrouwelijk;Rechts;2;10;left;yes;50;rightarrow;454;false;focus;yes;315198;Chrome;108.0;macOS;10.15.7;undefined;undefined;1440 x 900;1440 x 900
H026;25;Vrouwelijk;Rechts;2;11;left;no;50;rightarrow;417;false;focus;yes;316371;Chrome;108.0;macOS;10.15.7;undefined;undefined;1440 x 900;1440 x 900
H026;25;Vrouwelijk;Rechts;2;12;left;no;50;leftarrow;506;true;focus;yes;317634;Chrome;108.0;macOS;10.15.7;undefined;undefined;1440 x 900;1440 x 900
H026;25;Vrouwelijk;Rechts;2;13;left;no;50;leftarrow;400;true;focus;yes;318790;Chrome;108.0;macOS;10.15.7;undefined;undefined;1440 x 900;1440 x 900
H026;25;Vrouwelijk;Rechts;2;14;right;yes;50;leftarrow;586;false;focus;yes;320131;Chrome;108.0;macOS;10.15.7;undefined;undefined;1440 x 900;1440 x 900
H026;25;Vrouwelijk;Rechts;2;15;right;no;50;rightarrow;453;true;focus;yes;321342;Chrome;108.0;macOS;10.15.7;undefined;undefined;1440 x 900;1440 x 900
H026;25;Vrouwelijk;Rechts;2;16;right;no;50;rightarrow;387;true;focus;yes;322486;Chrome;108.0;macOS;10.15.7;undefined;undefined;1440 x 900;1440 x 900
H026;25;Vrouwelijk;Rechts;2;17;right;no;50;rightarrow;365;true;focus;yes;323607;Chrome;108.0;macOS;10.15.7;undefined;undefined;1440 x 900;1440 x 900
H026;25;Vrouwelijk;Rechts;2;18;left;no;50;leftarrow;474;true;focus;yes;324837;Chrome;108.0;macOS;10.15.7;undefined;undefined;1440 x 900;1440 x 900
H026;25;Vrouwelijk;Rechts;2;19;right;no;50;rightarrow;485;true;focus;yes;326081;Chrome;108.0;macOS;10.15.7;undefined;undefined;1440 x 900;1440 x 900
H026;25;Vrouwelijk;Rechts;2;20;left;yes;50;rightarrow;501;false;focus;yes;327339;Chrome;108.0;macOS;10.15.7;undefined;undefined;1440 x 900;1440 x 900
H026;25;Vrouwelijk;Rechts;2;21;right;no;50;rightarrow;393;true;focus;yes;328488;Chrome;108.0;macOS;10.15.7;undefined;undefined;1440 x 900;1440 x 900
H026;25;Vrouwelijk;Rechts;2;22;left;no;50;leftarrow;339;true;focus;yes;329583;Chrome;108.0;macOS;10.15.7;undefined;undefined;1440 x 900;1440 x 900
H026;25;Vrouwelijk;Rechts;2;23;left;no;50;leftarrow;400;true;focus;yes;330739;Chrome;108.0;macOS;10.15.7;undefined;undefined;1440 x 900;1440 x 900
H026;25;Vrouwelijk;Rechts;2;24;right;yes;50;leftarrow;707;false;focus;yes;332202;Chrome;108.0;macOS;10.15.7;undefined;undefined;1440 x 900;1440 x 900
H026;25;Vrouwelijk;Rechts;2;25;left;no;50;leftarrow;388;true;focus;yes;333346;Chrome;108.0;macOS;10.15.7;undefined;undefined;1440 x 900;1440 x 900
H026;25;Vrouwelijk;Rechts;2;26;right;no;50;rightarrow;393;true;focus;yes;334495;Chrome;108.0;macOS;10.15.7;undefined;undefined;1440 x 900;1440 x 900
H026;25;Vrouwelijk;Rechts;2;27;right;yes;50;leftarrow;575;false;focus;yes;335826;Chrome;108.0;macOS;10.15.7;undefined;undefined;1440 x 900;1440 x 900
H026;25;Vrouwelijk;Rechts;2;28;right;no;50;rightarrow;637;true;focus;yes;337219;Chrome;108.0;macOS;10.15.7;undefined;undefined;1440 x 900;1440 x 900
H026;25;Vrouwelijk;Rechts;2;29;left;no;50;leftarrow;434;true;focus;yes;338409;Chrome;108.0;macOS;10.15.7;undefined;undefined;1440 x 900;1440 x 900
H026;25;Vrouwelijk;Rechts;2;30;left;no;50;leftarrow;406;true;focus;yes;339572;Chrome;108.0;macOS;10.15.7;undefined;undefined;1440 x 900;1440 x 900
H026;25;Vrouwelijk;Rechts;2;31;right;no;50;rightarrow;383;true;focus;yes;340711;Chrome;108.0;macOS;10.15.7;undefined;undefined;1440 x 900;1440 x 900
H026;25;Vrouwelijk;Rechts;2;32;left;yes;50;rightarrow;626;false;focus;yes;342095;Chrome;108.0;macOS;10.15.7;undefined;undefined;1440 x 900;1440 x 900
H026;25;Vrouwelijk;Rechts;2;33;right;no;50;rightarrow;427;true;focus;yes;343278;Chrome;108.0;macOS;10.15.7;undefined;undefined;1440 x 900;1440 x 900
H026;25;Vrouwelijk;Rechts;2;34;right;no;50;rightarrow;408;true;focus;yes;344443;Chrome;108.0;macOS;10.15.7;undefined;undefined;1440 x 900;1440 x 900
H026;25;Vrouwelijk;Rechts;2;35;left;yes;50;leftarrow;457;false;focus;yes;345657;Chrome;108.0;macOS;10.15.7;undefined;undefined;1440 x 900;1440 x 900
H026;25;Vrouwelijk;Rechts;2;36;right;no;50;rightarrow;442;true;focus;yes;346856;Chrome;108.0;macOS;10.15.7;undefined;undefined;1440 x 900;1440 x 900
H026;25;Vrouwelijk;Rechts;2;37;left;no;50;leftarrow;467;true;focus;yes;348078;Chrome;108.0;macOS;10.15.7;undefined;undefined;1440 x 900;1440 x 900
H026;25;Vrouwelijk;Rechts;2;38;left;no;50;leftarrow;442;true;focus;yes;349276;Chrome;108.0;macOS;10.15.7;undefined;undefined;1440 x 900;1440 x 900
H026;25;Vrouwelijk;Rechts;2;39;right;yes;50;leftarrow;555;false;focus;yes;350588;Chrome;108.0;macOS;10.15.7;undefined;undefined;1440 x 900;1440 x 900
H026;25;Vrouwelijk;Rechts;2;40;left;no;50;leftarrow;388;true;focus;yes;351731;Chrome;108.0;macOS;10.15.7;undefined;undefined;1440 x 900;1440 x 900
H026;25;Vrouwelijk;Rechts;2;41;right;no;50;rightarrow;417;true;focus;yes;352904;Chrome;108.0;macOS;10.15.7;undefined;undefined;1440 x 900;1440 x 900
H026;25;Vrouwelijk;Rechts;2;42;left;no;50;leftarrow;444;true;focus;yes;354102;Chrome;108.0;macOS;10.15.7;undefined;undefined;1440 x 900;1440 x 900
H026;25;Vrouwelijk;Rechts;2;43;right;no;50;rightarrow;465;true;focus;yes;355324;Chrome;108.0;macOS;10.15.7;undefined;undefined;1440 x 900;1440 x 900
H026;25;Vrouwelijk;Rechts;2;44;right;no;50;rightarrow;362;true;focus;yes;356441;Chrome;108.0;macOS;10.15.7;undefined;undefined;1440 x 900;1440 x 900
H026;25;Vrouwelijk;Rechts;2;45;left;no;50;leftarrow;481;true;focus;yes;357679;Chrome;108.0;macOS;10.15.7;undefined;undefined;1440 x 900;1440 x 900
H026;25;Vrouwelijk;Rechts;2;46;left;no;50;leftarrow;491;true;focus;yes;358926;Chrome;108.0;macOS;10.15.7;undefined;undefined;1440 x 900;1440 x 900
H026;25;Vrouwelijk;Rechts;2;47;right;yes;50;leftarrow;575;false;focus;yes;360258;Chrome;108.0;macOS;10.15.7;undefined;undefined;1440 x 900;1440 x 900
H026;25;Vrouwelijk;Rechts;2;48;left;yes;50;rightarrow;619;false;focus;yes;361633;Chrome;108.0;macOS;10.15.7;undefined;undefined;1440 x 900;1440 x 900
H026;25;Vrouwelijk;Rechts;2;49;left;no;50;leftarrow;507;true;focus;yes;362896;Chrome;108.0;macOS;10.15.7;undefined;undefined;1440 x 900;1440 x 900
H026;25;Vrouwelijk;Rechts;2;50;right;yes;50;leftarrow;517;false;focus;yes;364168;Chrome;108.0;macOS;10.15.7;undefined;undefined;1440 x 900;1440 x 900
H026;25;Vrouwelijk;Rechts;2;51;left;no;50;leftarrow;375;true;focus;yes;365298;Chrome;108.0;macOS;10.15.7;undefined;undefined;1440 x 900;1440 x 900
H026;25;Vrouwelijk;Rechts;2;52;left;yes;50;rightarrow;490;false;focus;yes;366545;Chrome;108.0;macOS;10.15.7;undefined;undefined;1440 x 900;1440 x 900
H026;25;Vrouwelijk;Rechts;2;53;left;no;50;leftarrow;574;true;focus;yes;367876;Chrome;108.0;macOS;10.15.7;undefined;undefined;1440 x 900;1440 x 900
H026;25;Vrouwelijk;Rechts;2;54;right;no;50;rightarrow;380;true;focus;yes;369012;Chrome;108.0;macOS;10.15.7;undefined;undefined;1440 x 900;1440 x 900
H026;25;Vrouwelijk;Rechts;2;55;right;no;50;rightarrow;386;true;focus;yes;370154;Chrome;108.0;macOS;10.15.7;undefined;undefined;1440 x 900;1440 x 900
H026;25;Vrouwelijk;Rechts;2;56;right;no;50;rightarrow;416;true;focus;yes;371326;Chrome;108.0;macOS;10.15.7;undefined;undefined;1440 x 900;1440 x 900
H026;25;Vrouwelijk;Rechts;2;57;left;yes;50;leftarrow;405;false;focus;yes;372487;Chrome;108.0;macOS;10.15.7;undefined;undefined;1440 x 900;1440 x 900
H026;25;Vrouwelijk;Rechts;2;58;right;no;50;rightarrow;401;true;focus;yes;373644;Chrome;108.0;macOS;10.15.7;undefined;undefined;1440 x 900;1440 x 900
H026;25;Vrouwelijk;Rechts;2;59;right;no;50;rightarrow;389;true;focus;yes;374788;Chrome;108.0;macOS;10.15.7;undefined;undefined;1440 x 900;1440 x 900
H026;25;Vrouwelijk;Rechts;2;60;right;no;50;rightarrow;401;true;focus;yes;375945;Chrome;108.0;macOS;10.15.7;undefined;undefined;1440 x 900;1440 x 900
H026;25;Vrouwelijk;Rechts;2;61;left;no;50;rightarrow;382;false;focus;yes;377083;Chrome;108.0;macOS;10.15.7;undefined;undefined;1440 x 900;1440 x 900
H026;25;Vrouwelijk;Rechts;2;62;right;yes;50;leftarrow;607;false;focus;yes;378447;Chrome;108.0;macOS;10.15.7;undefined;undefined;1440 x 900;1440 x 900
H026;25;Vrouwelijk;Rechts;2;63;left;no;50;leftarrow;579;true;focus;yes;379782;Chrome;108.0;macOS;10.15.7;undefined;undefined;1440 x 900;1440 x 900
H026;25;Vrouwelijk;Rechts;2;64;left;no;50;leftarrow;399;true;focus;yes;380938;Chrome;108.0;macOS;10.15.7;undefined;undefined;1440 x 900;1440 x 900
H026;25;Vrouwelijk;Rechts;2;65;left;yes;50;rightarrow;541;false;focus;yes;382236;Chrome;108.0;macOS;10.15.7;undefined;undefined;1440 x 900;1440 x 900
H026;25;Vrouwelijk;Rechts;2;66;left;no;50;leftarrow;560;true;focus;yes;383554;Chrome;108.0;macOS;10.15.7;undefined;undefined;1440 x 900;1440 x 900
H026;25;Vrouwelijk;Rechts;2;67;left;no;50;leftarrow;389;true;focus;yes;384698;Chrome;108.0;macOS;10.15.7;undefined;undefined;1440 x 900;1440 x 900
H026;25;Vrouwelijk;Rechts;2;68;right;no;50;rightarrow;477;true;focus;yes;385931;Chrome;108.0;macOS;10.15.7;undefined;undefined;1440 x 900;1440 x 900
H026;25;Vrouwelijk;Rechts;2;69;right;yes;50;leftarrow;575;false;focus;yes;387262;Chrome;108.0;macOS;10.15.7;undefined;undefined;1440 x 900;1440 x 900
H026;25;Vrouwelijk;Rechts;2;70;left;no;50;leftarrow;371;true;focus;yes;388390;Chrome;108.0;macOS;10.15.7;undefined;undefined;1440 x 900;1440 x 900
H026;25;Vrouwelijk;Rechts;2;71;right;no;50;rightarrow;481;true;focus;yes;389628;Chrome;108.0;macOS;10.15.7;undefined;undefined;1440 x 900;1440 x 900
H026;25;Vrouwelijk;Rechts;2;72;right;no;50;rightarrow;460;true;focus;yes;390845;Chrome;108.0;macOS;10.15.7;undefined;undefined;1440 x 900;1440 x 900
H026;25;Vrouwelijk;Rechts;2;73;left;no;50;leftarrow;429;true;focus;yes;392031;Chrome;108.0;macOS;10.15.7;undefined;undefined;1440 x 900;1440 x 900
H026;25;Vrouwelijk;Rechts;2;74;left;yes;50;rightarrow;467;false;focus;yes;393254;Chrome;108.0;macOS;10.15.7;undefined;undefined;1440 x 900;1440 x 900
H026;25;Vrouwelijk;Rechts;2;75;right;no;50;rightarrow;587;true;focus;yes;394596;Chrome;108.0;macOS;10.15.7;undefined;undefined;1440 x 900;1440 x 900
H026;25;Vrouwelijk;Rechts;2;76;right;yes;50;leftarrow;627;false;focus;yes;395980;Chrome;108.0;macOS;10.15.7;undefined;undefined;1440 x 900;1440 x 900
H026;25;Vrouwelijk;Rechts;2;77;left;no;50;leftarrow;384;true;focus;yes;397120;Chrome;108.0;macOS;10.15.7;undefined;undefined;1440 x 900;1440 x 900
H026;25;Vrouwelijk;Rechts;2;78;right;no;50;rightarrow;359;true;focus;yes;398235;Chrome;108.0;macOS;10.15.7;undefined;undefined;1440 x 900;1440 x 900
H026;25;Vrouwelijk;Rechts;2;79;right;no;50;rightarrow;385;true;focus;yes;399376;Chrome;108.0;macOS;10.15.7;undefined;undefined;1440 x 900;1440 x 900
H026;25;Vrouwelijk;Rechts;2;80;left;no;50;leftarrow;345;true;focus;yes;400477;Chrome;108.0;macOS;10.15.7;undefined;undefined;1440 x 900;1440 x 900
H026;25;Vrouwelijk;Rechts;2;81;right;no;50;rightarrow;368;true;focus;yes;401602;Chrome;108.0;macOS;10.15.7;undefined;undefined;1440 x 900;1440 x 900
H026;25;Vrouwelijk;Rechts;2;82;left;no;50;leftarrow;370;true;focus;yes;402728;Chrome;108.0;macOS;10.15.7;undefined;undefined;1440 x 900;1440 x 900
H026;25;Vrouwelijk;Rechts;2;83;left;no;50;rightarrow;362;false;focus;yes;403847;Chrome;108.0;macOS;10.15.7;undefined;undefined;1440 x 900;1440 x 900
H026;25;Vrouwelijk;Rechts;2;84;left;yes;50;rightarrow;591;false;focus;yes;405194;Chrome;108.0;macOS;10.15.7;undefined;undefined;1440 x 900;1440 x 900
H026;25;Vrouwelijk;Rechts;2;85;right;yes;50;leftarrow;553;false;focus;yes;406503;Chrome;108.0;macOS;10.15.7;undefined;undefined;1440 x 900;1440 x 900
H026;25;Vrouwelijk;Rechts;2;86;right;no;50;rightarrow;480;true;focus;yes;407740;Chrome;108.0;macOS;10.15.7;undefined;undefined;1440 x 900;1440 x 900
H026;25;Vrouwelijk;Rechts;2;87;left;no;50;leftarrow;361;true;focus;yes;408859;Chrome;108.0;macOS;10.15.7;undefined;undefined;1440 x 900;1440 x 900
H026;25;Vrouwelijk;Rechts;2;88;right;no;50;rightarrow;386;true;focus;yes;410001;Chrome;108.0;macOS;10.15.7;undefined;undefined;1440 x 900;1440 x 900
H026;25;Vrouwelijk;Rechts;2;89;right;no;50;rightarrow;345;true;focus;yes;411103;Chrome;108.0;macOS;10.15.7;undefined;undefined;1440 x 900;1440 x 900
H026;25;Vrouwelijk;Rechts;2;90;right;no;50;rightarrow;392;true;focus;yes;412253;Chrome;108.0;macOS;10.15.7;undefined;undefined;1440 x 900;1440 x 900
H026;25;Vrouwelijk;Rechts;2;91;left;no;50;leftarrow;534;true;focus;yes;413544;Chrome;108.0;macOS;10.15.7;undefined;undefined;1440 x 900;1440 x 900
H026;25;Vrouwelijk;Rechts;2;92;left;no;50;leftarrow;432;true;focus;yes;414733;Chrome;108.0;macOS;10.15.7;undefined;undefined;1440 x 900;1440 x 900
H026;25;Vrouwelijk;Rechts;2;93;left;no;50;leftarrow;459;true;focus;yes;415949;Chrome;108.0;macOS;10.15.7;undefined;undefined;1440 x 900;1440 x 900
H026;25;Vrouwelijk;Rechts;2;94;right;no;50;rightarrow;384;true;focus;yes;417089;Chrome;108.0;macOS;10.15.7;undefined;undefined;1440 x 900;1440 x 900
H026;25;Vrouwelijk;Rechts;2;95;left;yes;50;rightarrow;633;false;focus;yes;418478;Chrome;108.0;macOS;10.15.7;undefined;undefined;1440 x 900;1440 x 900
H026;25;Vrouwelijk;Rechts;2;96;right;yes;50;leftarrow;492;false;focus;yes;419728;Chrome;108.0;macOS;10.15.7;undefined;undefined;1440 x 900;1440 x 900
H026;25;Vrouwelijk;Rechts;2;97;right;no;50;rightarrow;347;true;focus;yes;420831;Chrome;108.0;macOS;10.15.7;undefined;undefined;1440 x 900;1440 x 900
H026;25;Vrouwelijk;Rechts;2;98;right;no;50;rightarrow;364;true;focus;yes;421951;Chrome;108.0;macOS;10.15.7;undefined;undefined;1440 x 900;1440 x 900
H026;25;Vrouwelijk;Rechts;2;99;left;yes;50;rightarrow;636;false;focus;yes;423344;Chrome;108.0;macOS;10.15.7;undefined;undefined;1440 x 900;1440 x 900
H026;25;Vrouwelijk;Rechts;2;100;left;no;50;leftarrow;520;true;focus;yes;424621;Chrome;108.0;macOS;10.15.7;undefined;undefined;1440 x 900;1440 x 900
H026;25;Vrouwelijk;Rechts;2;101;left;no;50;leftarrow;396;true;focus;yes;425774;Chrome;108.0;macOS;10.15.7;undefined;undefined;1440 x 900;1440 x 900
H026;25;Vrouwelijk;Rechts;2;102;right;no;50;rightarrow;389;true;focus;yes;426921;Chrome;108.0;macOS;10.15.7;undefined;undefined;1440 x 900;1440 x 900
H026;25;Vrouwelijk;Rechts;2;103;right;yes;50;leftarrow;521;false;focus;yes;428199;Chrome;108.0;macOS;10.15.7;undefined;undefined;1440 x 900;1440 x 900
H026;25;Vrouwelijk;Rechts;2;104;left;no;50;leftarrow;459;true;focus;yes;429414;Chrome;108.0;macOS;10.15.7;undefined;undefined;1440 x 900;1440 x 900
H026;25;Vrouwelijk;Rechts;2;105;right;no;50;rightarrow;472;true;focus;yes;430643;Chrome;108.0;macOS;10.15.7;undefined;undefined;1440 x 900;1440 x 900
H026;25;Vrouwelijk;Rechts;2;106;left;no;50;leftarrow;378;true;focus;yes;431778;Chrome;108.0;macOS;10.15.7;undefined;undefined;1440 x 900;1440 x 900
H026;25;Vrouwelijk;Rechts;2;107;right;no;50;rightarrow;355;true;focus;yes;432890;Chrome;108.0;macOS;10.15.7;undefined;undefined;1440 x 900;1440 x 900
H026;25;Vrouwelijk;Rechts;2;108;right;no;50;rightarrow;393;true;focus;yes;434040;Chrome;108.0;macOS;10.15.7;undefined;undefined;1440 x 900;1440 x 900
H026;25;Vrouwelijk;Rechts;2;109;left;no;50;leftarrow;442;true;focus;yes;435241;Chrome;108.0;macOS;10.15.7;undefined;undefined;1440 x 900;1440 x 900
H026;25;Vrouwelijk;Rechts;2;110;right;yes;50;leftarrow;531;false;focus;yes;436529;Chrome;108.0;macOS;10.15.7;undefined;undefined;1440 x 900;1440 x 900
H026;25;Vrouwelijk;Rechts;2;111;left;no;50;leftarrow;396;true;focus;yes;437682;Chrome;108.0;macOS;10.15.7;undefined;undefined;1440 x 900;1440 x 900
H026;25;Vrouwelijk;Rechts;2;112;left;yes;50;rightarrow;540;false;focus;yes;438978;Chrome;108.0;macOS;10.15.7;undefined;undefined;1440 x 900;1440 x 900
H026;25;Vrouwelijk;Rechts;2;113;left;yes;50;rightarrow;1052;false;focus;yes;440787;Chrome;108.0;macOS;10.15.7;undefined;undefined;1440 x 900;1440 x 900
H026;25;Vrouwelijk;Rechts;2;114;right;yes;50;leftarrow;454;false;focus;yes;441998;Chrome;108.0;macOS;10.15.7;undefined;undefined;1440 x 900;1440 x 900
H026;25;Vrouwelijk;Rechts;2;115;left;no;50;leftarrow;385;true;focus;yes;443140;Chrome;108.0;macOS;10.15.7;undefined;undefined;1440 x 900;1440 x 900
H026;25;Vrouwelijk;Rechts;2;116;left;no;50;leftarrow;377;true;focus;yes;444274;Chrome;108.0;macOS;10.15.7;undefined;undefined;1440 x 900;1440 x 900
H026;25;Vrouwelijk;Rechts;2;117;left;no;50;leftarrow;372;true;focus;yes;445403;Chrome;108.0;macOS;10.15.7;undefined;undefined;1440 x 900;1440 x 900
H026;25;Vrouwelijk;Rechts;2;118;right;no;50;rightarrow;467;true;focus;yes;446626;Chrome;108.0;macOS;10.15.7;undefined;undefined;1440 x 900;1440 x 900
H026;25;Vrouwelijk;Rechts;2;119;right;no;50;rightarrow;904;true;focus;yes;448287;Chrome;108.0;macOS;10.15.7;undefined;undefined;1440 x 900;1440 x 900
H026;25;Vrouwelijk;Rechts;2;120;right;no;50;rightarrow;380;true;focus;yes;449425;Chrome;108.0;macOS;10.15.7;undefined;undefined;1440 x 900;1440 x 900
H026;25;Vrouwelijk;Rechts;2;121;left;yes;50;rightarrow;613;false;focus;yes;450794;Chrome;108.0;macOS;10.15.7;undefined;undefined;1440 x 900;1440 x 900
H026;25;Vrouwelijk;Rechts;2;122;right;no;50;leftarrow;519;false;focus;yes;452076;Chrome;108.0;macOS;10.15.7;undefined;undefined;1440 x 900;1440 x 900
H026;25;Vrouwelijk;Rechts;2;123;right;no;50;rightarrow;438;true;focus;yes;453270;Chrome;108.0;macOS;10.15.7;undefined;undefined;1440 x 900;1440 x 900
H026;25;Vrouwelijk;Rechts;2;124;right;yes;50;leftarrow;548;false;focus;yes;454574;Chrome;108.0;macOS;10.15.7;undefined;undefined;1440 x 900;1440 x 900
H026;25;Vrouwelijk;Rechts;2;125;right;no;50;rightarrow;408;true;focus;yes;455739;Chrome;108.0;macOS;10.15.7;undefined;undefined;1440 x 900;1440 x 900
H026;25;Vrouwelijk;Rechts;2;126;left;no;50;leftarrow;509;true;focus;yes;457004;Chrome;108.0;macOS;10.15.7;undefined;undefined;1440 x 900;1440 x 900
H026;25;Vrouwelijk;Rechts;2;127;left;no;50;leftarrow;360;true;focus;yes;458122;Chrome;108.0;macOS;10.15.7;undefined;undefined;1440 x 900;1440 x 900
H026;25;Vrouwelijk;Rechts;2;128;left;no;50;leftarrow;395;true;focus;yes;459273;Chrome;108.0;macOS;10.15.7;undefined;undefined;1440 x 900;1440 x 900
H026;25;Vrouwelijk;Rechts;3;1;right;no;50;rightarrow;332;true;focus;yes;478185;Chrome;108.0;macOS;10.15.7;undefined;undefined;1440 x 900;1440 x 900
H026;25;Vrouwelijk;Rechts;3;2;left;no;50;leftarrow;418;true;focus;yes;479359;Chrome;108.0;macOS;10.15.7;undefined;undefined;1440 x 900;1440 x 900
H026;25;Vrouwelijk;Rechts;3;3;left;no;50;leftarrow;349;true;focus;yes;480465;Chrome;108.0;macOS;10.15.7;undefined;undefined;1440 x 900;1440 x 900
H026;25;Vrouwelijk;Rechts;3;4;right;yes;50;leftarrow;605;false;focus;yes;481829;Chrome;108.0;macOS;10.15.7;undefined;undefined;1440 x 900;1440 x 900
H026;25;Vrouwelijk;Rechts;3;5;right;no;50;rightarrow;422;true;focus;yes;483008;Chrome;108.0;macOS;10.15.7;undefined;undefined;1440 x 900;1440 x 900
H026;25;Vrouwelijk;Rechts;3;6;left;yes;50;leftarrow;451;false;focus;yes;484215;Chrome;108.0;macOS;10.15.7;undefined;undefined;1440 x 900;1440 x 900
H026;25;Vrouwelijk;Rechts;3;7;left;no;50;leftarrow;403;true;focus;yes;485375;Chrome;108.0;macOS;10.15.7;undefined;undefined;1440 x 900;1440 x 900
H026;25;Vrouwelijk;Rechts;3;8;right;no;50;rightarrow;385;true;focus;yes;486515;Chrome;108.0;macOS;10.15.7;undefined;undefined;1440 x 900;1440 x 900
H026;25;Vrouwelijk;Rechts;3;9;left;no;50;leftarrow;434;true;focus;yes;487706;Chrome;108.0;macOS;10.15.7;undefined;undefined;1440 x 900;1440 x 900
H026;25;Vrouwelijk;Rechts;3;10;right;no;50;rightarrow;352;true;focus;yes;488815;Chrome;108.0;macOS;10.15.7;undefined;undefined;1440 x 900;1440 x 900
H026;25;Vrouwelijk;Rechts;3;11;right;no;50;rightarrow;464;true;focus;yes;490035;Chrome;108.0;macOS;10.15.7;undefined;undefined;1440 x 900;1440 x 900
H026;25;Vrouwelijk;Rechts;3;12;left;yes;50;leftarrow;462;false;focus;yes;491253;Chrome;108.0;macOS;10.15.7;undefined;undefined;1440 x 900;1440 x 900
H026;25;Vrouwelijk;Rechts;3;13;left;no;50;leftarrow;441;true;focus;yes;492452;Chrome;108.0;macOS;10.15.7;undefined;undefined;1440 x 900;1440 x 900
H026;25;Vrouwelijk;Rechts;3;14;left;no;50;leftarrow;374;true;focus;yes;493582;Chrome;108.0;macOS;10.15.7;undefined;undefined;1440 x 900;1440 x 900
H026;25;Vrouwelijk;Rechts;3;15;right;no;50;rightarrow;393;true;focus;yes;494733;Chrome;108.0;macOS;10.15.7;undefined;undefined;1440 x 900;1440 x 900
H026;25;Vrouwelijk;Rechts;3;16;right;yes;50;leftarrow;535;false;focus;yes;496024;Chrome;108.0;macOS;10.15.7;undefined;undefined;1440 x 900;1440 x 900
H026;25;Vrouwelijk;Rechts;3;17;right;no;50;rightarrow;429;true;focus;yes;497211;Chrome;108.0;macOS;10.15.7;undefined;undefined;1440 x 900;1440 x 900
H026;25;Vrouwelijk;Rechts;3;18;right;yes;50;leftarrow;599;false;focus;yes;498566;Chrome;108.0;macOS;10.15.7;undefined;undefined;1440 x 900;1440 x 900
H026;25;Vrouwelijk;Rechts;3;19;right;no;50;rightarrow;444;true;focus;yes;499767;Chrome;108.0;macOS;10.15.7;undefined;undefined;1440 x 900;1440 x 900
H026;25;Vrouwelijk;Rechts;3;20;left;yes;50;rightarrow;593;false;focus;yes;501116;Chrome;108.0;macOS;10.15.7;undefined;undefined;1440 x 900;1440 x 900
H026;25;Vrouwelijk;Rechts;3;21;left;no;50;leftarrow;631;true;focus;yes;502503;Chrome;108.0;macOS;10.15.7;undefined;undefined;1440 x 900;1440 x 900
H026;25;Vrouwelijk;Rechts;3;22;right;no;50;rightarrow;515;true;focus;yes;503775;Chrome;108.0;macOS;10.15.7;undefined;undefined;1440 x 900;1440 x 900
H026;25;Vrouwelijk;Rechts;3;23;left;no;50;leftarrow;388;true;focus;yes;504919;Chrome;108.0;macOS;10.15.7;undefined;undefined;1440 x 900;1440 x 900
H026;25;Vrouwelijk;Rechts;3;24;left;no;50;leftarrow;410;true;focus;yes;506086;Chrome;108.0;macOS;10.15.7;undefined;undefined;1440 x 900;1440 x 900
H026;25;Vrouwelijk;Rechts;3;25;right;yes;50;leftarrow;553;false;focus;yes;507396;Chrome;108.0;macOS;10.15.7;undefined;undefined;1440 x 900;1440 x 900
H026;25;Vrouwelijk;Rechts;3;26;left;no;50;leftarrow;565;true;focus;yes;508717;Chrome;108.0;macOS;10.15.7;undefined;undefined;1440 x 900;1440 x 900
H026;25;Vrouwelijk;Rechts;3;27;left;no;50;leftarrow;417;true;focus;yes;509892;Chrome;108.0;macOS;10.15.7;undefined;undefined;1440 x 900;1440 x 900
H026;25;Vrouwelijk;Rechts;3;28;right;no;50;rightarrow;366;true;focus;yes;511018;Chrome;108.0;macOS;10.15.7;undefined;undefined;1440 x 900;1440 x 900
H026;25;Vrouwelijk;Rechts;3;29;left;no;50;leftarrow;396;true;focus;yes;512171;Chrome;108.0;macOS;10.15.7;undefined;undefined;1440 x 900;1440 x 900
H026;25;Vrouwelijk;Rechts;3;30;left;yes;50;rightarrow;582;false;focus;yes;513509;Chrome;108.0;macOS;10.15.7;undefined;undefined;1440 x 900;1440 x 900
H026;25;Vrouwelijk;Rechts;3;31;right;no;50;rightarrow;435;true;focus;yes;514701;Chrome;108.0;macOS;10.15.7;undefined;undefined;1440 x 900;1440 x 900
H026;25;Vrouwelijk;Rechts;3;32;right;no;50;rightarrow;382;true;focus;yes;515840;Chrome;108.0;macOS;10.15.7;undefined;undefined;1440 x 900;1440 x 900
H026;25;Vrouwelijk;Rechts;3;33;right;no;50;rightarrow;396;true;focus;yes;516994;Chrome;108.0;macOS;10.15.7;undefined;undefined;1440 x 900;1440 x 900
H026;25;Vrouwelijk;Rechts;3;34;left;no;50;leftarrow;472;true;focus;yes;518223;Chrome;108.0;macOS;10.15.7;undefined;undefined;1440 x 900;1440 x 900
H026;25;Vrouwelijk;Rechts;3;35;left;no;50;leftarrow;520;true;focus;yes;519499;Chrome;108.0;macOS;10.15.7;undefined;undefined;1440 x 900;1440 x 900
H026;25;Vrouwelijk;Rechts;3;36;right;no;50;rightarrow;328;true;focus;yes;520583;Chrome;108.0;macOS;10.15.7;undefined;undefined;1440 x 900;1440 x 900
H026;25;Vrouwelijk;Rechts;3;37;right;no;50;rightarrow;407;true;focus;yes;521747;Chrome;108.0;macOS;10.15.7;undefined;undefined;1440 x 900;1440 x 900
H026;25;Vrouwelijk;Rechts;3;38;left;no;50;leftarrow;459;true;focus;yes;522964;Chrome;108.0;macOS;10.15.7;undefined;undefined;1440 x 900;1440 x 900
H026;25;Vrouwelijk;Rechts;3;39;right;yes;50;leftarrow;620;false;focus;yes;524341;Chrome;108.0;macOS;10.15.7;undefined;undefined;1440 x 900;1440 x 900
H026;25;Vrouwelijk;Rechts;3;40;left;yes;50;rightarrow;513;false;focus;yes;525611;Chrome;108.0;macOS;10.15.7;undefined;undefined;1440 x 900;1440 x 900
H026;25;Vrouwelijk;Rechts;3;41;left;no;50;leftarrow;321;true;focus;yes;526689;Chrome;108.0;macOS;10.15.7;undefined;undefined;1440 x 900;1440 x 900
H026;25;Vrouwelijk;Rechts;3;42;right;no;50;rightarrow;401;true;focus;yes;527847;Chrome;108.0;macOS;10.15.7;undefined;undefined;1440 x 900;1440 x 900
H026;25;Vrouwelijk;Rechts;3;43;left;no;50;leftarrow;447;true;focus;yes;529051;Chrome;108.0;macOS;10.15.7;undefined;undefined;1440 x 900;1440 x 900
H026;25;Vrouwelijk;Rechts;3;44;right;yes;50;leftarrow;594;false;focus;yes;530402;Chrome;108.0;macOS;10.15.7;undefined;undefined;1440 x 900;1440 x 900
H026;25;Vrouwelijk;Rechts;3;45;right;no;50;rightarrow;388;true;focus;yes;531550;Chrome;108.0;macOS;10.15.7;undefined;undefined;1440 x 900;1440 x 900
H026;25;Vrouwelijk;Rechts;3;46;right;no;50;rightarrow;367;true;focus;yes;532674;Chrome;108.0;macOS;10.15.7;undefined;undefined;1440 x 900;1440 x 900
H026;25;Vrouwelijk;Rechts;3;47;left;yes;50;rightarrow;626;false;focus;yes;534057;Chrome;108.0;macOS;10.15.7;undefined;undefined;1440 x 900;1440 x 900
H026;25;Vrouwelijk;Rechts;3;48;left;no;50;leftarrow;583;true;focus;yes;535395;Chrome;108.0;macOS;10.15.7;undefined;undefined;1440 x 900;1440 x 900
H026;25;Vrouwelijk;Rechts;3;49;right;no;50;rightarrow;409;true;focus;yes;536561;Chrome;108.0;macOS;10.15.7;undefined;undefined;1440 x 900;1440 x 900
H026;25;Vrouwelijk;Rechts;3;50;left;no;50;rightarrow;414;false;focus;yes;537730;Chrome;108.0;macOS;10.15.7;undefined;undefined;1440 x 900;1440 x 900
H026;25;Vrouwelijk;Rechts;3;51;left;no;50;leftarrow;523;true;focus;yes;539009;Chrome;108.0;macOS;10.15.7;undefined;undefined;1440 x 900;1440 x 900
H026;25;Vrouwelijk;Rechts;3;52;left;no;50;leftarrow;410;true;focus;yes;540176;Chrome;108.0;macOS;10.15.7;undefined;undefined;1440 x 900;1440 x 900
H026;25;Vrouwelijk;Rechts;3;53;right;yes;50;leftarrow;585;false;focus;yes;541517;Chrome;108.0;macOS;10.15.7;undefined;undefined;1440 x 900;1440 x 900
H026;25;Vrouwelijk;Rechts;3;54;left;yes;50;rightarrow;581;false;focus;yes;542856;Chrome;108.0;macOS;10.15.7;undefined;undefined;1440 x 900;1440 x 900
H026;25;Vrouwelijk;Rechts;3;55;right;no;50;leftarrow;479;false;focus;yes;544093;Chrome;108.0;macOS;10.15.7;undefined;undefined;1440 x 900;1440 x 900
H026;25;Vrouwelijk;Rechts;3;56;right;no;50;rightarrow;634;true;focus;yes;545483;Chrome;108.0;macOS;10.15.7;undefined;undefined;1440 x 900;1440 x 900
H026;25;Vrouwelijk;Rechts;3;57;left;no;50;leftarrow;534;true;focus;yes;546774;Chrome;108.0;macOS;10.15.7;undefined;undefined;1440 x 900;1440 x 900
H026;25;Vrouwelijk;Rechts;3;58;right;yes;50;leftarrow;580;false;focus;yes;548111;Chrome;108.0;macOS;10.15.7;undefined;undefined;1440 x 900;1440 x 900
H026;25;Vrouwelijk;Rechts;3;59;left;yes;50;rightarrow;586;false;focus;yes;549454;Chrome;108.0;macOS;10.15.7;undefined;undefined;1440 x 900;1440 x 900
H026;25;Vrouwelijk;Rechts;3;60;right;no;50;rightarrow;490;true;focus;yes;550702;Chrome;108.0;macOS;10.15.7;undefined;undefined;1440 x 900;1440 x 900
H026;25;Vrouwelijk;Rechts;3;61;left;no;50;leftarrow;432;true;focus;yes;551891;Chrome;108.0;macOS;10.15.7;undefined;undefined;1440 x 900;1440 x 900
H026;25;Vrouwelijk;Rechts;3;62;right;no;50;rightarrow;429;true;focus;yes;553076;Chrome;108.0;macOS;10.15.7;undefined;undefined;1440 x 900;1440 x 900
H026;25;Vrouwelijk;Rechts;3;63;left;no;50;leftarrow;374;true;focus;yes;554212;Chrome;108.0;macOS;10.15.7;undefined;undefined;1440 x 900;1440 x 900
H026;25;Vrouwelijk;Rechts;3;64;right;no;50;rightarrow;385;true;focus;yes;555354;Chrome;108.0;macOS;10.15.7;undefined;undefined;1440 x 900;1440 x 900
H026;25;Vrouwelijk;Rechts;3;65;left;yes;50;leftarrow;438;false;focus;yes;556551;Chrome;108.0;macOS;10.15.7;undefined;undefined;1440 x 900;1440 x 900
H026;25;Vrouwelijk;Rechts;3;66;left;no;50;leftarrow;461;true;focus;yes;557769;Chrome;108.0;macOS;10.15.7;undefined;undefined;1440 x 900;1440 x 900
H026;25;Vrouwelijk;Rechts;3;67;right;no;50;rightarrow;409;true;focus;yes;558935;Chrome;108.0;macOS;10.15.7;undefined;undefined;1440 x 900;1440 x 900
H026;25;Vrouwelijk;Rechts;3;68;right;yes;50;leftarrow;581;false;focus;yes;560273;Chrome;108.0;macOS;10.15.7;undefined;undefined;1440 x 900;1440 x 900
H026;25;Vrouwelijk;Rechts;3;69;left;no;50;rightarrow;494;false;focus;yes;561524;Chrome;108.0;macOS;10.15.7;undefined;undefined;1440 x 900;1440 x 900
H026;25;Vrouwelijk;Rechts;3;70;left;no;50;leftarrow;456;true;focus;yes;562737;Chrome;108.0;macOS;10.15.7;undefined;undefined;1440 x 900;1440 x 900
H026;25;Vrouwelijk;Rechts;3;71;right;no;50;rightarrow;404;true;focus;yes;563899;Chrome;108.0;macOS;10.15.7;undefined;undefined;1440 x 900;1440 x 900
H026;25;Vrouwelijk;Rechts;3;72;right;no;50;rightarrow;383;true;focus;yes;565039;Chrome;108.0;macOS;10.15.7;undefined;undefined;1440 x 900;1440 x 900
H026;25;Vrouwelijk;Rechts;3;73;right;no;50;rightarrow;382;true;focus;yes;566178;Chrome;108.0;macOS;10.15.7;undefined;undefined;1440 x 900;1440 x 900
H026;25;Vrouwelijk;Rechts;3;74;right;no;50;rightarrow;370;true;focus;yes;567305;Chrome;108.0;macOS;10.15.7;undefined;undefined;1440 x 900;1440 x 900
H026;25;Vrouwelijk;Rechts;3;75;right;no;50;rightarrow;386;true;focus;yes;568448;Chrome;108.0;macOS;10.15.7;undefined;undefined;1440 x 900;1440 x 900
H026;25;Vrouwelijk;Rechts;3;76;left;no;50;leftarrow;456;true;focus;yes;569661;Chrome;108.0;macOS;10.15.7;undefined;undefined;1440 x 900;1440 x 900
H026;25;Vrouwelijk;Rechts;3;77;left;no;50;leftarrow;507;true;focus;yes;570926;Chrome;108.0;macOS;10.15.7;undefined;undefined;1440 x 900;1440 x 900
H026;25;Vrouwelijk;Rechts;3;78;left;yes;50;rightarrow;480;false;focus;yes;572162;Chrome;108.0;macOS;10.15.7;undefined;undefined;1440 x 900;1440 x 900
H026;25;Vrouwelijk;Rechts;3;79;right;yes;50;leftarrow;563;false;focus;yes;573482;Chrome;108.0;macOS;10.15.7;undefined;undefined;1440 x 900;1440 x 900
H026;25;Vrouwelijk;Rechts;3;80;left;no;50;leftarrow;371;true;focus;yes;574610;Chrome;108.0;macOS;10.15.7;undefined;undefined;1440 x 900;1440 x 900
H026;25;Vrouwelijk;Rechts;3;81;right;yes;50;leftarrow;760;false;focus;yes;576128;Chrome;108.0;macOS;10.15.7;undefined;undefined;1440 x 900;1440 x 900
H026;25;Vrouwelijk;Rechts;3;82;left;no;50;rightarrow;518;false;focus;yes;577404;Chrome;108.0;macOS;10.15.7;undefined;undefined;1440 x 900;1440 x 900
H026;25;Vrouwelijk;Rechts;3;83;right;no;50;rightarrow;420;true;focus;yes;578581;Chrome;108.0;macOS;10.15.7;undefined;undefined;1440 x 900;1440 x 900
H026;25;Vrouwelijk;Rechts;3;84;left;no;50;leftarrow;574;true;focus;yes;579914;Chrome;108.0;macOS;10.15.7;undefined;undefined;1440 x 900;1440 x 900
H026;25;Vrouwelijk;Rechts;3;85;right;no;50;rightarrow;466;true;focus;yes;581137;Chrome;108.0;macOS;10.15.7;undefined;undefined;1440 x 900;1440 x 900
H026;25;Vrouwelijk;Rechts;3;86;right;no;50;rightarrow;424;true;focus;yes;582318;Chrome;108.0;macOS;10.15.7;undefined;undefined;1440 x 900;1440 x 900
H026;25;Vrouwelijk;Rechts;3;87;left;yes;50;rightarrow;634;false;focus;yes;583711;Chrome;108.0;macOS;10.15.7;undefined;undefined;1440 x 900;1440 x 900
H026;25;Vrouwelijk;Rechts;3;88;left;no;50;leftarrow;519;true;focus;yes;584987;Chrome;108.0;macOS;10.15.7;undefined;undefined;1440 x 900;1440 x 900
H026;25;Vrouwelijk;Rechts;3;89;left;no;50;leftarrow;417;true;focus;yes;586161;Chrome;108.0;macOS;10.15.7;undefined;undefined;1440 x 900;1440 x 900
H026;25;Vrouwelijk;Rechts;3;90;left;no;50;leftarrow;405;true;focus;yes;587323;Chrome;108.0;macOS;10.15.7;undefined;undefined;1440 x 900;1440 x 900
H026;25;Vrouwelijk;Rechts;3;91;right;yes;50;leftarrow;626;false;focus;yes;588707;Chrome;108.0;macOS;10.15.7;undefined;undefined;1440 x 900;1440 x 900
H026;25;Vrouwelijk;Rechts;3;92;left;yes;50;rightarrow;602;false;focus;yes;590067;Chrome;108.0;macOS;10.15.7;undefined;undefined;1440 x 900;1440 x 900
H026;25;Vrouwelijk;Rechts;3;93;left;no;50;leftarrow;443;true;focus;yes;591268;Chrome;108.0;macOS;10.15.7;undefined;undefined;1440 x 900;1440 x 900
H026;25;Vrouwelijk;Rechts;3;94;right;no;50;rightarrow;421;true;focus;yes;592445;Chrome;108.0;macOS;10.15.7;undefined;undefined;1440 x 900;1440 x 900
H026;25;Vrouwelijk;Rechts;3;95;right;no;50;rightarrow;399;true;focus;yes;593602;Chrome;108.0;macOS;10.15.7;undefined;undefined;1440 x 900;1440 x 900
H026;25;Vrouwelijk;Rechts;3;96;right;no;50;rightarrow;352;true;focus;yes;594712;Chrome;108.0;macOS;10.15.7;undefined;undefined;1440 x 900;1440 x 900
H026;25;Vrouwelijk;Rechts;3;97;right;yes;50;leftarrow;579;false;focus;yes;596047;Chrome;108.0;macOS;10.15.7;undefined;undefined;1440 x 900;1440 x 900
H026;25;Vrouwelijk;Rechts;3;98;right;no;50;rightarrow;449;true;focus;yes;597254;Chrome;108.0;macOS;10.15.7;undefined;undefined;1440 x 900;1440 x 900
H026;25;Vrouwelijk;Rechts;3;99;left;yes;50;rightarrow;652;false;focus;yes;598664;Chrome;108.0;macOS;10.15.7;undefined;undefined;1440 x 900;1440 x 900
H026;25;Vrouwelijk;Rechts;3;100;right;no;50;rightarrow;396;true;focus;yes;599817;Chrome;108.0;macOS;10.15.7;undefined;undefined;1440 x 900;1440 x 900
H026;25;Vrouwelijk;Rechts;3;101;left;no;50;leftarrow;447;true;focus;yes;601021;Chrome;108.0;macOS;10.15.7;undefined;undefined;1440 x 900;1440 x 900
H026;25;Vrouwelijk;Rechts;3;102;left;no;50;leftarrow;336;true;focus;yes;602117;Chrome;108.0;macOS;10.15.7;undefined;undefined;1440 x 900;1440 x 900
H026;25;Vrouwelijk;Rechts;3;103;left;no;50;leftarrow;378;true;focus;yes;603252;Chrome;108.0;macOS;10.15.7;undefined;undefined;1440 x 900;1440 x 900
H026;25;Vrouwelijk;Rechts;3;104;right;no;50;rightarrow;412;true;focus;yes;604420;Chrome;108.0;macOS;10.15.7;undefined;undefined;1440 x 900;1440 x 900
H026;25;Vrouwelijk;Rechts;3;105;right;no;50;rightarrow;367;true;focus;yes;605543;Chrome;108.0;macOS;10.15.7;undefined;undefined;1440 x 900;1440 x 900
H026;25;Vrouwelijk;Rechts;3;106;left;no;50;leftarrow;428;true;focus;yes;606730;Chrome;108.0;macOS;10.15.7;undefined;undefined;1440 x 900;1440 x 900
H026;25;Vrouwelijk;Rechts;3;107;right;yes;50;leftarrow;693;false;focus;yes;608181;Chrome;108.0;macOS;10.15.7;undefined;undefined;1440 x 900;1440 x 900
H026;25;Vrouwelijk;Rechts;3;108;right;no;50;rightarrow;354;true;focus;yes;609291;Chrome;108.0;macOS;10.15.7;undefined;undefined;1440 x 900;1440 x 900
H026;25;Vrouwelijk;Rechts;3;109;left;yes;50;leftarrow;491;false;focus;yes;610540;Chrome;108.0;macOS;10.15.7;undefined;undefined;1440 x 900;1440 x 900
H026;25;Vrouwelijk;Rechts;3;110;left;no;50;leftarrow;410;true;focus;yes;611707;Chrome;108.0;macOS;10.15.7;undefined;undefined;1440 x 900;1440 x 900
H026;25;Vrouwelijk;Rechts;3;111;right;no;50;rightarrow;445;true;focus;yes;612910;Chrome;108.0;macOS;10.15.7;undefined;undefined;1440 x 900;1440 x 900
H026;25;Vrouwelijk;Rechts;3;112;left;no;50;leftarrow;439;true;focus;yes;614106;Chrome;108.0;macOS;10.15.7;undefined;undefined;1440 x 900;1440 x 900
H026;25;Vrouwelijk;Rechts;3;113;left;no;50;leftarrow;423;true;focus;yes;615286;Chrome;108.0;macOS;10.15.7;undefined;undefined;1440 x 900;1440 x 900
H026;25;Vrouwelijk;Rechts;3;114;right;no;50;leftarrow;484;false;focus;yes;616526;Chrome;108.0;macOS;10.15.7;undefined;undefined;1440 x 900;1440 x 900
H026;25;Vrouwelijk;Rechts;3;115;left;no;50;leftarrow;420;true;focus;yes;617702;Chrome;108.0;macOS;10.15.7;undefined;undefined;1440 x 900;1440 x 900
H026;25;Vrouwelijk;Rechts;3;116;right;yes;50;leftarrow;498;false;focus;yes;618957;Chrome;108.0;macOS;10.15.7;undefined;undefined;1440 x 900;1440 x 900
H026;25;Vrouwelijk;Rechts;3;117;right;no;50;rightarrow;583;true;focus;yes;620297;Chrome;108.0;macOS;10.15.7;undefined;undefined;1440 x 900;1440 x 900
H026;25;Vrouwelijk;Rechts;3;118;left;yes;50;rightarrow;639;false;focus;yes;621693;Chrome;108.0;macOS;10.15.7;undefined;undefined;1440 x 900;1440 x 900
H026;25;Vrouwelijk;Rechts;3;119;right;no;50;rightarrow;420;true;focus;yes;622870;Chrome;108.0;macOS;10.15.7;undefined;undefined;1440 x 900;1440 x 900
H026;25;Vrouwelijk;Rechts;3;120;left;no;50;leftarrow;494;true;focus;yes;624120;Chrome;108.0;macOS;10.15.7;undefined;undefined;1440 x 900;1440 x 900
H026;25;Vrouwelijk;Rechts;3;121;left;no;50;leftarrow;396;true;focus;yes;625273;Chrome;108.0;macOS;10.15.7;undefined;undefined;1440 x 900;1440 x 900
H026;25;Vrouwelijk;Rechts;3;122;left;no;50;leftarrow;394;true;focus;yes;626424;Chrome;108.0;macOS;10.15.7;undefined;undefined;1440 x 900;1440 x 900
H026;25;Vrouwelijk;Rechts;3;123;right;no;50;rightarrow;425;true;focus;yes;627607;Chrome;108.0;macOS;10.15.7;undefined;undefined;1440 x 900;1440 x 900
H026;25;Vrouwelijk;Rechts;3;124;left;no;50;leftarrow;354;true;focus;yes;628718;Chrome;108.0;macOS;10.15.7;undefined;undefined;1440 x 900;1440 x 900
H026;25;Vrouwelijk;Rechts;3;125;right;no;50;rightarrow;395;true;focus;yes;629870;Chrome;108.0;macOS;10.15.7;undefined;undefined;1440 x 900;1440 x 900
H026;25;Vrouwelijk;Rechts;3;126;left;yes;50;leftarrow;430;false;focus;yes;631057;Chrome;108.0;macOS;10.15.7;undefined;undefined;1440 x 900;1440 x 900
H026;25;Vrouwelijk;Rechts;3;127;right;no;50;rightarrow;609;true;focus;yes;632423;Chrome;108.0;macOS;10.15.7;undefined;undefined;1440 x 900;1440 x 900
H026;25;Vrouwelijk;Rechts;3;128;right;yes;50;leftarrow;603;false;focus;yes;633785;Chrome;108.0;macOS;10.15.7;undefined;undefined;1440 x 900;1440 x 900
H026;25;Vrouwelijk;Rechts;4;1;right;yes;50;leftarrow;589;false;focus;yes;653527;Chrome;108.0;macOS;10.15.7;undefined;undefined;1440 x 900;1440 x 900
H026;25;Vrouwelijk;Rechts;4;2;left;no;50;leftarrow;368;true;focus;yes;654652;Chrome;108.0;macOS;10.15.7;undefined;undefined;1440 x 900;1440 x 900
H026;25;Vrouwelijk;Rechts;4;3;left;no;50;leftarrow;348;true;focus;yes;655757;Chrome;108.0;macOS;10.15.7;undefined;undefined;1440 x 900;1440 x 900
H026;25;Vrouwelijk;Rechts;4;4;left;yes;50;rightarrow;537;false;focus;yes;657051;Chrome;108.0;macOS;10.15.7;undefined;undefined;1440 x 900;1440 x 900
H026;25;Vrouwelijk;Rechts;4;5;right;no;50;rightarrow;419;true;focus;yes;658227;Chrome;108.0;macOS;10.15.7;undefined;undefined;1440 x 900;1440 x 900
H026;25;Vrouwelijk;Rechts;4;6;right;no;50;rightarrow;390;true;focus;yes;659374;Chrome;108.0;macOS;10.15.7;undefined;undefined;1440 x 900;1440 x 900
H026;25;Vrouwelijk;Rechts;4;7;right;no;50;rightarrow;374;true;focus;yes;660506;Chrome;108.0;macOS;10.15.7;undefined;undefined;1440 x 900;1440 x 900
H026;25;Vrouwelijk;Rechts;4;8;left;no;50;rightarrow;362;false;focus;yes;661625;Chrome;108.0;macOS;10.15.7;undefined;undefined;1440 x 900;1440 x 900
H026;25;Vrouwelijk;Rechts;4;9;left;no;50;leftarrow;430;true;focus;yes;662813;Chrome;108.0;macOS;10.15.7;undefined;undefined;1440 x 900;1440 x 900
H026;25;Vrouwelijk;Rechts;4;10;left;yes;50;rightarrow;601;false;focus;yes;664171;Chrome;108.0;macOS;10.15.7;undefined;undefined;1440 x 900;1440 x 900
H026;25;Vrouwelijk;Rechts;4;11;left;no;50;leftarrow;560;true;focus;yes;665488;Chrome;108.0;macOS;10.15.7;undefined;undefined;1440 x 900;1440 x 900
H026;25;Vrouwelijk;Rechts;4;12;right;no;50;rightarrow;420;true;focus;yes;666665;Chrome;108.0;macOS;10.15.7;undefined;undefined;1440 x 900;1440 x 900
H026;25;Vrouwelijk;Rechts;4;13;right;yes;50;leftarrow;551;false;focus;yes;667976;Chrome;108.0;macOS;10.15.7;undefined;undefined;1440 x 900;1440 x 900
H026;25;Vrouwelijk;Rechts;4;14;right;no;50;rightarrow;468;true;focus;yes;669200;Chrome;108.0;macOS;10.15.7;undefined;undefined;1440 x 900;1440 x 900
H026;25;Vrouwelijk;Rechts;4;15;left;no;50;leftarrow;434;true;focus;yes;670392;Chrome;108.0;macOS;10.15.7;undefined;undefined;1440 x 900;1440 x 900
H026;25;Vrouwelijk;Rechts;4;16;right;no;50;rightarrow;382;true;focus;yes;671531;Chrome;108.0;macOS;10.15.7;undefined;undefined;1440 x 900;1440 x 900
H026;25;Vrouwelijk;Rechts;4;17;right;no;50;rightarrow;374;true;focus;yes;672662;Chrome;108.0;macOS;10.15.7;undefined;undefined;1440 x 900;1440 x 900
H026;25;Vrouwelijk;Rechts;4;18;left;no;50;leftarrow;485;true;focus;yes;673905;Chrome;108.0;macOS;10.15.7;undefined;undefined;1440 x 900;1440 x 900
H026;25;Vrouwelijk;Rechts;4;19;left;no;50;leftarrow;335;true;focus;yes;674998;Chrome;108.0;macOS;10.15.7;undefined;undefined;1440 x 900;1440 x 900
H026;25;Vrouwelijk;Rechts;4;20;right;yes;50;leftarrow;679;false;focus;yes;676434;Chrome;108.0;macOS;10.15.7;undefined;undefined;1440 x 900;1440 x 900
H026;25;Vrouwelijk;Rechts;4;21;right;no;50;rightarrow;481;true;focus;yes;677672;Chrome;108.0;macOS;10.15.7;undefined;undefined;1440 x 900;1440 x 900
H026;25;Vrouwelijk;Rechts;4;22;left;yes;50;rightarrow;664;false;focus;yes;679093;Chrome;108.0;macOS;10.15.7;undefined;undefined;1440 x 900;1440 x 900
H026;25;Vrouwelijk;Rechts;4;23;left;no;50;leftarrow;457;true;focus;yes;680307;Chrome;108.0;macOS;10.15.7;undefined;undefined;1440 x 900;1440 x 900
H026;25;Vrouwelijk;Rechts;4;24;right;no;50;rightarrow;467;true;focus;yes;681533;Chrome;108.0;macOS;10.15.7;undefined;undefined;1440 x 900;1440 x 900
H026;25;Vrouwelijk;Rechts;4;25;left;no;50;leftarrow;429;true;focus;yes;682720;Chrome;108.0;macOS;10.15.7;undefined;undefined;1440 x 900;1440 x 900
H026;25;Vrouwelijk;Rechts;4;26;left;yes;50;rightarrow;563;false;focus;yes;684041;Chrome;108.0;macOS;10.15.7;undefined;undefined;1440 x 900;1440 x 900
H026;25;Vrouwelijk;Rechts;4;27;right;no;50;rightarrow;392;true;focus;yes;685190;Chrome;108.0;macOS;10.15.7;undefined;undefined;1440 x 900;1440 x 900
H026;25;Vrouwelijk;Rechts;4;28;right;yes;50;leftarrow;530;false;focus;yes;686479;Chrome;108.0;macOS;10.15.7;undefined;undefined;1440 x 900;1440 x 900
H026;25;Vrouwelijk;Rechts;4;29;right;no;50;rightarrow;543;true;focus;yes;687780;Chrome;108.0;macOS;10.15.7;undefined;undefined;1440 x 900;1440 x 900
H026;25;Vrouwelijk;Rechts;4;30;left;no;50;leftarrow;399;true;focus;yes;688937;Chrome;108.0;macOS;10.15.7;undefined;undefined;1440 x 900;1440 x 900
H026;25;Vrouwelijk;Rechts;4;31;left;no;50;leftarrow;401;true;focus;yes;690095;Chrome;108.0;macOS;10.15.7;undefined;undefined;1440 x 900;1440 x 900
H026;25;Vrouwelijk;Rechts;4;32;right;no;50;rightarrow;487;true;focus;yes;691341;Chrome;108.0;macOS;10.15.7;undefined;undefined;1440 x 900;1440 x 900
H026;25;Vrouwelijk;Rechts;4;33;right;no;50;rightarrow;384;true;focus;yes;692482;Chrome;108.0;macOS;10.15.7;undefined;undefined;1440 x 900;1440 x 900
H026;25;Vrouwelijk;Rechts;4;34;right;no;50;rightarrow;399;true;focus;yes;693639;Chrome;108.0;macOS;10.15.7;undefined;undefined;1440 x 900;1440 x 900
H026;25;Vrouwelijk;Rechts;4;35;left;no;50;leftarrow;419;true;focus;yes;694816;Chrome;108.0;macOS;10.15.7;undefined;undefined;1440 x 900;1440 x 900
H026;25;Vrouwelijk;Rechts;4;36;right;yes;50;leftarrow;536;false;focus;yes;696108;Chrome;108.0;macOS;10.15.7;undefined;undefined;1440 x 900;1440 x 900
H026;25;Vrouwelijk;Rechts;4;37;left;no;50;leftarrow;376;true;focus;yes;697241;Chrome;108.0;macOS;10.15.7;undefined;undefined;1440 x 900;1440 x 900
H026;25;Vrouwelijk;Rechts;4;38;right;no;50;rightarrow;459;true;focus;yes;698458;Chrome;108.0;macOS;10.15.7;undefined;undefined;1440 x 900;1440 x 900
H026;25;Vrouwelijk;Rechts;4;39;left;yes;50;rightarrow;555;false;focus;yes;699770;Chrome;108.0;macOS;10.15.7;undefined;undefined;1440 x 900;1440 x 900
H026;25;Vrouwelijk;Rechts;4;40;left;no;50;leftarrow;475;true;focus;yes;701002;Chrome;108.0;macOS;10.15.7;undefined;undefined;1440 x 900;1440 x 900
H026;25;Vrouwelijk;Rechts;4;41;left;no;50;leftarrow;320;true;focus;yes;702080;Chrome;108.0;macOS;10.15.7;undefined;undefined;1440 x 900;1440 x 900
H026;25;Vrouwelijk;Rechts;4;42;right;no;50;rightarrow;417;true;focus;yes;703255;Chrome;108.0;macOS;10.15.7;undefined;undefined;1440 x 900;1440 x 900
H026;25;Vrouwelijk;Rechts;4;43;left;no;50;leftarrow;412;true;focus;yes;704424;Chrome;108.0;macOS;10.15.7;undefined;undefined;1440 x 900;1440 x 900
H026;25;Vrouwelijk;Rechts;4;44;right;no;50;rightarrow;498;true;focus;yes;705680;Chrome;108.0;macOS;10.15.7;undefined;undefined;1440 x 900;1440 x 900
H026;25;Vrouwelijk;Rechts;4;45;right;yes;50;rightarrow;298;false;focus;yes;706735;Chrome;108.0;macOS;10.15.7;undefined;undefined;1440 x 900;1440 x 900
H026;25;Vrouwelijk;Rechts;4;46;left;yes;50;leftarrow;450;false;focus;yes;707942;Chrome;108.0;macOS;10.15.7;undefined;undefined;1440 x 900;1440 x 900
H026;25;Vrouwelijk;Rechts;4;47;right;no;50;rightarrow;337;true;focus;yes;709037;Chrome;108.0;macOS;10.15.7;undefined;undefined;1440 x 900;1440 x 900
H026;25;Vrouwelijk;Rechts;4;48;left;no;50;leftarrow;389;true;focus;yes;710184;Chrome;108.0;macOS;10.15.7;undefined;undefined;1440 x 900;1440 x 900
H026;25;Vrouwelijk;Rechts;4;49;left;no;50;leftarrow;373;true;focus;yes;711315;Chrome;108.0;macOS;10.15.7;undefined;undefined;1440 x 900;1440 x 900
H026;25;Vrouwelijk;Rechts;4;50;right;no;50;leftarrow;470;false;focus;yes;712541;Chrome;108.0;macOS;10.15.7;undefined;undefined;1440 x 900;1440 x 900
H026;25;Vrouwelijk;Rechts;4;51;right;no;50;rightarrow;420;true;focus;yes;713719;Chrome;108.0;macOS;10.15.7;undefined;undefined;1440 x 900;1440 x 900
H026;25;Vrouwelijk;Rechts;4;52;left;no;50;leftarrow;402;true;focus;yes;714879;Chrome;108.0;macOS;10.15.7;undefined;undefined;1440 x 900;1440 x 900
H026;25;Vrouwelijk;Rechts;4;53;right;yes;50;leftarrow;582;false;focus;yes;716219;Chrome;108.0;macOS;10.15.7;undefined;undefined;1440 x 900;1440 x 900
H026;25;Vrouwelijk;Rechts;4;54;right;no;50;rightarrow;414;true;focus;yes;717391;Chrome;108.0;macOS;10.15.7;undefined;undefined;1440 x 900;1440 x 900
H026;25;Vrouwelijk;Rechts;4;55;left;yes;50;rightarrow;568;false;focus;yes;718717;Chrome;108.0;macOS;10.15.7;undefined;undefined;1440 x 900;1440 x 900
H026;25;Vrouwelijk;Rechts;4;56;left;no;50;leftarrow;596;true;focus;yes;720072;Chrome;108.0;macOS;10.15.7;undefined;undefined;1440 x 900;1440 x 900
H026;25;Vrouwelijk;Rechts;4;57;right;no;50;rightarrow;406;true;focus;yes;721236;Chrome;108.0;macOS;10.15.7;undefined;undefined;1440 x 900;1440 x 900
H026;25;Vrouwelijk;Rechts;4;58;left;yes;50;rightarrow;547;false;focus;yes;722540;Chrome;108.0;macOS;10.15.7;undefined;undefined;1440 x 900;1440 x 900
H026;25;Vrouwelijk;Rechts;4;59;left;no;50;leftarrow;477;true;focus;yes;723775;Chrome;108.0;macOS;10.15.7;undefined;undefined;1440 x 900;1440 x 900
H026;25;Vrouwelijk;Rechts;4;60;left;no;50;leftarrow;387;true;focus;yes;724922;Chrome;108.0;macOS;10.15.7;undefined;undefined;1440 x 900;1440 x 900
H026;25;Vrouwelijk;Rechts;4;61;left;no;50;leftarrow;383;true;focus;yes;726062;Chrome;108.0;macOS;10.15.7;undefined;undefined;1440 x 900;1440 x 900
H026;25;Vrouwelijk;Rechts;4;62;right;no;50;rightarrow;423;true;focus;yes;727242;Chrome;108.0;macOS;10.15.7;undefined;undefined;1440 x 900;1440 x 900
H026;25;Vrouwelijk;Rechts;4;63;right;yes;50;leftarrow;523;false;focus;yes;728523;Chrome;108.0;macOS;10.15.7;undefined;undefined;1440 x 900;1440 x 900
H026;25;Vrouwelijk;Rechts;4;64;right;no;50;rightarrow;481;true;focus;yes;729763;Chrome;108.0;macOS;10.15.7;undefined;undefined;1440 x 900;1440 x 900
H026;25;Vrouwelijk;Rechts;4;65;right;no;50;rightarrow;408;true;focus;yes;730929;Chrome;108.0;macOS;10.15.7;undefined;undefined;1440 x 900;1440 x 900
H026;25;Vrouwelijk;Rechts;4;66;left;no;50;leftarrow;429;true;focus;yes;732115;Chrome;108.0;macOS;10.15.7;undefined;undefined;1440 x 900;1440 x 900
H026;25;Vrouwelijk;Rechts;4;67;left;no;50;leftarrow;352;true;focus;yes;733224;Chrome;108.0;macOS;10.15.7;undefined;undefined;1440 x 900;1440 x 900
H026;25;Vrouwelijk;Rechts;4;68;left;yes;50;rightarrow;568;false;focus;yes;734550;Chrome;108.0;macOS;10.15.7;undefined;undefined;1440 x 900;1440 x 900
H026;25;Vrouwelijk;Rechts;4;69;left;no;50;leftarrow;431;true;focus;yes;735738;Chrome;108.0;macOS;10.15.7;undefined;undefined;1440 x 900;1440 x 900
H026;25;Vrouwelijk;Rechts;4;70;right;no;50;rightarrow;416;true;focus;yes;736912;Chrome;108.0;macOS;10.15.7;undefined;undefined;1440 x 900;1440 x 900
H026;25;Vrouwelijk;Rechts;4;71;right;no;50;rightarrow;365;true;focus;yes;738034;Chrome;108.0;macOS;10.15.7;undefined;undefined;1440 x 900;1440 x 900
H026;25;Vrouwelijk;Rechts;4;72;right;yes;50;leftarrow;584;false;focus;yes;739375;Chrome;108.0;macOS;10.15.7;undefined;undefined;1440 x 900;1440 x 900
H026;25;Vrouwelijk;Rechts;4;73;left;no;50;leftarrow;395;true;focus;yes;740527;Chrome;108.0;macOS;10.15.7;undefined;undefined;1440 x 900;1440 x 900
H026;25;Vrouwelijk;Rechts;4;74;left;yes;50;rightarrow;536;false;focus;yes;741820;Chrome;108.0;macOS;10.15.7;undefined;undefined;1440 x 900;1440 x 900
H026;25;Vrouwelijk;Rechts;4;75;right;yes;50;leftarrow;541;false;focus;yes;743119;Chrome;108.0;macOS;10.15.7;undefined;undefined;1440 x 900;1440 x 900
H026;25;Vrouwelijk;Rechts;4;76;right;no;50;rightarrow;436;true;focus;yes;744314;Chrome;108.0;macOS;10.15.7;undefined;undefined;1440 x 900;1440 x 900
H026;25;Vrouwelijk;Rechts;4;77;right;no;50;rightarrow;386;true;focus;yes;745458;Chrome;108.0;macOS;10.15.7;undefined;undefined;1440 x 900;1440 x 900
H026;25;Vrouwelijk;Rechts;4;78;left;no;50;leftarrow;438;true;focus;yes;746656;Chrome;108.0;macOS;10.15.7;undefined;undefined;1440 x 900;1440 x 900
H026;25;Vrouwelijk;Rechts;4;79;right;no;50;rightarrow;401;true;focus;yes;747814;Chrome;108.0;macOS;10.15.7;undefined;undefined;1440 x 900;1440 x 900
H026;25;Vrouwelijk;Rechts;4;80;left;no;50;leftarrow;460;true;focus;yes;749031;Chrome;108.0;macOS;10.15.7;undefined;undefined;1440 x 900;1440 x 900
H026;25;Vrouwelijk;Rechts;4;81;right;yes;50;leftarrow;592;false;focus;yes;750380;Chrome;108.0;macOS;10.15.7;undefined;undefined;1440 x 900;1440 x 900
H026;25;Vrouwelijk;Rechts;4;82;right;no;50;rightarrow;404;true;focus;yes;751542;Chrome;108.0;macOS;10.15.7;undefined;undefined;1440 x 900;1440 x 900
H026;25;Vrouwelijk;Rechts;4;83;left;no;50;leftarrow;421;true;focus;yes;752722;Chrome;108.0;macOS;10.15.7;undefined;undefined;1440 x 900;1440 x 900
H026;25;Vrouwelijk;Rechts;4;84;right;no;50;rightarrow;402;true;focus;yes;753881;Chrome;108.0;macOS;10.15.7;undefined;undefined;1440 x 900;1440 x 900
H026;25;Vrouwelijk;Rechts;4;85;left;no;50;leftarrow;393;true;focus;yes;755032;Chrome;108.0;macOS;10.15.7;undefined;undefined;1440 x 900;1440 x 900
H026;25;Vrouwelijk;Rechts;4;86;left;yes;50;rightarrow;499;false;focus;yes;756288;Chrome;108.0;macOS;10.15.7;undefined;undefined;1440 x 900;1440 x 900
H026;25;Vrouwelijk;Rechts;4;87;left;no;50;leftarrow;496;true;focus;yes;757546;Chrome;108.0;macOS;10.15.7;undefined;undefined;1440 x 900;1440 x 900
H026;25;Vrouwelijk;Rechts;4;88;right;no;50;leftarrow;312;false;focus;yes;758616;Chrome;108.0;macOS;10.15.7;undefined;undefined;1440 x 900;1440 x 900
H026;25;Vrouwelijk;Rechts;4;94;left;no;50;leftarrow;397;true;focus;yes;766032;Chrome;108.0;macOS;10.15.7;undefined;undefined;1440 x 900;1440 x 900
H026;25;Vrouwelijk;Rechts;4;95;right;no;50;rightarrow;415;true;focus;yes;767208;Chrome;108.0;macOS;10.15.7;undefined;undefined;1440 x 900;1440 x 900
H026;25;Vrouwelijk;Rechts;4;96;left;no;50;leftarrow;403;true;focus;yes;768374;Chrome;108.0;macOS;10.15.7;undefined;undefined;1440 x 900;1440 x 900
H026;25;Vrouwelijk;Rechts;4;92;right;yes;50;leftarrow;547;false;focus;yes;763651;Chrome;108.0;macOS;10.15.7;undefined;undefined;1440 x 900;1440 x 900
H026;25;Vrouwelijk;Rechts;4;90;left;no;50;leftarrow;482;true;focus;yes;761010;Chrome;108.0;macOS;10.15.7;undefined;undefined;1440 x 900;1440 x 900
H026;25;Vrouwelijk;Rechts;4;93;right;no;50;rightarrow;458;true;focus;yes;764871;Chrome;108.0;macOS;10.15.7;undefined;undefined;1440 x 900;1440 x 900
H026;25;Vrouwelijk;Rechts;4;89;right;no;50;rightarrow;396;true;focus;yes;759770;Chrome;108.0;macOS;10.15.7;undefined;undefined;1440 x 900;1440 x 900
H026;25;Vrouwelijk;Rechts;4;91;left;yes;50;rightarrow;570;false;focus;yes;762340;Chrome;108.0;macOS;10.15.7;undefined;undefined;1440 x 900;1440 x 900
H026;25;Vrouwelijk;Rechts;4;97;right;no;50;rightarrow;376;true;focus;yes;769509;Chrome;108.0;macOS;10.15.7;undefined;undefined;1440 x 900;1440 x 900
H026;25;Vrouwelijk;Rechts;4;98;left;no;50;leftarrow;370;true;focus;yes;770637;Chrome;108.0;macOS;10.15.7;undefined;undefined;1440 x 900;1440 x 900
H026;25;Vrouwelijk;Rechts;4;99;right;no;50;rightarrow;341;true;focus;yes;771738;Chrome;108.0;macOS;10.15.7;undefined;undefined;1440 x 900;1440 x 900
H026;25;Vrouwelijk;Rechts;4;100;left;no;50;leftarrow;360;true;focus;yes;772856;Chrome;108.0;macOS;10.15.7;undefined;undefined;1440 x 900;1440 x 900
H026;25;Vrouwelijk;Rechts;4;101;left;yes;50;rightarrow;522;false;focus;yes;774136;Chrome;108.0;macOS;10.15.7;undefined;undefined;1440 x 900;1440 x 900
H026;25;Vrouwelijk;Rechts;4;102;left;no;50;leftarrow;462;true;focus;yes;775356;Chrome;108.0;macOS;10.15.7;undefined;undefined;1440 x 900;1440 x 900
H026;25;Vrouwelijk;Rechts;4;103;right;no;50;rightarrow;415;true;focus;yes;776528;Chrome;108.0;macOS;10.15.7;undefined;undefined;1440 x 900;1440 x 900
H026;25;Vrouwelijk;Rechts;4;104;right;yes;50;leftarrow;600;false;focus;yes;777885;Chrome;108.0;macOS;10.15.7;undefined;undefined;1440 x 900;1440 x 900
H026;25;Vrouwelijk;Rechts;4;105;right;yes;50;leftarrow;546;false;focus;yes;779188;Chrome;108.0;macOS;10.15.7;undefined;undefined;1440 x 900;1440 x 900
H026;25;Vrouwelijk;Rechts;4;106;right;no;50;rightarrow;432;true;focus;yes;780377;Chrome;108.0;macOS;10.15.7;undefined;undefined;1440 x 900;1440 x 900
H026;25;Vrouwelijk;Rechts;4;107;left;no;50;leftarrow;375;true;focus;yes;781511;Chrome;108.0;macOS;10.15.7;undefined;undefined;1440 x 900;1440 x 900
H026;25;Vrouwelijk;Rechts;4;108;right;no;50;rightarrow;447;true;focus;yes;782717;Chrome;108.0;macOS;10.15.7;undefined;undefined;1440 x 900;1440 x 900
H026;25;Vrouwelijk;Rechts;4;109;left;yes;50;rightarrow;622;false;focus;yes;784097;Chrome;108.0;macOS;10.15.7;undefined;undefined;1440 x 900;1440 x 900
H026;25;Vrouwelijk;Rechts;4;110;right;no;50;rightarrow;326;true;focus;yes;785183;Chrome;108.0;macOS;10.15.7;undefined;undefined;1440 x 900;1440 x 900
H026;25;Vrouwelijk;Rechts;4;111;left;no;50;leftarrow;431;true;focus;yes;786372;Chrome;108.0;macOS;10.15.7;undefined;undefined;1440 x 900;1440 x 900
H026;25;Vrouwelijk;Rechts;4;112;left;no;50;leftarrow;462;true;focus;yes;787591;Chrome;108.0;macOS;10.15.7;undefined;undefined;1440 x 900;1440 x 900
H026;25;Vrouwelijk;Rechts;4;113;left;no;50;leftarrow;378;true;focus;yes;788727;Chrome;108.0;macOS;10.15.7;undefined;undefined;1440 x 900;1440 x 900
H026;25;Vrouwelijk;Rechts;4;114;right;no;50;rightarrow;410;true;focus;yes;789895;Chrome;108.0;macOS;10.15.7;undefined;undefined;1440 x 900;1440 x 900
H026;25;Vrouwelijk;Rechts;4;115;right;no;50;rightarrow;401;true;focus;yes;791056;Chrome;108.0;macOS;10.15.7;undefined;undefined;1440 x 900;1440 x 900
H026;25;Vrouwelijk;Rechts;4;116;right;no;50;rightarrow;388;true;focus;yes;792202;Chrome;108.0;macOS;10.15.7;undefined;undefined;1440 x 900;1440 x 900
H026;25;Vrouwelijk;Rechts;4;117;left;no;50;leftarrow;432;true;focus;yes;793393;Chrome;108.0;macOS;10.15.7;undefined;undefined;1440 x 900;1440 x 900
H026;25;Vrouwelijk;Rechts;4;118;right;yes;50;leftarrow;701;false;focus;yes;794853;Chrome;108.0;macOS;10.15.7;undefined;undefined;1440 x 900;1440 x 900
H026;25;Vrouwelijk;Rechts;4;119;left;yes;50;rightarrow;582;false;focus;yes;796193;Chrome;108.0;macOS;10.15.7;undefined;undefined;1440 x 900;1440 x 900
H026;25;Vrouwelijk;Rechts;4;120;left;no;50;rightarrow;391;false;focus;yes;797342;Chrome;108.0;macOS;10.15.7;undefined;undefined;1440 x 900;1440 x 900
H026;25;Vrouwelijk;Rechts;4;121;left;yes;50;rightarrow;1225;false;focus;yes;799324;Chrome;108.0;macOS;10.15.7;undefined;undefined;1440 x 900;1440 x 900
H026;25;Vrouwelijk;Rechts;4;122;right;no;50;rightarrow;379;true;focus;yes;800461;Chrome;108.0;macOS;10.15.7;undefined;undefined;1440 x 900;1440 x 900
H026;25;Vrouwelijk;Rechts;4;123;left;no;50;rightarrow;398;false;focus;yes;801618;Chrome;108.0;macOS;10.15.7;undefined;undefined;1440 x 900;1440 x 900
H026;25;Vrouwelijk;Rechts;4;124;right;yes;50;leftarrow;639;false;focus;yes;803017;Chrome;108.0;macOS;10.15.7;undefined;undefined;1440 x 900;1440 x 900
H026;25;Vrouwelijk;Rechts;4;125;left;no;50;leftarrow;428;true;focus;yes;804202;Chrome;108.0;macOS;10.15.7;undefined;undefined;1440 x 900;1440 x 900
H026;25;Vrouwelijk;Rechts;4;126;right;no;50;rightarrow;446;true;focus;yes;805406;Chrome;108.0;macOS;10.15.7;undefined;undefined;1440 x 900;1440 x 900
H026;25;Vrouwelijk;Rechts;4;127;left;no;50;leftarrow;416;true;focus;yes;806580;Chrome;108.0;macOS;10.15.7;undefined;undefined;1440 x 900;1440 x 900
H026;25;Vrouwelijk;Rechts;4;128;right;no;50;rightarrow;360;true;focus;yes;807697;Chrome;108.0;macOS;10.15.7;undefined;undefined;1440 x 900;1440 x 900
H026;25;Vrouwelijk;Rechts;5;1;left;no;50;leftarrow;378;true;focus;yes;826722;Chrome;108.0;macOS;10.15.7;undefined;undefined;1440 x 900;1440 x 900
H026;25;Vrouwelijk;Rechts;5;2;left;no;50;leftarrow;487;true;focus;yes;827967;Chrome;108.0;macOS;10.15.7;undefined;undefined;1440 x 900;1440 x 900
H026;25;Vrouwelijk;Rechts;5;3;right;no;50;rightarrow;444;true;focus;yes;829173;Chrome;108.0;macOS;10.15.7;undefined;undefined;1440 x 900;1440 x 900
H026;25;Vrouwelijk;Rechts;5;4;left;no;50;leftarrow;404;true;focus;yes;830336;Chrome;108.0;macOS;10.15.7;undefined;undefined;1440 x 900;1440 x 900
H026;25;Vrouwelijk;Rechts;5;5;right;yes;50;leftarrow;736;false;focus;yes;831829;Chrome;108.0;macOS;10.15.7;undefined;undefined;1440 x 900;1440 x 900
H026;25;Vrouwelijk;Rechts;5;6;right;no;50;rightarrow;392;true;focus;yes;832978;Chrome;108.0;macOS;10.15.7;undefined;undefined;1440 x 900;1440 x 900
H026;25;Vrouwelijk;Rechts;5;7;right;no;50;rightarrow;455;true;focus;yes;834191;Chrome;108.0;macOS;10.15.7;undefined;undefined;1440 x 900;1440 x 900
H026;25;Vrouwelijk;Rechts;5;8;left;yes;50;rightarrow;563;false;focus;yes;835512;Chrome;108.0;macOS;10.15.7;undefined;undefined;1440 x 900;1440 x 900
H026;25;Vrouwelijk;Rechts;5;9;right;no;50;rightarrow;385;true;focus;yes;836655;Chrome;108.0;macOS;10.15.7;undefined;undefined;1440 x 900;1440 x 900
H026;25;Vrouwelijk;Rechts;5;10;right;yes;50;leftarrow;479;false;focus;yes;837898;Chrome;108.0;macOS;10.15.7;undefined;undefined;1440 x 900;1440 x 900
H026;25;Vrouwelijk;Rechts;5;11;left;no;50;leftarrow;446;true;focus;yes;839102;Chrome;108.0;macOS;10.15.7;undefined;undefined;1440 x 900;1440 x 900
H026;25;Vrouwelijk;Rechts;5;12;left;yes;50;rightarrow;526;false;focus;yes;840386;Chrome;108.0;macOS;10.15.7;undefined;undefined;1440 x 900;1440 x 900
H026;25;Vrouwelijk;Rechts;5;13;right;no;50;rightarrow;486;true;focus;yes;841630;Chrome;108.0;macOS;10.15.7;undefined;undefined;1440 x 900;1440 x 900
H026;25;Vrouwelijk;Rechts;5;14;right;no;50;rightarrow;370;true;focus;yes;842758;Chrome;108.0;macOS;10.15.7;undefined;undefined;1440 x 900;1440 x 900
H026;25;Vrouwelijk;Rechts;5;15;left;no;50;leftarrow;402;true;focus;yes;843918;Chrome;108.0;macOS;10.15.7;undefined;undefined;1440 x 900;1440 x 900
H026;25;Vrouwelijk;Rechts;5;16;left;no;50;leftarrow;354;true;focus;yes;845030;Chrome;108.0;macOS;10.15.7;undefined;undefined;1440 x 900;1440 x 900
H026;25;Vrouwelijk;Rechts;5;17;right;no;50;rightarrow;489;true;focus;yes;846277;Chrome;108.0;macOS;10.15.7;undefined;undefined;1440 x 900;1440 x 900
H026;25;Vrouwelijk;Rechts;5;18;left;yes;50;leftarrow;421;false;focus;yes;847457;Chrome;108.0;macOS;10.15.7;undefined;undefined;1440 x 900;1440 x 900
H026;25;Vrouwelijk;Rechts;5;19;left;no;50;leftarrow;455;true;focus;yes;848668;Chrome;108.0;macOS;10.15.7;undefined;undefined;1440 x 900;1440 x 900
H026;25;Vrouwelijk;Rechts;5;20;right;no;50;rightarrow;469;true;focus;yes;849896;Chrome;108.0;macOS;10.15.7;undefined;undefined;1440 x 900;1440 x 900
H026;25;Vrouwelijk;Rechts;5;21;left;no;50;leftarrow;545;true;focus;yes;851198;Chrome;108.0;macOS;10.15.7;undefined;undefined;1440 x 900;1440 x 900
H026;25;Vrouwelijk;Rechts;5;22;left;no;50;rightarrow;308;false;focus;yes;852263;Chrome;108.0;macOS;10.15.7;undefined;undefined;1440 x 900;1440 x 900
H026;25;Vrouwelijk;Rechts;5;23;right;yes;50;leftarrow;552;false;focus;yes;853573;Chrome;108.0;macOS;10.15.7;undefined;undefined;1440 x 900;1440 x 900
H026;25;Vrouwelijk;Rechts;5;24;right;no;50;rightarrow;508;true;focus;yes;854839;Chrome;108.0;macOS;10.15.7;undefined;undefined;1440 x 900;1440 x 900
H026;25;Vrouwelijk;Rechts;5;25;left;no;50;leftarrow;398;true;focus;yes;855995;Chrome;108.0;macOS;10.15.7;undefined;undefined;1440 x 900;1440 x 900
H026;25;Vrouwelijk;Rechts;5;26;left;yes;50;rightarrow;541;false;focus;yes;857295;Chrome;108.0;macOS;10.15.7;undefined;undefined;1440 x 900;1440 x 900
H026;25;Vrouwelijk;Rechts;5;27;right;yes;50;leftarrow;524;false;focus;yes;858576;Chrome;108.0;macOS;10.15.7;undefined;undefined;1440 x 900;1440 x 900
H026;25;Vrouwelijk;Rechts;5;28;left;no;50;leftarrow;411;true;focus;yes;859744;Chrome;108.0;macOS;10.15.7;undefined;undefined;1440 x 900;1440 x 900
H026;25;Vrouwelijk;Rechts;5;29;right;no;50;rightarrow;456;true;focus;yes;860958;Chrome;108.0;macOS;10.15.7;undefined;undefined;1440 x 900;1440 x 900
H026;25;Vrouwelijk;Rechts;5;30;left;no;50;leftarrow;347;true;focus;yes;862062;Chrome;108.0;macOS;10.15.7;undefined;undefined;1440 x 900;1440 x 900
H026;25;Vrouwelijk;Rechts;5;31;right;no;50;rightarrow;338;true;focus;yes;863159;Chrome;108.0;macOS;10.15.7;undefined;undefined;1440 x 900;1440 x 900
H026;25;Vrouwelijk;Rechts;5;32;right;no;50;rightarrow;401;true;focus;yes;864318;Chrome;108.0;macOS;10.15.7;undefined;undefined;1440 x 900;1440 x 900
H026;25;Vrouwelijk;Rechts;5;33;left;no;50;leftarrow;349;true;focus;yes;865425;Chrome;108.0;macOS;10.15.7;undefined;undefined;1440 x 900;1440 x 900
H026;25;Vrouwelijk;Rechts;5;34;left;yes;50;rightarrow;530;false;focus;yes;866714;Chrome;108.0;macOS;10.15.7;undefined;undefined;1440 x 900;1440 x 900
H026;25;Vrouwelijk;Rechts;5;35;left;no;50;leftarrow;399;true;focus;yes;867870;Chrome;108.0;macOS;10.15.7;undefined;undefined;1440 x 900;1440 x 900
H026;25;Vrouwelijk;Rechts;5;36;right;no;50;rightarrow;491;true;focus;yes;869121;Chrome;108.0;macOS;10.15.7;undefined;undefined;1440 x 900;1440 x 900
H026;25;Vrouwelijk;Rechts;5;37;right;no;50;leftarrow;380;false;focus;yes;870260;Chrome;108.0;macOS;10.15.7;undefined;undefined;1440 x 900;1440 x 900
H026;25;Vrouwelijk;Rechts;5;38;right;no;50;rightarrow;336;true;focus;yes;871355;Chrome;108.0;macOS;10.15.7;undefined;undefined;1440 x 900;1440 x 900
H026;25;Vrouwelijk;Rechts;5;39;right;yes;50;leftarrow;506;false;focus;yes;872619;Chrome;108.0;macOS;10.15.7;undefined;undefined;1440 x 900;1440 x 900
H026;25;Vrouwelijk;Rechts;5;40;left;no;50;leftarrow;372;true;focus;yes;873748;Chrome;108.0;macOS;10.15.7;undefined;undefined;1440 x 900;1440 x 900
H026;25;Vrouwelijk;Rechts;5;41;right;no;50;rightarrow;480;true;focus;yes;874986;Chrome;108.0;macOS;10.15.7;undefined;undefined;1440 x 900;1440 x 900
H026;25;Vrouwelijk;Rechts;5;42;left;no;50;leftarrow;372;true;focus;yes;876116;Chrome;108.0;macOS;10.15.7;undefined;undefined;1440 x 900;1440 x 900
H026;25;Vrouwelijk;Rechts;5;43;left;yes;50;rightarrow;472;false;focus;yes;877351;Chrome;108.0;macOS;10.15.7;undefined;undefined;1440 x 900;1440 x 900
H026;25;Vrouwelijk;Rechts;5;44;left;no;50;rightarrow;446;false;focus;yes;878555;Chrome;108.0;macOS;10.15.7;undefined;undefined;1440 x 900;1440 x 900
H026;25;Vrouwelijk;Rechts;5;45;right;no;50;rightarrow;463;true;focus;yes;879777;Chrome;108.0;macOS;10.15.7;undefined;undefined;1440 x 900;1440 x 900
H026;25;Vrouwelijk;Rechts;5;46;right;no;50;rightarrow;397;true;focus;yes;880932;Chrome;108.0;macOS;10.15.7;undefined;undefined;1440 x 900;1440 x 900
H026;25;Vrouwelijk;Rechts;5;47;right;yes;50;leftarrow;501;false;focus;yes;882191;Chrome;108.0;macOS;10.15.7;undefined;undefined;1440 x 900;1440 x 900
H026;25;Vrouwelijk;Rechts;5;48;left;no;50;leftarrow;452;true;focus;yes;883400;Chrome;108.0;macOS;10.15.7;undefined;undefined;1440 x 900;1440 x 900
H026;25;Vrouwelijk;Rechts;5;49;left;no;50;leftarrow;455;true;focus;yes;884614;Chrome;108.0;macOS;10.15.7;undefined;undefined;1440 x 900;1440 x 900
H026;25;Vrouwelijk;Rechts;5;50;right;no;50;rightarrow;415;true;focus;yes;885787;Chrome;108.0;macOS;10.15.7;undefined;undefined;1440 x 900;1440 x 900
H026;25;Vrouwelijk;Rechts;5;51;left;yes;50;rightarrow;594;false;focus;yes;887138;Chrome;108.0;macOS;10.15.7;undefined;undefined;1440 x 900;1440 x 900
H026;25;Vrouwelijk;Rechts;5;52;right;no;50;rightarrow;376;true;focus;yes;888272;Chrome;108.0;macOS;10.15.7;undefined;undefined;1440 x 900;1440 x 900
H026;25;Vrouwelijk;Rechts;5;53;right;yes;50;leftarrow;534;false;focus;yes;889565;Chrome;108.0;macOS;10.15.7;undefined;undefined;1440 x 900;1440 x 900
H026;25;Vrouwelijk;Rechts;5;54;left;no;50;leftarrow;460;true;focus;yes;890784;Chrome;108.0;macOS;10.15.7;undefined;undefined;1440 x 900;1440 x 900
H026;25;Vrouwelijk;Rechts;5;55;right;no;50;leftarrow;451;false;focus;yes;891992;Chrome;108.0;macOS;10.15.7;undefined;undefined;1440 x 900;1440 x 900
H026;25;Vrouwelijk;Rechts;5;56;left;no;50;leftarrow;488;true;focus;yes;893238;Chrome;108.0;macOS;10.15.7;undefined;undefined;1440 x 900;1440 x 900
H026;25;Vrouwelijk;Rechts;5;57;right;no;50;rightarrow;478;true;focus;yes;894474;Chrome;108.0;macOS;10.15.7;undefined;undefined;1440 x 900;1440 x 900
H026;25;Vrouwelijk;Rechts;5;58;left;no;50;leftarrow;510;true;focus;yes;895741;Chrome;108.0;macOS;10.15.7;undefined;undefined;1440 x 900;1440 x 900
H026;25;Vrouwelijk;Rechts;5;59;left;yes;50;rightarrow;534;false;focus;yes;897033;Chrome;108.0;macOS;10.15.7;undefined;undefined;1440 x 900;1440 x 900
H026;25;Vrouwelijk;Rechts;5;60;right;no;50;rightarrow;366;true;focus;yes;898158;Chrome;108.0;macOS;10.15.7;undefined;undefined;1440 x 900;1440 x 900
H026;25;Vrouwelijk;Rechts;5;61;left;no;50;leftarrow;468;true;focus;yes;899384;Chrome;108.0;macOS;10.15.7;undefined;undefined;1440 x 900;1440 x 900
H026;25;Vrouwelijk;Rechts;5;62;right;yes;50;leftarrow;569;false;focus;yes;900711;Chrome;108.0;macOS;10.15.7;undefined;undefined;1440 x 900;1440 x 900
H026;25;Vrouwelijk;Rechts;5;63;left;no;50;leftarrow;412;true;focus;yes;901882;Chrome;108.0;macOS;10.15.7;undefined;undefined;1440 x 900;1440 x 900
H026;25;Vrouwelijk;Rechts;5;64;right;no;50;rightarrow;419;true;focus;yes;903058;Chrome;108.0;macOS;10.15.7;undefined;undefined;1440 x 900;1440 x 900
H026;25;Vrouwelijk;Rechts;5;65;left;yes;50;rightarrow;595;false;focus;yes;904410;Chrome;108.0;macOS;10.15.7;undefined;undefined;1440 x 900;1440 x 900
H026;25;Vrouwelijk;Rechts;5;66;right;yes;50;leftarrow;606;false;focus;yes;905779;Chrome;108.0;macOS;10.15.7;undefined;undefined;1440 x 900;1440 x 900
H026;25;Vrouwelijk;Rechts;5;67;left;no;50;leftarrow;636;true;focus;yes;907174;Chrome;108.0;macOS;10.15.7;undefined;undefined;1440 x 900;1440 x 900
H026;25;Vrouwelijk;Rechts;5;68;right;no;50;rightarrow;482;true;focus;yes;908414;Chrome;108.0;macOS;10.15.7;undefined;undefined;1440 x 900;1440 x 900
H026;25;Vrouwelijk;Rechts;5;69;left;no;50;rightarrow;438;false;focus;yes;909609;Chrome;108.0;macOS;10.15.7;undefined;undefined;1440 x 900;1440 x 900
H026;25;Vrouwelijk;Rechts;5;70;left;no;50;leftarrow;396;true;focus;yes;910763;Chrome;108.0;macOS;10.15.7;undefined;undefined;1440 x 900;1440 x 900
H026;25;Vrouwelijk;Rechts;5;71;right;no;50;rightarrow;468;true;focus;yes;911989;Chrome;108.0;macOS;10.15.7;undefined;undefined;1440 x 900;1440 x 900
H026;25;Vrouwelijk;Rechts;5;72;right;no;50;rightarrow;377;true;focus;yes;913124;Chrome;108.0;macOS;10.15.7;undefined;undefined;1440 x 900;1440 x 900
H026;25;Vrouwelijk;Rechts;5;73;left;yes;50;rightarrow;608;false;focus;yes;914490;Chrome;108.0;macOS;10.15.7;undefined;undefined;1440 x 900;1440 x 900
H026;25;Vrouwelijk;Rechts;5;74;left;no;50;leftarrow;501;true;focus;yes;915750;Chrome;108.0;macOS;10.15.7;undefined;undefined;1440 x 900;1440 x 900
H026;25;Vrouwelijk;Rechts;5;75;left;no;50;leftarrow;408;true;focus;yes;916914;Chrome;108.0;macOS;10.15.7;undefined;undefined;1440 x 900;1440 x 900
H026;25;Vrouwelijk;Rechts;5;76;right;no;50;rightarrow;355;true;focus;yes;918026;Chrome;108.0;macOS;10.15.7;undefined;undefined;1440 x 900;1440 x 900
H026;25;Vrouwelijk;Rechts;5;77;right;no;50;rightarrow;423;true;focus;yes;919208;Chrome;108.0;macOS;10.15.7;undefined;undefined;1440 x 900;1440 x 900
H026;25;Vrouwelijk;Rechts;5;78;right;no;50;rightarrow;367;true;focus;yes;920334;Chrome;108.0;macOS;10.15.7;undefined;undefined;1440 x 900;1440 x 900
H026;25;Vrouwelijk;Rechts;5;79;left;no;50;leftarrow;419;true;focus;yes;921510;Chrome;108.0;macOS;10.15.7;undefined;undefined;1440 x 900;1440 x 900
H026;25;Vrouwelijk;Rechts;5;80;right;yes;50;leftarrow;554;false;focus;yes;922823;Chrome;108.0;macOS;10.15.7;undefined;undefined;1440 x 900;1440 x 900
H026;25;Vrouwelijk;Rechts;5;81;right;no;50;rightarrow;391;true;focus;yes;923971;Chrome;108.0;macOS;10.15.7;undefined;undefined;1440 x 900;1440 x 900
H026;25;Vrouwelijk;Rechts;5;82;left;no;50;leftarrow;410;true;focus;yes;925140;Chrome;108.0;macOS;10.15.7;undefined;undefined;1440 x 900;1440 x 900
H026;25;Vrouwelijk;Rechts;5;83;left;no;50;leftarrow;433;true;focus;yes;926331;Chrome;108.0;macOS;10.15.7;undefined;undefined;1440 x 900;1440 x 900
H026;25;Vrouwelijk;Rechts;5;84;left;no;50;leftarrow;412;true;focus;yes;927502;Chrome;108.0;macOS;10.15.7;undefined;undefined;1440 x 900;1440 x 900
H026;25;Vrouwelijk;Rechts;5;85;right;yes;50;rightarrow;451;false;focus;yes;928715;Chrome;108.0;macOS;10.15.7;undefined;undefined;1440 x 900;1440 x 900
H026;25;Vrouwelijk;Rechts;5;86;right;no;50;rightarrow;485;true;focus;yes;929959;Chrome;108.0;macOS;10.15.7;undefined;undefined;1440 x 900;1440 x 900
H026;25;Vrouwelijk;Rechts;5;87;right;no;50;rightarrow;441;true;focus;yes;931161;Chrome;108.0;macOS;10.15.7;undefined;undefined;1440 x 900;1440 x 900
H026;25;Vrouwelijk;Rechts;5;88;left;yes;50;rightarrow;631;false;focus;yes;932551;Chrome;108.0;macOS;10.15.7;undefined;undefined;1440 x 900;1440 x 900
H026;25;Vrouwelijk;Rechts;5;89;right;yes;50;undefined;null;true;focus;yes;934559;Chrome;108.0;macOS;10.15.7;undefined;undefined;1440 x 900;1440 x 900
H026;25;Vrouwelijk;Rechts;5;90;right;no;100;rightarrow;448;true;focus;yes;935770;Chrome;108.0;macOS;10.15.7;undefined;undefined;1440 x 900;1440 x 900
H026;25;Vrouwelijk;Rechts;5;91;left;no;100;leftarrow;453;true;focus;yes;936981;Chrome;108.0;macOS;10.15.7;undefined;undefined;1440 x 900;1440 x 900
H026;25;Vrouwelijk;Rechts;5;92;left;yes;100;rightarrow;873;false;focus;yes;938612;Chrome;108.0;macOS;10.15.7;undefined;undefined;1440 x 900;1440 x 900
H026;25;Vrouwelijk;Rechts;5;93;right;no;50;rightarrow;422;true;focus;yes;939797;Chrome;108.0;macOS;10.15.7;undefined;undefined;1440 x 900;1440 x 900
H026;25;Vrouwelijk;Rechts;5;94;right;no;50;rightarrow;450;true;focus;yes;941004;Chrome;108.0;macOS;10.15.7;undefined;undefined;1440 x 900;1440 x 900
H026;25;Vrouwelijk;Rechts;5;95;left;no;50;leftarrow;495;true;focus;yes;942263;Chrome;108.0;macOS;10.15.7;undefined;undefined;1440 x 900;1440 x 900
H026;25;Vrouwelijk;Rechts;5;96;left;no;50;leftarrow;504;true;focus;yes;943527;Chrome;108.0;macOS;10.15.7;undefined;undefined;1440 x 900;1440 x 900
H026;25;Vrouwelijk;Rechts;5;97;right;no;50;rightarrow;518;true;focus;yes;944804;Chrome;108.0;macOS;10.15.7;undefined;undefined;1440 x 900;1440 x 900
H026;25;Vrouwelijk;Rechts;5;98;right;yes;50;undefined;null;true;focus;yes;946815;Chrome;108.0;macOS;10.15.7;undefined;undefined;1440 x 900;1440 x 900
H026;25;Vrouwelijk;Rechts;5;99;left;no;100;leftarrow;428;true;focus;yes;948004;Chrome;108.0;macOS;10.15.7;undefined;undefined;1440 x 900;1440 x 900
H026;25;Vrouwelijk;Rechts;5;100;left;no;100;leftarrow;428;true;focus;yes;949191;Chrome;108.0;macOS;10.15.7;undefined;undefined;1440 x 900;1440 x 900
H026;25;Vrouwelijk;Rechts;5;101;right;no;100;rightarrow;454;true;focus;yes;950403;Chrome;108.0;macOS;10.15.7;undefined;undefined;1440 x 900;1440 x 900
H026;25;Vrouwelijk;Rechts;5;102;left;yes;100;rightarrow;679;false;focus;yes;951840;Chrome;108.0;macOS;10.15.7;undefined;undefined;1440 x 900;1440 x 900
H026;25;Vrouwelijk;Rechts;5;103;right;no;50;rightarrow;422;true;focus;yes;953020;Chrome;108.0;macOS;10.15.7;undefined;undefined;1440 x 900;1440 x 900
H026;25;Vrouwelijk;Rechts;5;104;left;no;50;leftarrow;466;true;focus;yes;954244;Chrome;108.0;macOS;10.15.7;undefined;undefined;1440 x 900;1440 x 900
H026;25;Vrouwelijk;Rechts;5;105;right;no;50;rightarrow;443;true;focus;yes;955445;Chrome;108.0;macOS;10.15.7;undefined;undefined;1440 x 900;1440 x 900
H026;25;Vrouwelijk;Rechts;5;106;left;no;50;leftarrow;397;true;focus;yes;956601;Chrome;108.0;macOS;10.15.7;undefined;undefined;1440 x 900;1440 x 900
H026;25;Vrouwelijk;Rechts;5;107;right;no;50;rightarrow;420;true;focus;yes;957781;Chrome;108.0;macOS;10.15.7;undefined;undefined;1440 x 900;1440 x 900
H026;25;Vrouwelijk;Rechts;5;108;left;no;50;leftarrow;420;true;focus;yes;958961;Chrome;108.0;macOS;10.15.7;undefined;undefined;1440 x 900;1440 x 900
H026;25;Vrouwelijk;Rechts;5;109;left;yes;50;rightarrow;556;false;focus;yes;960276;Chrome;108.0;macOS;10.15.7;undefined;undefined;1440 x 900;1440 x 900
H026;25;Vrouwelijk;Rechts;5;110;left;no;50;leftarrow;427;true;focus;yes;961461;Chrome;108.0;macOS;10.15.7;undefined;undefined;1440 x 900;1440 x 900
H026;25;Vrouwelijk;Rechts;5;111;right;yes;50;leftarrow;598;false;focus;yes;962818;Chrome;108.0;macOS;10.15.7;undefined;undefined;1440 x 900;1440 x 900
H026;25;Vrouwelijk;Rechts;5;112;right;no;50;rightarrow;388;true;focus;yes;963965;Chrome;108.0;macOS;10.15.7;undefined;undefined;1440 x 900;1440 x 900
H026;25;Vrouwelijk;Rechts;5;113;left;no;50;leftarrow;417;true;focus;yes;965140;Chrome;108.0;macOS;10.15.7;undefined;undefined;1440 x 900;1440 x 900
H026;25;Vrouwelijk;Rechts;5;114;left;no;50;leftarrow;392;true;focus;yes;966290;Chrome;108.0;macOS;10.15.7;undefined;undefined;1440 x 900;1440 x 900
H026;25;Vrouwelijk;Rechts;5;115;left;no;50;leftarrow;431;true;focus;yes;967480;Chrome;108.0;macOS;10.15.7;undefined;undefined;1440 x 900;1440 x 900
H026;25;Vrouwelijk;Rechts;5;116;left;yes;50;rightarrow;610;false;focus;yes;968849;Chrome;108.0;macOS;10.15.7;undefined;undefined;1440 x 900;1440 x 900
H026;25;Vrouwelijk;Rechts;5;117;right;yes;50;leftarrow;609;false;focus;yes;970217;Chrome;108.0;macOS;10.15.7;undefined;undefined;1440 x 900;1440 x 900
H026;25;Vrouwelijk;Rechts;5;118;right;no;50;rightarrow;445;true;focus;yes;971422;Chrome;108.0;macOS;10.15.7;undefined;undefined;1440 x 900;1440 x 900
H026;25;Vrouwelijk;Rechts;5;119;right;no;50;rightarrow;420;true;focus;yes;972601;Chrome;108.0;macOS;10.15.7;undefined;undefined;1440 x 900;1440 x 900
H026;25;Vrouwelijk;Rechts;5;120;right;no;50;rightarrow;467;true;focus;yes;973829;Chrome;108.0;macOS;10.15.7;undefined;undefined;1440 x 900;1440 x 900
H026;25;Vrouwelijk;Rechts;5;121;left;no;50;rightarrow;379;false;focus;yes;974967;Chrome;108.0;macOS;10.15.7;undefined;undefined;1440 x 900;1440 x 900
H026;25;Vrouwelijk;Rechts;5;122;right;no;50;leftarrow;489;false;focus;yes;976214;Chrome;108.0;macOS;10.15.7;undefined;undefined;1440 x 900;1440 x 900
H026;25;Vrouwelijk;Rechts;5;123;right;yes;50;leftarrow;599;false;focus;yes;977570;Chrome;108.0;macOS;10.15.7;undefined;undefined;1440 x 900;1440 x 900
H026;25;Vrouwelijk;Rechts;5;124;right;no;50;rightarrow;469;true;focus;yes;978797;Chrome;108.0;macOS;10.15.7;undefined;undefined;1440 x 900;1440 x 900
H026;25;Vrouwelijk;Rechts;5;125;left;yes;50;rightarrow;595;false;focus;yes;980151;Chrome;108.0;macOS;10.15.7;undefined;undefined;1440 x 900;1440 x 900
H026;25;Vrouwelijk;Rechts;5;126;left;no;50;leftarrow;663;true;focus;yes;981572;Chrome;108.0;macOS;10.15.7;undefined;undefined;1440 x 900;1440 x 900
H026;25;Vrouwelijk;Rechts;5;127;left;no;50;leftarrow;588;true;focus;yes;982920;Chrome;108.0;macOS;10.15.7;undefined;undefined;1440 x 900;1440 x 900
H026;25;Vrouwelijk;Rechts;5;128;right;no;50;leftarrow;540;false;focus;yes;984219;Chrome;108.0;macOS;10.15.7;undefined;undefined;1440 x 900;1440 x 900
H026;25;Vrouwelijk;Rechts;6;1;right;no;50;rightarrow;401;true;focus;yes;1008710;Chrome;108.0;macOS;10.15.7;undefined;undefined;1440 x 900;1440 x 900
H026;25;Vrouwelijk;Rechts;6;2;right;no;50;rightarrow;405;true;focus;yes;1009871;Chrome;108.0;macOS;10.15.7;undefined;undefined;1440 x 900;1440 x 900
H026;25;Vrouwelijk;Rechts;6;3;left;no;50;leftarrow;869;true;focus;yes;1011499;Chrome;108.0;macOS;10.15.7;undefined;undefined;1440 x 900;1440 x 900
H026;25;Vrouwelijk;Rechts;6;4;right;yes;50;undefined;null;true;focus;yes;1013511;Chrome;108.0;macOS;10.15.7;undefined;undefined;1440 x 900;1440 x 900
H026;25;Vrouwelijk;Rechts;6;5;left;no;100;leftarrow;395;true;focus;yes;1014669;Chrome;108.0;macOS;10.15.7;undefined;undefined;1440 x 900;1440 x 900
H026;25;Vrouwelijk;Rechts;6;6;right;no;100;rightarrow;498;true;focus;yes;1015925;Chrome;108.0;macOS;10.15.7;undefined;undefined;1440 x 900;1440 x 900
H026;25;Vrouwelijk;Rechts;6;7;left;yes;100;undefined;null;true;focus;yes;1017936;Chrome;108.0;macOS;10.15.7;undefined;undefined;1440 x 900;1440 x 900
H026;25;Vrouwelijk;Rechts;6;8;left;no;150;leftarrow;413;true;focus;yes;1019113;Chrome;108.0;macOS;10.15.7;undefined;undefined;1440 x 900;1440 x 900
H026;25;Vrouwelijk;Rechts;6;9;right;no;150;rightarrow;402;true;focus;yes;1020273;Chrome;108.0;macOS;10.15.7;undefined;undefined;1440 x 900;1440 x 900
H026;25;Vrouwelijk;Rechts;6;10;left;yes;150;leftarrow;437;false;focus;yes;1021473;Chrome;108.0;macOS;10.15.7;undefined;undefined;1440 x 900;1440 x 900
H026;25;Vrouwelijk;Rechts;6;11;right;yes;100;undefined;null;true;focus;yes;1023486;Chrome;108.0;macOS;10.15.7;undefined;undefined;1440 x 900;1440 x 900
H026;25;Vrouwelijk;Rechts;6;12;left;no;150;leftarrow;412;true;focus;yes;1024662;Chrome;108.0;macOS;10.15.7;undefined;undefined;1440 x 900;1440 x 900
H026;25;Vrouwelijk;Rechts;6;13;left;no;150;leftarrow;460;true;focus;yes;1025882;Chrome;108.0;macOS;10.15.7;undefined;undefined;1440 x 900;1440 x 900
H026;25;Vrouwelijk;Rechts;6;14;right;no;150;rightarrow;509;true;focus;yes;1027151;Chrome;108.0;macOS;10.15.7;undefined;undefined;1440 x 900;1440 x 900
H026;25;Vrouwelijk;Rechts;6;15;right;no;150;rightarrow;379;true;focus;yes;1028289;Chrome;108.0;macOS;10.15.7;undefined;undefined;1440 x 900;1440 x 900
H026;25;Vrouwelijk;Rechts;6;16;left;no;150;leftarrow;617;true;focus;yes;1029664;Chrome;108.0;macOS;10.15.7;undefined;undefined;1440 x 900;1440 x 900
H026;25;Vrouwelijk;Rechts;6;17;left;no;150;leftarrow;429;true;focus;yes;1030853;Chrome;108.0;macOS;10.15.7;undefined;undefined;1440 x 900;1440 x 900
H026;25;Vrouwelijk;Rechts;6;18;right;no;150;rightarrow;473;true;focus;yes;1032085;Chrome;108.0;macOS;10.15.7;undefined;undefined;1440 x 900;1440 x 900
