participantID,age,gender,handedness,block_i,trial_i,stim,signal,SSD,response,rt,correct,focus,Fullscreen,time_elapsed,browser_name,browser_version,os_name,os_version,tablet,mobile,screen_resolution,window_resolution
S019,19,Vrouwelijk,Rechts,0,1,left,no,200,leftarrow,474,true,focus,yes,330196,Chrome,112.0,Windows,10,undefined,undefined,1536 x 864,1536 x 864
S019,19,Vrouwelijk,Rechts,0,2,left,yes,200,leftarrow,465,false,focus,yes,332204,Chrome,112.0,Windows,10,undefined,undefined,1536 x 864,1536 x 864
S019,19,Vrouwelijk,Rechts,0,3,right,no,150,rightarrow,457,true,focus,yes,334210,Chrome,112.0,Windows,10,undefined,undefined,1536 x 864,1536 x 864
S019,19,Vrouwelijk,Rechts,0,4,right,yes,150,rightarrow,428,false,focus,yes,336181,Chrome,112.0,Windows,10,undefined,undefined,1536 x 864,1536 x 864
S019,19,Vrouwelijk,Rechts,0,5,left,no,100,leftarrow,467,true,focus,yes,338176,Chrome,112.0,Windows,10,undefined,undefined,1536 x 864,1536 x 864
S019,19,Vrouwelijk,Rechts,0,6,right,no,100,rightarrow,649,true,focus,yes,340368,Chrome,112.0,Windows,10,undefined,undefined,1536 x 864,1536 x 864
S019,19,Vrouwelijk,Rechts,0,7,left,no,100,leftarrow,352,true,focus,yes,342245,Chrome,112.0,Windows,10,undefined,undefined,1536 x 864,1536 x 864
S019,19,Vrouwelijk,Rechts,0,8,right,no,100,rightarrow,306,true,focus,yes,344093,Chrome,112.0,Windows,10,undefined,undefined,1536 x 864,1536 x 864
S019,19,Vrouwelijk,Rechts,1,1,left,no,100,leftarrow,291,true,focus,yes,364376,Chrome,112.0,Windows,10,undefined,undefined,1536 x 864,1536 x 864
S019,19,Vrouwelijk,Rechts,1,2,left,yes,100,leftarrow,368,false,focus,yes,365519,Chrome,112.0,Windows,10,undefined,undefined,1536 x 864,1536 x 864
S019,19,Vrouwelijk,Rechts,1,3,left,no,50,leftarrow,332,true,focus,yes,366617,Chrome,112.0,Windows,10,undefined,undefined,1536 x 864,1536 x 864
S019,19,Vrouwelijk,Rechts,1,4,left,no,50,leftarrow,303,true,focus,yes,367687,Chrome,112.0,Windows,10,undefined,undefined,1536 x 864,1536 x 864
S019,19,Vrouwelijk,Rechts,1,5,right,no,50,rightarrow,389,true,focus,yes,368856,Chrome,112.0,Windows,10,undefined,undefined,1536 x 864,1536 x 864
S019,19,Vrouwelijk,Rechts,1,6,right,no,50,rightarrow,284,true,focus,yes,369918,Chrome,112.0,Windows,10,undefined,undefined,1536 x 864,1536 x 864
S019,19,Vrouwelijk,Rechts,1,7,right,yes,50,rightarrow,287,false,focus,yes,370972,Chrome,112.0,Windows,10,undefined,undefined,1536 x 864,1536 x 864
S019,19,Vrouwelijk,Rechts,1,8,right,no,50,rightarrow,395,true,focus,yes,372145,Chrome,112.0,Windows,10,undefined,undefined,1536 x 864,1536 x 864
S019,19,Vrouwelijk,Rechts,1,9,left,no,50,leftarrow,470,true,focus,yes,373387,Chrome,112.0,Windows,10,undefined,undefined,1536 x 864,1536 x 864
S019,19,Vrouwelijk,Rechts,1,10,right,yes,50,undefined,null,true,focus,yes,375431,Chrome,112.0,Windows,10,undefined,undefined,1536 x 864,1536 x 864
S019,19,Vrouwelijk,Rechts,1,11,left,yes,100,undefined,null,true,focus,yes,377458,Chrome,112.0,Windows,10,undefined,undefined,1536 x 864,1536 x 864
S019,19,Vrouwelijk,Rechts,1,12,right,no,150,rightarrow,477,true,focus,yes,378701,Chrome,112.0,Windows,10,undefined,undefined,1536 x 864,1536 x 864
S019,19,Vrouwelijk,Rechts,1,13,left,no,150,leftarrow,368,true,focus,yes,379851,Chrome,112.0,Windows,10,undefined,undefined,1536 x 864,1536 x 864
S019,19,Vrouwelijk,Rechts,1,14,right,no,150,rightarrow,295,true,focus,yes,380928,Chrome,112.0,Windows,10,undefined,undefined,1536 x 864,1536 x 864
S019,19,Vrouwelijk,Rechts,1,15,left,no,150,leftarrow,321,true,focus,yes,382021,Chrome,112.0,Windows,10,undefined,undefined,1536 x 864,1536 x 864
S019,19,Vrouwelijk,Rechts,1,16,right,no,150,rightarrow,281,true,focus,yes,383081,Chrome,112.0,Windows,10,undefined,undefined,1536 x 864,1536 x 864
S019,19,Vrouwelijk,Rechts,1,17,left,no,150,leftarrow,283,true,focus,yes,384132,Chrome,112.0,Windows,10,undefined,undefined,1536 x 864,1536 x 864
S019,19,Vrouwelijk,Rechts,1,18,right,no,150,rightarrow,248,true,focus,yes,385164,Chrome,112.0,Windows,10,undefined,undefined,1536 x 864,1536 x 864
S019,19,Vrouwelijk,Rechts,1,19,right,yes,150,undefined,null,true,focus,yes,387184,Chrome,112.0,Windows,10,undefined,undefined,1536 x 864,1536 x 864
S019,19,Vrouwelijk,Rechts,1,20,right,no,200,rightarrow,289,true,focus,yes,388255,Chrome,112.0,Windows,10,undefined,undefined,1536 x 864,1536 x 864
S019,19,Vrouwelijk,Rechts,1,21,left,no,200,leftarrow,366,true,focus,yes,389399,Chrome,112.0,Windows,10,undefined,undefined,1536 x 864,1536 x 864
S019,19,Vrouwelijk,Rechts,1,22,left,no,200,leftarrow,455,true,focus,yes,390638,Chrome,112.0,Windows,10,undefined,undefined,1536 x 864,1536 x 864
S019,19,Vrouwelijk,Rechts,1,23,left,yes,200,undefined,null,true,focus,yes,392679,Chrome,112.0,Windows,10,undefined,undefined,1536 x 864,1536 x 864
S019,19,Vrouwelijk,Rechts,1,24,right,no,250,rightarrow,453,true,focus,yes,393902,Chrome,112.0,Windows,10,undefined,undefined,1536 x 864,1536 x 864
S019,19,Vrouwelijk,Rechts,1,25,left,no,250,leftarrow,467,true,focus,yes,395150,Chrome,112.0,Windows,10,undefined,undefined,1536 x 864,1536 x 864
S019,19,Vrouwelijk,Rechts,1,26,left,no,250,leftarrow,449,true,focus,yes,396381,Chrome,112.0,Windows,10,undefined,undefined,1536 x 864,1536 x 864
S019,19,Vrouwelijk,Rechts,1,27,right,yes,250,rightarrow,434,false,focus,yes,397584,Chrome,112.0,Windows,10,undefined,undefined,1536 x 864,1536 x 864
S019,19,Vrouwelijk,Rechts,1,28,right,no,200,rightarrow,424,true,focus,yes,398789,Chrome,112.0,Windows,10,undefined,undefined,1536 x 864,1536 x 864
S019,19,Vrouwelijk,Rechts,1,29,left,no,200,leftarrow,446,true,focus,yes,399996,Chrome,112.0,Windows,10,undefined,undefined,1536 x 864,1536 x 864
S019,19,Vrouwelijk,Rechts,1,30,right,no,200,rightarrow,311,true,focus,yes,401076,Chrome,112.0,Windows,10,undefined,undefined,1536 x 864,1536 x 864
S019,19,Vrouwelijk,Rechts,1,31,left,yes,200,leftarrow,338,false,focus,yes,402185,Chrome,112.0,Windows,10,undefined,undefined,1536 x 864,1536 x 864
S019,19,Vrouwelijk,Rechts,1,32,right,no,150,rightarrow,438,true,focus,yes,403404,Chrome,112.0,Windows,10,undefined,undefined,1536 x 864,1536 x 864
S019,19,Vrouwelijk,Rechts,1,33,right,no,150,rightarrow,354,true,focus,yes,404518,Chrome,112.0,Windows,10,undefined,undefined,1536 x 864,1536 x 864
S019,19,Vrouwelijk,Rechts,1,34,left,no,150,leftarrow,351,true,focus,yes,405649,Chrome,112.0,Windows,10,undefined,undefined,1536 x 864,1536 x 864
S019,19,Vrouwelijk,Rechts,1,35,left,no,150,leftarrow,455,true,focus,yes,406870,Chrome,112.0,Windows,10,undefined,undefined,1536 x 864,1536 x 864
S019,19,Vrouwelijk,Rechts,1,36,right,no,150,rightarrow,356,true,focus,yes,408004,Chrome,112.0,Windows,10,undefined,undefined,1536 x 864,1536 x 864
S019,19,Vrouwelijk,Rechts,1,37,right,no,150,leftarrow,370,false,focus,yes,409136,Chrome,112.0,Windows,10,undefined,undefined,1536 x 864,1536 x 864
S019,19,Vrouwelijk,Rechts,1,38,right,yes,150,undefined,null,true,focus,yes,411167,Chrome,112.0,Windows,10,undefined,undefined,1536 x 864,1536 x 864
S019,19,Vrouwelijk,Rechts,1,39,left,no,200,leftarrow,373,true,focus,yes,412321,Chrome,112.0,Windows,10,undefined,undefined,1536 x 864,1536 x 864
S019,19,Vrouwelijk,Rechts,1,40,left,yes,200,undefined,null,true,focus,yes,414352,Chrome,112.0,Windows,10,undefined,undefined,1536 x 864,1536 x 864
S019,19,Vrouwelijk,Rechts,1,41,left,yes,250,leftarrow,353,false,focus,yes,415485,Chrome,112.0,Windows,10,undefined,undefined,1536 x 864,1536 x 864
S019,19,Vrouwelijk,Rechts,1,42,left,no,200,leftarrow,503,true,focus,yes,416753,Chrome,112.0,Windows,10,undefined,undefined,1536 x 864,1536 x 864
S019,19,Vrouwelijk,Rechts,1,43,right,yes,200,rightarrow,389,false,focus,yes,417920,Chrome,112.0,Windows,10,undefined,undefined,1536 x 864,1536 x 864
S019,19,Vrouwelijk,Rechts,1,44,left,no,150,leftarrow,473,true,focus,yes,419156,Chrome,112.0,Windows,10,undefined,undefined,1536 x 864,1536 x 864
S019,19,Vrouwelijk,Rechts,1,45,right,no,150,rightarrow,300,true,focus,yes,420231,Chrome,112.0,Windows,10,undefined,undefined,1536 x 864,1536 x 864
S019,19,Vrouwelijk,Rechts,1,46,left,no,150,leftarrow,349,true,focus,yes,421347,Chrome,112.0,Windows,10,undefined,undefined,1536 x 864,1536 x 864
S019,19,Vrouwelijk,Rechts,1,47,right,no,150,rightarrow,290,true,focus,yes,422411,Chrome,112.0,Windows,10,undefined,undefined,1536 x 864,1536 x 864
S019,19,Vrouwelijk,Rechts,1,48,right,no,150,rightarrow,427,true,focus,yes,423607,Chrome,112.0,Windows,10,undefined,undefined,1536 x 864,1536 x 864
S019,19,Vrouwelijk,Rechts,1,49,right,yes,150,rightarrow,275,false,focus,yes,424656,Chrome,112.0,Windows,10,undefined,undefined,1536 x 864,1536 x 864
S019,19,Vrouwelijk,Rechts,1,50,right,no,100,rightarrow,525,true,focus,yes,425955,Chrome,112.0,Windows,10,undefined,undefined,1536 x 864,1536 x 864
S019,19,Vrouwelijk,Rechts,1,51,right,no,100,rightarrow,281,true,focus,yes,427011,Chrome,112.0,Windows,10,undefined,undefined,1536 x 864,1536 x 864
S019,19,Vrouwelijk,Rechts,1,52,right,no,100,rightarrow,238,true,focus,yes,428018,Chrome,112.0,Windows,10,undefined,undefined,1536 x 864,1536 x 864
S019,19,Vrouwelijk,Rechts,1,53,left,no,100,leftarrow,394,true,focus,yes,429191,Chrome,112.0,Windows,10,undefined,undefined,1536 x 864,1536 x 864
S019,19,Vrouwelijk,Rechts,1,54,left,yes,100,undefined,null,true,focus,yes,431228,Chrome,112.0,Windows,10,undefined,undefined,1536 x 864,1536 x 864
S019,19,Vrouwelijk,Rechts,1,55,left,no,150,leftarrow,392,true,focus,yes,432390,Chrome,112.0,Windows,10,undefined,undefined,1536 x 864,1536 x 864
S019,19,Vrouwelijk,Rechts,1,56,left,no,150,leftarrow,410,true,focus,yes,433573,Chrome,112.0,Windows,10,undefined,undefined,1536 x 864,1536 x 864
S019,19,Vrouwelijk,Rechts,1,57,right,no,150,rightarrow,480,true,focus,yes,434826,Chrome,112.0,Windows,10,undefined,undefined,1536 x 864,1536 x 864
S019,19,Vrouwelijk,Rechts,1,58,left,no,150,leftarrow,408,true,focus,yes,436004,Chrome,112.0,Windows,10,undefined,undefined,1536 x 864,1536 x 864
S019,19,Vrouwelijk,Rechts,1,59,left,yes,150,undefined,null,true,focus,yes,438041,Chrome,112.0,Windows,10,undefined,undefined,1536 x 864,1536 x 864
S019,19,Vrouwelijk,Rechts,1,60,left,no,200,leftarrow,473,true,focus,yes,439287,Chrome,112.0,Windows,10,undefined,undefined,1536 x 864,1536 x 864
S019,19,Vrouwelijk,Rechts,1,61,right,no,200,rightarrow,354,true,focus,yes,440417,Chrome,112.0,Windows,10,undefined,undefined,1536 x 864,1536 x 864
S019,19,Vrouwelijk,Rechts,1,62,right,no,200,rightarrow,429,true,focus,yes,441614,Chrome,112.0,Windows,10,undefined,undefined,1536 x 864,1536 x 864
S019,19,Vrouwelijk,Rechts,1,63,right,yes,200,rightarrow,400,false,focus,yes,442796,Chrome,112.0,Windows,10,undefined,undefined,1536 x 864,1536 x 864
S019,19,Vrouwelijk,Rechts,1,64,left,no,150,leftarrow,329,true,focus,yes,443909,Chrome,112.0,Windows,10,undefined,undefined,1536 x 864,1536 x 864
S019,19,Vrouwelijk,Rechts,1,65,right,no,150,rightarrow,378,true,focus,yes,445057,Chrome,112.0,Windows,10,undefined,undefined,1536 x 864,1536 x 864
S019,19,Vrouwelijk,Rechts,1,66,left,yes,150,leftarrow,283,false,focus,yes,446113,Chrome,112.0,Windows,10,undefined,undefined,1536 x 864,1536 x 864
S019,19,Vrouwelijk,Rechts,1,67,left,no,100,leftarrow,477,true,focus,yes,447357,Chrome,112.0,Windows,10,undefined,undefined,1536 x 864,1536 x 864
S019,19,Vrouwelijk,Rechts,1,68,right,yes,100,undefined,null,true,focus,yes,449381,Chrome,112.0,Windows,10,undefined,undefined,1536 x 864,1536 x 864
S019,19,Vrouwelijk,Rechts,1,69,left,no,150,leftarrow,492,true,focus,yes,450654,Chrome,112.0,Windows,10,undefined,undefined,1536 x 864,1536 x 864
S019,19,Vrouwelijk,Rechts,1,70,right,no,150,rightarrow,389,true,focus,yes,451820,Chrome,112.0,Windows,10,undefined,undefined,1536 x 864,1536 x 864
S019,19,Vrouwelijk,Rechts,1,71,right,no,150,rightarrow,402,true,focus,yes,452997,Chrome,112.0,Windows,10,undefined,undefined,1536 x 864,1536 x 864
S019,19,Vrouwelijk,Rechts,1,72,left,no,150,leftarrow,354,true,focus,yes,454133,Chrome,112.0,Windows,10,undefined,undefined,1536 x 864,1536 x 864
S019,19,Vrouwelijk,Rechts,1,73,left,no,150,leftarrow,327,true,focus,yes,455239,Chrome,112.0,Windows,10,undefined,undefined,1536 x 864,1536 x 864
S019,19,Vrouwelijk,Rechts,1,74,right,yes,150,rightarrow,293,false,focus,yes,456305,Chrome,112.0,Windows,10,undefined,undefined,1536 x 864,1536 x 864
S019,19,Vrouwelijk,Rechts,1,75,right,no,100,rightarrow,366,true,focus,yes,457445,Chrome,112.0,Windows,10,undefined,undefined,1536 x 864,1536 x 864
S019,19,Vrouwelijk,Rechts,1,76,left,no,100,leftarrow,305,true,focus,yes,458533,Chrome,112.0,Windows,10,undefined,undefined,1536 x 864,1536 x 864
S019,19,Vrouwelijk,Rechts,1,77,right,no,100,rightarrow,396,true,focus,yes,459708,Chrome,112.0,Windows,10,undefined,undefined,1536 x 864,1536 x 864
S019,19,Vrouwelijk,Rechts,1,78,left,no,100,leftarrow,299,true,focus,yes,460777,Chrome,112.0,Windows,10,undefined,undefined,1536 x 864,1536 x 864
S019,19,Vrouwelijk,Rechts,1,79,right,no,100,rightarrow,265,true,focus,yes,461811,Chrome,112.0,Windows,10,undefined,undefined,1536 x 864,1536 x 864
S019,19,Vrouwelijk,Rechts,1,80,left,yes,100,undefined,null,true,focus,yes,463839,Chrome,112.0,Windows,10,undefined,undefined,1536 x 864,1536 x 864
S019,19,Vrouwelijk,Rechts,1,81,right,no,150,rightarrow,381,true,focus,yes,464988,Chrome,112.0,Windows,10,undefined,undefined,1536 x 864,1536 x 864
S019,19,Vrouwelijk,Rechts,1,82,right,yes,150,undefined,null,true,focus,yes,467023,Chrome,112.0,Windows,10,undefined,undefined,1536 x 864,1536 x 864
S019,19,Vrouwelijk,Rechts,1,83,left,no,200,leftarrow,373,true,focus,yes,468167,Chrome,112.0,Windows,10,undefined,undefined,1536 x 864,1536 x 864
S019,19,Vrouwelijk,Rechts,1,84,left,no,200,leftarrow,464,true,focus,yes,469394,Chrome,112.0,Windows,10,undefined,undefined,1536 x 864,1536 x 864
S019,19,Vrouwelijk,Rechts,1,85,left,no,200,leftarrow,420,true,focus,yes,470573,Chrome,112.0,Windows,10,undefined,undefined,1536 x 864,1536 x 864
S019,19,Vrouwelijk,Rechts,1,86,right,no,200,rightarrow,413,true,focus,yes,471747,Chrome,112.0,Windows,10,undefined,undefined,1536 x 864,1536 x 864
S019,19,Vrouwelijk,Rechts,1,87,left,yes,200,undefined,null,true,focus,yes,473791,Chrome,112.0,Windows,10,undefined,undefined,1536 x 864,1536 x 864
S019,19,Vrouwelijk,Rechts,1,88,right,no,250,rightarrow,363,true,focus,yes,474925,Chrome,112.0,Windows,10,undefined,undefined,1536 x 864,1536 x 864
S019,19,Vrouwelijk,Rechts,1,89,left,yes,250,leftarrow,404,false,focus,yes,476097,Chrome,112.0,Windows,10,undefined,undefined,1536 x 864,1536 x 864
S019,19,Vrouwelijk,Rechts,1,90,right,no,200,rightarrow,310,true,focus,yes,477187,Chrome,112.0,Windows,10,undefined,undefined,1536 x 864,1536 x 864
S019,19,Vrouwelijk,Rechts,1,91,right,no,200,rightarrow,433,true,focus,yes,478399,Chrome,112.0,Windows,10,undefined,undefined,1536 x 864,1536 x 864
S019,19,Vrouwelijk,Rechts,1,92,left,no,200,leftarrow,456,true,focus,yes,479633,Chrome,112.0,Windows,10,undefined,undefined,1536 x 864,1536 x 864
S019,19,Vrouwelijk,Rechts,1,93,right,no,200,rightarrow,308,true,focus,yes,480718,Chrome,112.0,Windows,10,undefined,undefined,1536 x 864,1536 x 864
S019,19,Vrouwelijk,Rechts,1,94,left,no,200,leftarrow,259,true,focus,yes,481752,Chrome,112.0,Windows,10,undefined,undefined,1536 x 864,1536 x 864
S019,19,Vrouwelijk,Rechts,1,95,left,no,200,rightarrow,391,false,focus,yes,482919,Chrome,112.0,Windows,10,undefined,undefined,1536 x 864,1536 x 864
S019,19,Vrouwelijk,Rechts,1,96,right,yes,200,undefined,null,true,focus,yes,484949,Chrome,112.0,Windows,10,undefined,undefined,1536 x 864,1536 x 864
S019,19,Vrouwelijk,Rechts,1,97,left,no,250,leftarrow,377,true,focus,yes,486104,Chrome,112.0,Windows,10,undefined,undefined,1536 x 864,1536 x 864
S019,19,Vrouwelijk,Rechts,1,98,right,no,250,rightarrow,369,true,focus,yes,487247,Chrome,112.0,Windows,10,undefined,undefined,1536 x 864,1536 x 864
S019,19,Vrouwelijk,Rechts,1,99,right,no,250,rightarrow,376,true,focus,yes,488403,Chrome,112.0,Windows,10,undefined,undefined,1536 x 864,1536 x 864
S019,19,Vrouwelijk,Rechts,1,100,left,no,250,leftarrow,375,true,focus,yes,489551,Chrome,112.0,Windows,10,undefined,undefined,1536 x 864,1536 x 864
S019,19,Vrouwelijk,Rechts,1,101,right,no,250,rightarrow,388,true,focus,yes,490714,Chrome,112.0,Windows,10,undefined,undefined,1536 x 864,1536 x 864
S019,19,Vrouwelijk,Rechts,1,102,right,yes,250,rightarrow,345,false,focus,yes,491839,Chrome,112.0,Windows,10,undefined,undefined,1536 x 864,1536 x 864
S019,19,Vrouwelijk,Rechts,1,103,left,yes,200,leftarrow,361,false,focus,yes,492971,Chrome,112.0,Windows,10,undefined,undefined,1536 x 864,1536 x 864
S019,19,Vrouwelijk,Rechts,1,104,left,no,150,leftarrow,459,true,focus,yes,494203,Chrome,112.0,Windows,10,undefined,undefined,1536 x 864,1536 x 864
S019,19,Vrouwelijk,Rechts,1,105,left,no,150,leftarrow,378,true,focus,yes,495354,Chrome,112.0,Windows,10,undefined,undefined,1536 x 864,1536 x 864
S019,19,Vrouwelijk,Rechts,1,106,left,yes,150,undefined,null,true,focus,yes,497379,Chrome,112.0,Windows,10,undefined,undefined,1536 x 864,1536 x 864
S019,19,Vrouwelijk,Rechts,1,107,left,no,200,leftarrow,339,true,focus,yes,498499,Chrome,112.0,Windows,10,undefined,undefined,1536 x 864,1536 x 864
S019,19,Vrouwelijk,Rechts,1,108,right,no,200,rightarrow,557,true,focus,yes,499833,Chrome,112.0,Windows,10,undefined,undefined,1536 x 864,1536 x 864
S019,19,Vrouwelijk,Rechts,1,109,right,no,200,rightarrow,436,true,focus,yes,501045,Chrome,112.0,Windows,10,undefined,undefined,1536 x 864,1536 x 864
S019,19,Vrouwelijk,Rechts,1,110,right,no,200,rightarrow,340,true,focus,yes,502165,Chrome,112.0,Windows,10,undefined,undefined,1536 x 864,1536 x 864
S019,19,Vrouwelijk,Rechts,1,111,right,yes,200,rightarrow,325,false,focus,yes,503267,Chrome,112.0,Windows,10,undefined,undefined,1536 x 864,1536 x 864
S019,19,Vrouwelijk,Rechts,1,112,left,no,150,leftarrow,315,true,focus,yes,504348,Chrome,112.0,Windows,10,undefined,undefined,1536 x 864,1536 x 864
S019,19,Vrouwelijk,Rechts,1,113,left,no,150,leftarrow,434,true,focus,yes,505560,Chrome,112.0,Windows,10,undefined,undefined,1536 x 864,1536 x 864
S019,19,Vrouwelijk,Rechts,1,114,right,no,150,rightarrow,450,true,focus,yes,506782,Chrome,112.0,Windows,10,undefined,undefined,1536 x 864,1536 x 864
S019,19,Vrouwelijk,Rechts,1,115,left,no,150,leftarrow,466,true,focus,yes,508024,Chrome,112.0,Windows,10,undefined,undefined,1536 x 864,1536 x 864
S019,19,Vrouwelijk,Rechts,1,116,left,no,150,leftarrow,499,true,focus,yes,509291,Chrome,112.0,Windows,10,undefined,undefined,1536 x 864,1536 x 864
S019,19,Vrouwelijk,Rechts,1,117,right,no,150,rightarrow,480,true,focus,yes,510555,Chrome,112.0,Windows,10,undefined,undefined,1536 x 864,1536 x 864
S019,19,Vrouwelijk,Rechts,1,118,right,yes,150,undefined,null,true,focus,yes,512576,Chrome,112.0,Windows,10,undefined,undefined,1536 x 864,1536 x 864
S019,19,Vrouwelijk,Rechts,1,119,right,no,200,rightarrow,358,true,focus,yes,513716,Chrome,112.0,Windows,10,undefined,undefined,1536 x 864,1536 x 864
S019,19,Vrouwelijk,Rechts,1,120,left,yes,200,undefined,null,true,focus,yes,515756,Chrome,112.0,Windows,10,undefined,undefined,1536 x 864,1536 x 864
S019,19,Vrouwelijk,Rechts,1,121,left,no,250,leftarrow,422,true,focus,yes,516947,Chrome,112.0,Windows,10,undefined,undefined,1536 x 864,1536 x 864
S019,19,Vrouwelijk,Rechts,1,122,left,no,250,leftarrow,400,true,focus,yes,518110,Chrome,112.0,Windows,10,undefined,undefined,1536 x 864,1536 x 864
S019,19,Vrouwelijk,Rechts,1,123,left,no,250,leftarrow,388,true,focus,yes,519279,Chrome,112.0,Windows,10,undefined,undefined,1536 x 864,1536 x 864
S019,19,Vrouwelijk,Rechts,1,124,left,yes,250,leftarrow,393,false,focus,yes,520450,Chrome,112.0,Windows,10,undefined,undefined,1536 x 864,1536 x 864
S019,19,Vrouwelijk,Rechts,1,125,right,yes,200,rightarrow,398,false,focus,yes,521622,Chrome,112.0,Windows,10,undefined,undefined,1536 x 864,1536 x 864
S019,19,Vrouwelijk,Rechts,1,126,right,no,150,rightarrow,445,true,focus,yes,522836,Chrome,112.0,Windows,10,undefined,undefined,1536 x 864,1536 x 864
S019,19,Vrouwelijk,Rechts,1,127,right,no,150,rightarrow,342,true,focus,yes,523951,Chrome,112.0,Windows,10,undefined,undefined,1536 x 864,1536 x 864
S019,19,Vrouwelijk,Rechts,1,128,right,no,150,rightarrow,284,true,focus,yes,525009,Chrome,112.0,Windows,10,undefined,undefined,1536 x 864,1536 x 864
S019,19,Vrouwelijk,Rechts,2,1,left,yes,150,undefined,null,true,focus,yes,546255,Chrome,112.0,Windows,10,undefined,undefined,1536 x 864,1536 x 864
S019,19,Vrouwelijk,Rechts,2,2,left,no,200,leftarrow,389,true,focus,yes,547428,Chrome,112.0,Windows,10,undefined,undefined,1536 x 864,1536 x 864
S019,19,Vrouwelijk,Rechts,2,3,right,yes,200,undefined,null,true,focus,yes,549469,Chrome,112.0,Windows,10,undefined,undefined,1536 x 864,1536 x 864
S019,19,Vrouwelijk,Rechts,2,4,left,no,250,leftarrow,456,true,focus,yes,550695,Chrome,112.0,Windows,10,undefined,undefined,1536 x 864,1536 x 864
S019,19,Vrouwelijk,Rechts,2,5,right,no,250,rightarrow,457,true,focus,yes,551919,Chrome,112.0,Windows,10,undefined,undefined,1536 x 864,1536 x 864
S019,19,Vrouwelijk,Rechts,2,6,right,no,250,rightarrow,332,true,focus,yes,553021,Chrome,112.0,Windows,10,undefined,undefined,1536 x 864,1536 x 864
S019,19,Vrouwelijk,Rechts,2,7,left,no,250,leftarrow,470,true,focus,yes,554277,Chrome,112.0,Windows,10,undefined,undefined,1536 x 864,1536 x 864
S019,19,Vrouwelijk,Rechts,2,8,right,no,250,rightarrow,355,true,focus,yes,555410,Chrome,112.0,Windows,10,undefined,undefined,1536 x 864,1536 x 864
S019,19,Vrouwelijk,Rechts,2,9,right,no,250,rightarrow,387,true,focus,yes,556576,Chrome,112.0,Windows,10,undefined,undefined,1536 x 864,1536 x 864
S019,19,Vrouwelijk,Rechts,2,10,left,no,250,leftarrow,383,true,focus,yes,557738,Chrome,112.0,Windows,10,undefined,undefined,1536 x 864,1536 x 864
S019,19,Vrouwelijk,Rechts,2,11,left,no,250,leftarrow,418,true,focus,yes,558940,Chrome,112.0,Windows,10,undefined,undefined,1536 x 864,1536 x 864
S019,19,Vrouwelijk,Rechts,2,12,right,no,250,rightarrow,395,true,focus,yes,560117,Chrome,112.0,Windows,10,undefined,undefined,1536 x 864,1536 x 864
S019,19,Vrouwelijk,Rechts,2,13,right,no,250,rightarrow,358,true,focus,yes,561246,Chrome,112.0,Windows,10,undefined,undefined,1536 x 864,1536 x 864
S019,19,Vrouwelijk,Rechts,2,14,left,no,250,leftarrow,376,true,focus,yes,562398,Chrome,112.0,Windows,10,undefined,undefined,1536 x 864,1536 x 864
S019,19,Vrouwelijk,Rechts,2,15,left,yes,250,leftarrow,379,false,focus,yes,563551,Chrome,112.0,Windows,10,undefined,undefined,1536 x 864,1536 x 864
S019,19,Vrouwelijk,Rechts,2,16,right,yes,200,rightarrow,324,false,focus,yes,564646,Chrome,112.0,Windows,10,undefined,undefined,1536 x 864,1536 x 864
S019,19,Vrouwelijk,Rechts,2,17,left,no,150,leftarrow,491,true,focus,yes,565912,Chrome,112.0,Windows,10,undefined,undefined,1536 x 864,1536 x 864
S019,19,Vrouwelijk,Rechts,2,18,left,no,150,leftarrow,394,true,focus,yes,567067,Chrome,112.0,Windows,10,undefined,undefined,1536 x 864,1536 x 864
S019,19,Vrouwelijk,Rechts,2,19,right,no,150,rightarrow,350,true,focus,yes,568188,Chrome,112.0,Windows,10,undefined,undefined,1536 x 864,1536 x 864
S019,19,Vrouwelijk,Rechts,2,20,left,no,150,leftarrow,406,true,focus,yes,569363,Chrome,112.0,Windows,10,undefined,undefined,1536 x 864,1536 x 864
S019,19,Vrouwelijk,Rechts,2,21,right,no,150,rightarrow,384,true,focus,yes,570522,Chrome,112.0,Windows,10,undefined,undefined,1536 x 864,1536 x 864
S019,19,Vrouwelijk,Rechts,2,22,right,no,150,rightarrow,484,true,focus,yes,571788,Chrome,112.0,Windows,10,undefined,undefined,1536 x 864,1536 x 864
S019,19,Vrouwelijk,Rechts,2,23,left,yes,150,undefined,null,true,focus,yes,573831,Chrome,112.0,Windows,10,undefined,undefined,1536 x 864,1536 x 864
S019,19,Vrouwelijk,Rechts,2,24,right,yes,200,undefined,null,true,focus,yes,575859,Chrome,112.0,Windows,10,undefined,undefined,1536 x 864,1536 x 864
S019,19,Vrouwelijk,Rechts,2,25,left,yes,250,undefined,null,true,focus,yes,577881,Chrome,112.0,Windows,10,undefined,undefined,1536 x 864,1536 x 864
S019,19,Vrouwelijk,Rechts,2,26,right,no,300,rightarrow,510,true,focus,yes,579165,Chrome,112.0,Windows,10,undefined,undefined,1536 x 864,1536 x 864
S019,19,Vrouwelijk,Rechts,2,27,left,no,300,leftarrow,304,true,focus,yes,580241,Chrome,112.0,Windows,10,undefined,undefined,1536 x 864,1536 x 864
S019,19,Vrouwelijk,Rechts,2,28,right,yes,300,rightarrow,427,false,focus,yes,581448,Chrome,112.0,Windows,10,undefined,undefined,1536 x 864,1536 x 864
S019,19,Vrouwelijk,Rechts,2,29,left,no,250,leftarrow,358,true,focus,yes,582579,Chrome,112.0,Windows,10,undefined,undefined,1536 x 864,1536 x 864
S019,19,Vrouwelijk,Rechts,2,30,right,no,250,rightarrow,364,true,focus,yes,583718,Chrome,112.0,Windows,10,undefined,undefined,1536 x 864,1536 x 864
S019,19,Vrouwelijk,Rechts,2,31,left,no,250,leftarrow,341,true,focus,yes,584828,Chrome,112.0,Windows,10,undefined,undefined,1536 x 864,1536 x 864
S019,19,Vrouwelijk,Rechts,2,32,right,no,250,rightarrow,355,true,focus,yes,585959,Chrome,112.0,Windows,10,undefined,undefined,1536 x 864,1536 x 864
S019,19,Vrouwelijk,Rechts,2,33,left,no,250,leftarrow,614,true,focus,yes,587337,Chrome,112.0,Windows,10,undefined,undefined,1536 x 864,1536 x 864
S019,19,Vrouwelijk,Rechts,2,34,left,yes,250,leftarrow,483,false,focus,yes,588603,Chrome,112.0,Windows,10,undefined,undefined,1536 x 864,1536 x 864
S019,19,Vrouwelijk,Rechts,2,35,right,yes,200,undefined,null,true,focus,yes,590651,Chrome,112.0,Windows,10,undefined,undefined,1536 x 864,1536 x 864
S019,19,Vrouwelijk,Rechts,2,36,right,no,250,rightarrow,496,true,focus,yes,591916,Chrome,112.0,Windows,10,undefined,undefined,1536 x 864,1536 x 864
S019,19,Vrouwelijk,Rechts,2,37,right,no,250,rightarrow,406,true,focus,yes,593093,Chrome,112.0,Windows,10,undefined,undefined,1536 x 864,1536 x 864
S019,19,Vrouwelijk,Rechts,2,38,left,no,250,leftarrow,500,true,focus,yes,594370,Chrome,112.0,Windows,10,undefined,undefined,1536 x 864,1536 x 864
S019,19,Vrouwelijk,Rechts,2,39,right,no,250,rightarrow,450,true,focus,yes,595602,Chrome,112.0,Windows,10,undefined,undefined,1536 x 864,1536 x 864
S019,19,Vrouwelijk,Rechts,2,40,left,no,250,leftarrow,295,true,focus,yes,596681,Chrome,112.0,Windows,10,undefined,undefined,1536 x 864,1536 x 864
S019,19,Vrouwelijk,Rechts,2,41,left,yes,250,rightarrow,264,false,focus,yes,597716,Chrome,112.0,Windows,10,undefined,undefined,1536 x 864,1536 x 864
S019,19,Vrouwelijk,Rechts,2,42,left,no,200,leftarrow,741,true,focus,yes,599226,Chrome,112.0,Windows,10,undefined,undefined,1536 x 864,1536 x 864
S019,19,Vrouwelijk,Rechts,2,43,left,no,200,leftarrow,365,true,focus,yes,600366,Chrome,112.0,Windows,10,undefined,undefined,1536 x 864,1536 x 864
S019,19,Vrouwelijk,Rechts,2,44,left,no,200,leftarrow,300,true,focus,yes,601436,Chrome,112.0,Windows,10,undefined,undefined,1536 x 864,1536 x 864
S019,19,Vrouwelijk,Rechts,2,45,right,no,200,rightarrow,370,true,focus,yes,602590,Chrome,112.0,Windows,10,undefined,undefined,1536 x 864,1536 x 864
S019,19,Vrouwelijk,Rechts,2,46,right,no,200,rightarrow,351,true,focus,yes,603719,Chrome,112.0,Windows,10,undefined,undefined,1536 x 864,1536 x 864
S019,19,Vrouwelijk,Rechts,2,47,right,yes,200,rightarrow,335,false,focus,yes,604837,Chrome,112.0,Windows,10,undefined,undefined,1536 x 864,1536 x 864
S019,19,Vrouwelijk,Rechts,2,48,right,no,150,rightarrow,355,true,focus,yes,605973,Chrome,112.0,Windows,10,undefined,undefined,1536 x 864,1536 x 864
S019,19,Vrouwelijk,Rechts,2,49,left,yes,150,undefined,null,true,focus,yes,608014,Chrome,112.0,Windows,10,undefined,undefined,1536 x 864,1536 x 864
S019,19,Vrouwelijk,Rechts,2,50,right,yes,200,rightarrow,405,false,focus,yes,609190,Chrome,112.0,Windows,10,undefined,undefined,1536 x 864,1536 x 864
S019,19,Vrouwelijk,Rechts,2,51,left,no,150,leftarrow,484,true,focus,yes,610435,Chrome,112.0,Windows,10,undefined,undefined,1536 x 864,1536 x 864
S019,19,Vrouwelijk,Rechts,2,52,left,no,150,leftarrow,481,true,focus,yes,611699,Chrome,112.0,Windows,10,undefined,undefined,1536 x 864,1536 x 864
S019,19,Vrouwelijk,Rechts,2,53,left,no,150,leftarrow,330,true,focus,yes,612797,Chrome,112.0,Windows,10,undefined,undefined,1536 x 864,1536 x 864
S019,19,Vrouwelijk,Rechts,2,54,right,no,150,rightarrow,497,true,focus,yes,614064,Chrome,112.0,Windows,10,undefined,undefined,1536 x 864,1536 x 864
S019,19,Vrouwelijk,Rechts,2,55,right,no,150,rightarrow,494,true,focus,yes,615329,Chrome,112.0,Windows,10,undefined,undefined,1536 x 864,1536 x 864
S019,19,Vrouwelijk,Rechts,2,56,right,no,150,rightarrow,327,true,focus,yes,616428,Chrome,112.0,Windows,10,undefined,undefined,1536 x 864,1536 x 864
S019,19,Vrouwelijk,Rechts,2,57,left,no,150,leftarrow,440,true,focus,yes,617640,Chrome,112.0,Windows,10,undefined,undefined,1536 x 864,1536 x 864
S019,19,Vrouwelijk,Rechts,2,58,left,yes,150,undefined,null,true,focus,yes,619679,Chrome,112.0,Windows,10,undefined,undefined,1536 x 864,1536 x 864
S019,19,Vrouwelijk,Rechts,2,59,left,no,200,leftarrow,315,true,focus,yes,620765,Chrome,112.0,Windows,10,undefined,undefined,1536 x 864,1536 x 864
S019,19,Vrouwelijk,Rechts,2,60,right,no,200,rightarrow,344,true,focus,yes,621878,Chrome,112.0,Windows,10,undefined,undefined,1536 x 864,1536 x 864
S019,19,Vrouwelijk,Rechts,2,61,left,no,200,leftarrow,359,true,focus,yes,623009,Chrome,112.0,Windows,10,undefined,undefined,1536 x 864,1536 x 864
S019,19,Vrouwelijk,Rechts,2,62,right,no,200,rightarrow,401,true,focus,yes,624185,Chrome,112.0,Windows,10,undefined,undefined,1536 x 864,1536 x 864
S019,19,Vrouwelijk,Rechts,2,63,right,yes,200,undefined,null,true,focus,yes,626230,Chrome,112.0,Windows,10,undefined,undefined,1536 x 864,1536 x 864
S019,19,Vrouwelijk,Rechts,2,64,right,no,250,rightarrow,347,true,focus,yes,627349,Chrome,112.0,Windows,10,undefined,undefined,1536 x 864,1536 x 864
S019,19,Vrouwelijk,Rechts,2,65,left,no,250,leftarrow,465,true,focus,yes,628584,Chrome,112.0,Windows,10,undefined,undefined,1536 x 864,1536 x 864
S019,19,Vrouwelijk,Rechts,2,66,right,no,250,rightarrow,395,true,focus,yes,629752,Chrome,112.0,Windows,10,undefined,undefined,1536 x 864,1536 x 864
S019,19,Vrouwelijk,Rechts,2,67,right,yes,250,rightarrow,384,false,focus,yes,630917,Chrome,112.0,Windows,10,undefined,undefined,1536 x 864,1536 x 864
S019,19,Vrouwelijk,Rechts,2,68,left,no,200,leftarrow,424,true,focus,yes,632113,Chrome,112.0,Windows,10,undefined,undefined,1536 x 864,1536 x 864
S019,19,Vrouwelijk,Rechts,2,69,right,no,200,rightarrow,316,true,focus,yes,633199,Chrome,112.0,Windows,10,undefined,undefined,1536 x 864,1536 x 864
S019,19,Vrouwelijk,Rechts,2,70,left,yes,200,undefined,null,true,focus,yes,635247,Chrome,112.0,Windows,10,undefined,undefined,1536 x 864,1536 x 864
S019,19,Vrouwelijk,Rechts,2,71,right,no,250,rightarrow,357,true,focus,yes,636373,Chrome,112.0,Windows,10,undefined,undefined,1536 x 864,1536 x 864
S019,19,Vrouwelijk,Rechts,2,72,left,no,250,leftarrow,415,true,focus,yes,637564,Chrome,112.0,Windows,10,undefined,undefined,1536 x 864,1536 x 864
S019,19,Vrouwelijk,Rechts,2,73,right,no,250,rightarrow,368,true,focus,yes,638701,Chrome,112.0,Windows,10,undefined,undefined,1536 x 864,1536 x 864
S019,19,Vrouwelijk,Rechts,2,74,left,yes,250,leftarrow,449,false,focus,yes,639932,Chrome,112.0,Windows,10,undefined,undefined,1536 x 864,1536 x 864
S019,19,Vrouwelijk,Rechts,2,75,right,yes,200,undefined,null,true,focus,yes,641970,Chrome,112.0,Windows,10,undefined,undefined,1536 x 864,1536 x 864
S019,19,Vrouwelijk,Rechts,2,76,left,no,250,leftarrow,486,true,focus,yes,643235,Chrome,112.0,Windows,10,undefined,undefined,1536 x 864,1536 x 864
S019,19,Vrouwelijk,Rechts,2,77,right,no,250,rightarrow,467,true,focus,yes,644483,Chrome,112.0,Windows,10,undefined,undefined,1536 x 864,1536 x 864
S019,19,Vrouwelijk,Rechts,2,78,left,no,250,leftarrow,470,true,focus,yes,645735,Chrome,112.0,Windows,10,undefined,undefined,1536 x 864,1536 x 864
S019,19,Vrouwelijk,Rechts,2,79,right,no,250,rightarrow,398,true,focus,yes,646913,Chrome,112.0,Windows,10,undefined,undefined,1536 x 864,1536 x 864
S019,19,Vrouwelijk,Rechts,2,80,left,no,250,leftarrow,562,true,focus,yes,648244,Chrome,112.0,Windows,10,undefined,undefined,1536 x 864,1536 x 864
S019,19,Vrouwelijk,Rechts,2,81,right,no,250,rightarrow,488,true,focus,yes,649503,Chrome,112.0,Windows,10,undefined,undefined,1536 x 864,1536 x 864
S019,19,Vrouwelijk,Rechts,2,82,right,yes,250,undefined,null,true,focus,yes,651519,Chrome,112.0,Windows,10,undefined,undefined,1536 x 864,1536 x 864
S019,19,Vrouwelijk,Rechts,2,83,left,yes,300,leftarrow,360,false,focus,yes,652659,Chrome,112.0,Windows,10,undefined,undefined,1536 x 864,1536 x 864
S019,19,Vrouwelijk,Rechts,2,84,right,no,250,rightarrow,636,true,focus,yes,654068,Chrome,112.0,Windows,10,undefined,undefined,1536 x 864,1536 x 864
S019,19,Vrouwelijk,Rechts,2,85,left,no,250,leftarrow,325,true,focus,yes,655175,Chrome,112.0,Windows,10,undefined,undefined,1536 x 864,1536 x 864
S019,19,Vrouwelijk,Rechts,2,86,left,no,250,leftarrow,449,true,focus,yes,656399,Chrome,112.0,Windows,10,undefined,undefined,1536 x 864,1536 x 864
S019,19,Vrouwelijk,Rechts,2,87,right,no,250,rightarrow,555,true,focus,yes,657739,Chrome,112.0,Windows,10,undefined,undefined,1536 x 864,1536 x 864
S019,19,Vrouwelijk,Rechts,2,88,left,no,250,leftarrow,323,true,focus,yes,658840,Chrome,112.0,Windows,10,undefined,undefined,1536 x 864,1536 x 864
S019,19,Vrouwelijk,Rechts,2,89,left,no,250,leftarrow,392,true,focus,yes,660009,Chrome,112.0,Windows,10,undefined,undefined,1536 x 864,1536 x 864
S019,19,Vrouwelijk,Rechts,2,90,left,no,250,leftarrow,343,true,focus,yes,661115,Chrome,112.0,Windows,10,undefined,undefined,1536 x 864,1536 x 864
S019,19,Vrouwelijk,Rechts,2,91,right,no,250,rightarrow,545,true,focus,yes,662417,Chrome,112.0,Windows,10,undefined,undefined,1536 x 864,1536 x 864
S019,19,Vrouwelijk,Rechts,2,92,right,yes,250,rightarrow,410,false,focus,yes,663594,Chrome,112.0,Windows,10,undefined,undefined,1536 x 864,1536 x 864
S019,19,Vrouwelijk,Rechts,2,93,right,no,200,rightarrow,359,true,focus,yes,664726,Chrome,112.0,Windows,10,undefined,undefined,1536 x 864,1536 x 864
S019,19,Vrouwelijk,Rechts,2,94,left,yes,200,undefined,null,true,focus,yes,666753,Chrome,112.0,Windows,10,undefined,undefined,1536 x 864,1536 x 864
S019,19,Vrouwelijk,Rechts,2,95,right,no,250,rightarrow,337,true,focus,yes,667869,Chrome,112.0,Windows,10,undefined,undefined,1536 x 864,1536 x 864
S019,19,Vrouwelijk,Rechts,2,96,left,no,250,leftarrow,733,true,focus,yes,669383,Chrome,112.0,Windows,10,undefined,undefined,1536 x 864,1536 x 864
S019,19,Vrouwelijk,Rechts,2,97,right,yes,250,rightarrow,374,false,focus,yes,670539,Chrome,112.0,Windows,10,undefined,undefined,1536 x 864,1536 x 864
S019,19,Vrouwelijk,Rechts,2,98,left,no,200,leftarrow,754,true,focus,yes,672071,Chrome,112.0,Windows,10,undefined,undefined,1536 x 864,1536 x 864
S019,19,Vrouwelijk,Rechts,2,99,right,no,200,rightarrow,461,true,focus,yes,673309,Chrome,112.0,Windows,10,undefined,undefined,1536 x 864,1536 x 864
S019,19,Vrouwelijk,Rechts,2,100,left,no,200,leftarrow,323,true,focus,yes,674397,Chrome,112.0,Windows,10,undefined,undefined,1536 x 864,1536 x 864
S019,19,Vrouwelijk,Rechts,2,101,right,no,200,rightarrow,302,true,focus,yes,675467,Chrome,112.0,Windows,10,undefined,undefined,1536 x 864,1536 x 864
S019,19,Vrouwelijk,Rechts,2,102,left,yes,200,leftarrow,287,false,focus,yes,676535,Chrome,112.0,Windows,10,undefined,undefined,1536 x 864,1536 x 864
S019,19,Vrouwelijk,Rechts,2,103,right,no,150,rightarrow,321,true,focus,yes,677636,Chrome,112.0,Windows,10,undefined,undefined,1536 x 864,1536 x 864
S019,19,Vrouwelijk,Rechts,2,104,left,no,150,leftarrow,288,true,focus,yes,678703,Chrome,112.0,Windows,10,undefined,undefined,1536 x 864,1536 x 864
S019,19,Vrouwelijk,Rechts,2,105,left,yes,150,undefined,null,true,focus,yes,680743,Chrome,112.0,Windows,10,undefined,undefined,1536 x 864,1536 x 864
S019,19,Vrouwelijk,Rechts,2,106,right,no,200,rightarrow,452,true,focus,yes,681967,Chrome,112.0,Windows,10,undefined,undefined,1536 x 864,1536 x 864
S019,19,Vrouwelijk,Rechts,2,107,right,no,200,rightarrow,448,true,focus,yes,683180,Chrome,112.0,Windows,10,undefined,undefined,1536 x 864,1536 x 864
S019,19,Vrouwelijk,Rechts,2,108,left,no,200,leftarrow,503,true,focus,yes,684441,Chrome,112.0,Windows,10,undefined,undefined,1536 x 864,1536 x 864
S019,19,Vrouwelijk,Rechts,2,109,left,no,200,leftarrow,404,true,focus,yes,685618,Chrome,112.0,Windows,10,undefined,undefined,1536 x 864,1536 x 864
S019,19,Vrouwelijk,Rechts,2,110,right,no,200,rightarrow,428,true,focus,yes,686826,Chrome,112.0,Windows,10,undefined,undefined,1536 x 864,1536 x 864
S019,19,Vrouwelijk,Rechts,2,111,left,no,200,leftarrow,363,true,focus,yes,687960,Chrome,112.0,Windows,10,undefined,undefined,1536 x 864,1536 x 864
S019,19,Vrouwelijk,Rechts,2,112,right,yes,200,rightarrow,312,false,focus,yes,689042,Chrome,112.0,Windows,10,undefined,undefined,1536 x 864,1536 x 864
S019,19,Vrouwelijk,Rechts,2,113,right,yes,150,rightarrow,542,false,focus,yes,690357,Chrome,112.0,Windows,10,undefined,undefined,1536 x 864,1536 x 864
S019,19,Vrouwelijk,Rechts,2,114,left,no,100,leftarrow,473,true,focus,yes,691605,Chrome,112.0,Windows,10,undefined,undefined,1536 x 864,1536 x 864
S019,19,Vrouwelijk,Rechts,2,115,right,no,100,rightarrow,480,true,focus,yes,692861,Chrome,112.0,Windows,10,undefined,undefined,1536 x 864,1536 x 864
S019,19,Vrouwelijk,Rechts,2,116,right,no,100,rightarrow,386,true,focus,yes,694017,Chrome,112.0,Windows,10,undefined,undefined,1536 x 864,1536 x 864
S019,19,Vrouwelijk,Rechts,2,117,left,no,100,leftarrow,412,true,focus,yes,695201,Chrome,112.0,Windows,10,undefined,undefined,1536 x 864,1536 x 864
S019,19,Vrouwelijk,Rechts,2,118,left,no,100,leftarrow,527,true,focus,yes,696507,Chrome,112.0,Windows,10,undefined,undefined,1536 x 864,1536 x 864
S019,19,Vrouwelijk,Rechts,2,119,left,yes,100,undefined,null,true,focus,yes,698533,Chrome,112.0,Windows,10,undefined,undefined,1536 x 864,1536 x 864
S019,19,Vrouwelijk,Rechts,2,120,right,no,150,rightarrow,375,true,focus,yes,699688,Chrome,112.0,Windows,10,undefined,undefined,1536 x 864,1536 x 864
S019,19,Vrouwelijk,Rechts,2,121,left,no,150,leftarrow,527,true,focus,yes,700990,Chrome,112.0,Windows,10,undefined,undefined,1536 x 864,1536 x 864
S019,19,Vrouwelijk,Rechts,2,122,right,no,150,rightarrow,277,true,focus,yes,702055,Chrome,112.0,Windows,10,undefined,undefined,1536 x 864,1536 x 864
S019,19,Vrouwelijk,Rechts,2,123,right,yes,150,undefined,null,true,focus,yes,704091,Chrome,112.0,Windows,10,undefined,undefined,1536 x 864,1536 x 864
S019,19,Vrouwelijk,Rechts,2,124,right,no,200,rightarrow,469,true,focus,yes,705332,Chrome,112.0,Windows,10,undefined,undefined,1536 x 864,1536 x 864
S019,19,Vrouwelijk,Rechts,2,125,left,yes,200,undefined,null,true,focus,yes,707365,Chrome,112.0,Windows,10,undefined,undefined,1536 x 864,1536 x 864
S019,19,Vrouwelijk,Rechts,2,126,left,no,250,leftarrow,458,true,focus,yes,708603,Chrome,112.0,Windows,10,undefined,undefined,1536 x 864,1536 x 864
S019,19,Vrouwelijk,Rechts,2,127,left,no,250,leftarrow,526,true,focus,yes,709906,Chrome,112.0,Windows,10,undefined,undefined,1536 x 864,1536 x 864
S019,19,Vrouwelijk,Rechts,2,128,right,no,250,rightarrow,498,true,focus,yes,711178,Chrome,112.0,Windows,10,undefined,undefined,1536 x 864,1536 x 864
S019,19,Vrouwelijk,Rechts,3,1,left,yes,250,undefined,null,true,focus,yes,730811,Chrome,112.0,Windows,10,undefined,undefined,1536 x 864,1536 x 864
S019,19,Vrouwelijk,Rechts,3,2,right,yes,300,rightarrow,445,false,focus,yes,732040,Chrome,112.0,Windows,10,undefined,undefined,1536 x 864,1536 x 864
S019,19,Vrouwelijk,Rechts,3,3,left,no,250,leftarrow,589,true,focus,yes,733400,Chrome,112.0,Windows,10,undefined,undefined,1536 x 864,1536 x 864
S019,19,Vrouwelijk,Rechts,3,4,right,no,250,rightarrow,492,true,focus,yes,734669,Chrome,112.0,Windows,10,undefined,undefined,1536 x 864,1536 x 864
S019,19,Vrouwelijk,Rechts,3,5,left,no,250,leftarrow,399,true,focus,yes,735843,Chrome,112.0,Windows,10,undefined,undefined,1536 x 864,1536 x 864
S019,19,Vrouwelijk,Rechts,3,6,right,no,250,rightarrow,457,true,focus,yes,737068,Chrome,112.0,Windows,10,undefined,undefined,1536 x 864,1536 x 864
S019,19,Vrouwelijk,Rechts,3,7,right,no,250,rightarrow,420,true,focus,yes,738249,Chrome,112.0,Windows,10,undefined,undefined,1536 x 864,1536 x 864
S019,19,Vrouwelijk,Rechts,3,8,left,no,250,leftarrow,384,true,focus,yes,739411,Chrome,112.0,Windows,10,undefined,undefined,1536 x 864,1536 x 864
S019,19,Vrouwelijk,Rechts,3,9,right,yes,250,rightarrow,364,false,focus,yes,740541,Chrome,112.0,Windows,10,undefined,undefined,1536 x 864,1536 x 864
S019,19,Vrouwelijk,Rechts,3,10,right,no,200,rightarrow,560,true,focus,yes,741873,Chrome,112.0,Windows,10,undefined,undefined,1536 x 864,1536 x 864
S019,19,Vrouwelijk,Rechts,3,11,left,no,200,leftarrow,460,true,focus,yes,743104,Chrome,112.0,Windows,10,undefined,undefined,1536 x 864,1536 x 864
S019,19,Vrouwelijk,Rechts,3,12,left,no,200,leftarrow,584,true,focus,yes,744462,Chrome,112.0,Windows,10,undefined,undefined,1536 x 864,1536 x 864
S019,19,Vrouwelijk,Rechts,3,13,right,no,200,rightarrow,619,true,focus,yes,745852,Chrome,112.0,Windows,10,undefined,undefined,1536 x 864,1536 x 864
S019,19,Vrouwelijk,Rechts,3,14,left,no,200,leftarrow,584,true,focus,yes,747200,Chrome,112.0,Windows,10,undefined,undefined,1536 x 864,1536 x 864
S019,19,Vrouwelijk,Rechts,3,15,left,yes,200,undefined,null,true,focus,yes,749218,Chrome,112.0,Windows,10,undefined,undefined,1536 x 864,1536 x 864
S019,19,Vrouwelijk,Rechts,3,16,right,no,250,rightarrow,433,true,focus,yes,750422,Chrome,112.0,Windows,10,undefined,undefined,1536 x 864,1536 x 864
S019,19,Vrouwelijk,Rechts,3,17,right,no,250,rightarrow,395,true,focus,yes,751588,Chrome,112.0,Windows,10,undefined,undefined,1536 x 864,1536 x 864
S019,19,Vrouwelijk,Rechts,3,18,left,no,250,leftarrow,395,true,focus,yes,752744,Chrome,112.0,Windows,10,undefined,undefined,1536 x 864,1536 x 864
S019,19,Vrouwelijk,Rechts,3,19,left,yes,250,leftarrow,398,false,focus,yes,753914,Chrome,112.0,Windows,10,undefined,undefined,1536 x 864,1536 x 864
S019,19,Vrouwelijk,Rechts,3,20,right,no,200,rightarrow,398,true,focus,yes,755091,Chrome,112.0,Windows,10,undefined,undefined,1536 x 864,1536 x 864
S019,19,Vrouwelijk,Rechts,3,21,right,no,200,rightarrow,444,true,focus,yes,756304,Chrome,112.0,Windows,10,undefined,undefined,1536 x 864,1536 x 864
S019,19,Vrouwelijk,Rechts,3,22,left,no,200,leftarrow,439,true,focus,yes,757505,Chrome,112.0,Windows,10,undefined,undefined,1536 x 864,1536 x 864
S019,19,Vrouwelijk,Rechts,3,23,left,no,200,leftarrow,388,true,focus,yes,758664,Chrome,112.0,Windows,10,undefined,undefined,1536 x 864,1536 x 864
S019,19,Vrouwelijk,Rechts,3,24,right,yes,200,undefined,null,true,focus,yes,760706,Chrome,112.0,Windows,10,undefined,undefined,1536 x 864,1536 x 864
S019,19,Vrouwelijk,Rechts,3,25,right,no,250,rightarrow,463,true,focus,yes,761939,Chrome,112.0,Windows,10,undefined,undefined,1536 x 864,1536 x 864
S019,19,Vrouwelijk,Rechts,3,26,left,yes,250,leftarrow,438,false,focus,yes,763147,Chrome,112.0,Windows,10,undefined,undefined,1536 x 864,1536 x 864
S019,19,Vrouwelijk,Rechts,3,27,left,no,200,leftarrow,466,true,focus,yes,764392,Chrome,112.0,Windows,10,undefined,undefined,1536 x 864,1536 x 864
S019,19,Vrouwelijk,Rechts,3,28,right,no,200,rightarrow,518,true,focus,yes,765694,Chrome,112.0,Windows,10,undefined,undefined,1536 x 864,1536 x 864
S019,19,Vrouwelijk,Rechts,3,29,right,yes,200,undefined,null,true,focus,yes,767723,Chrome,112.0,Windows,10,undefined,undefined,1536 x 864,1536 x 864
S019,19,Vrouwelijk,Rechts,3,30,right,no,250,rightarrow,497,true,focus,yes,768990,Chrome,112.0,Windows,10,undefined,undefined,1536 x 864,1536 x 864
S019,19,Vrouwelijk,Rechts,3,31,left,no,250,leftarrow,492,true,focus,yes,770251,Chrome,112.0,Windows,10,undefined,undefined,1536 x 864,1536 x 864
S019,19,Vrouwelijk,Rechts,3,32,left,no,250,leftarrow,472,true,focus,yes,771497,Chrome,112.0,Windows,10,undefined,undefined,1536 x 864,1536 x 864
S019,19,Vrouwelijk,Rechts,3,33,left,yes,250,leftarrow,419,false,focus,yes,772695,Chrome,112.0,Windows,10,undefined,undefined,1536 x 864,1536 x 864
S019,19,Vrouwelijk,Rechts,3,34,left,no,200,leftarrow,591,true,focus,yes,774058,Chrome,112.0,Windows,10,undefined,undefined,1536 x 864,1536 x 864
S019,19,Vrouwelijk,Rechts,3,35,right,no,200,rightarrow,385,true,focus,yes,775227,Chrome,112.0,Windows,10,undefined,undefined,1536 x 864,1536 x 864
S019,19,Vrouwelijk,Rechts,3,36,right,no,200,rightarrow,446,true,focus,yes,776441,Chrome,112.0,Windows,10,undefined,undefined,1536 x 864,1536 x 864
S019,19,Vrouwelijk,Rechts,3,37,right,no,200,rightarrow,395,true,focus,yes,777608,Chrome,112.0,Windows,10,undefined,undefined,1536 x 864,1536 x 864
S019,19,Vrouwelijk,Rechts,3,38,left,no,200,leftarrow,509,true,focus,yes,778888,Chrome,112.0,Windows,10,undefined,undefined,1536 x 864,1536 x 864
S019,19,Vrouwelijk,Rechts,3,39,right,yes,200,undefined,null,true,focus,yes,780915,Chrome,112.0,Windows,10,undefined,undefined,1536 x 864,1536 x 864
S019,19,Vrouwelijk,Rechts,3,40,left,no,250,leftarrow,465,true,focus,yes,782160,Chrome,112.0,Windows,10,undefined,undefined,1536 x 864,1536 x 864
S019,19,Vrouwelijk,Rechts,3,41,left,no,250,leftarrow,677,true,focus,yes,783606,Chrome,112.0,Windows,10,undefined,undefined,1536 x 864,1536 x 864
S019,19,Vrouwelijk,Rechts,3,42,left,no,250,leftarrow,341,true,focus,yes,784711,Chrome,112.0,Windows,10,undefined,undefined,1536 x 864,1536 x 864
S019,19,Vrouwelijk,Rechts,3,43,right,no,250,rightarrow,408,true,focus,yes,785886,Chrome,112.0,Windows,10,undefined,undefined,1536 x 864,1536 x 864
S019,19,Vrouwelijk,Rechts,3,44,right,no,250,rightarrow,378,true,focus,yes,787041,Chrome,112.0,Windows,10,undefined,undefined,1536 x 864,1536 x 864
S019,19,Vrouwelijk,Rechts,3,45,left,yes,250,leftarrow,372,false,focus,yes,788183,Chrome,112.0,Windows,10,undefined,undefined,1536 x 864,1536 x 864
S019,19,Vrouwelijk,Rechts,3,46,left,no,200,leftarrow,492,true,focus,yes,789454,Chrome,112.0,Windows,10,undefined,undefined,1536 x 864,1536 x 864
S019,19,Vrouwelijk,Rechts,3,47,right,no,200,rightarrow,586,true,focus,yes,790814,Chrome,112.0,Windows,10,undefined,undefined,1536 x 864,1536 x 864
S019,19,Vrouwelijk,Rechts,3,48,right,yes,200,undefined,null,true,focus,yes,792859,Chrome,112.0,Windows,10,undefined,undefined,1536 x 864,1536 x 864
S019,19,Vrouwelijk,Rechts,3,49,left,no,250,leftarrow,499,true,focus,yes,794143,Chrome,112.0,Windows,10,undefined,undefined,1536 x 864,1536 x 864
S019,19,Vrouwelijk,Rechts,3,50,right,yes,250,undefined,null,true,focus,yes,796194,Chrome,112.0,Windows,10,undefined,undefined,1536 x 864,1536 x 864
S019,19,Vrouwelijk,Rechts,3,51,right,no,300,rightarrow,431,true,focus,yes,797398,Chrome,112.0,Windows,10,undefined,undefined,1536 x 864,1536 x 864
S019,19,Vrouwelijk,Rechts,3,52,right,no,300,rightarrow,590,true,focus,yes,798768,Chrome,112.0,Windows,10,undefined,undefined,1536 x 864,1536 x 864
S019,19,Vrouwelijk,Rechts,3,53,left,yes,300,undefined,null,true,focus,yes,800800,Chrome,112.0,Windows,10,undefined,undefined,1536 x 864,1536 x 864
S019,19,Vrouwelijk,Rechts,3,54,right,no,350,rightarrow,405,true,focus,yes,801983,Chrome,112.0,Windows,10,undefined,undefined,1536 x 864,1536 x 864
S019,19,Vrouwelijk,Rechts,3,55,left,no,350,leftarrow,471,true,focus,yes,803231,Chrome,112.0,Windows,10,undefined,undefined,1536 x 864,1536 x 864
S019,19,Vrouwelijk,Rechts,3,56,left,no,350,leftarrow,410,true,focus,yes,804421,Chrome,112.0,Windows,10,undefined,undefined,1536 x 864,1536 x 864
S019,19,Vrouwelijk,Rechts,3,57,right,no,350,rightarrow,565,true,focus,yes,805758,Chrome,112.0,Windows,10,undefined,undefined,1536 x 864,1536 x 864
S019,19,Vrouwelijk,Rechts,3,58,left,no,350,leftarrow,507,true,focus,yes,807026,Chrome,112.0,Windows,10,undefined,undefined,1536 x 864,1536 x 864
S019,19,Vrouwelijk,Rechts,3,59,left,no,350,leftarrow,653,true,focus,yes,808463,Chrome,112.0,Windows,10,undefined,undefined,1536 x 864,1536 x 864
S019,19,Vrouwelijk,Rechts,3,60,right,no,350,rightarrow,714,true,focus,yes,809957,Chrome,112.0,Windows,10,undefined,undefined,1536 x 864,1536 x 864
S019,19,Vrouwelijk,Rechts,3,61,left,yes,350,leftarrow,407,false,focus,yes,811123,Chrome,112.0,Windows,10,undefined,undefined,1536 x 864,1536 x 864
S019,19,Vrouwelijk,Rechts,3,62,right,yes,300,rightarrow,355,false,focus,yes,812248,Chrome,112.0,Windows,10,undefined,undefined,1536 x 864,1536 x 864
S019,19,Vrouwelijk,Rechts,3,63,right,no,250,rightarrow,572,true,focus,yes,813600,Chrome,112.0,Windows,10,undefined,undefined,1536 x 864,1536 x 864
S019,19,Vrouwelijk,Rechts,3,64,left,no,250,leftarrow,620,true,focus,yes,814997,Chrome,112.0,Windows,10,undefined,undefined,1536 x 864,1536 x 864
S019,19,Vrouwelijk,Rechts,3,65,left,no,250,leftarrow,500,true,focus,yes,816276,Chrome,112.0,Windows,10,undefined,undefined,1536 x 864,1536 x 864
S019,19,Vrouwelijk,Rechts,3,66,left,no,250,leftarrow,739,true,focus,yes,817804,Chrome,112.0,Windows,10,undefined,undefined,1536 x 864,1536 x 864
S019,19,Vrouwelijk,Rechts,3,67,right,yes,250,undefined,null,true,focus,yes,819842,Chrome,112.0,Windows,10,undefined,undefined,1536 x 864,1536 x 864
S019,19,Vrouwelijk,Rechts,3,68,left,no,300,leftarrow,506,true,focus,yes,821132,Chrome,112.0,Windows,10,undefined,undefined,1536 x 864,1536 x 864
S019,19,Vrouwelijk,Rechts,3,69,left,yes,300,leftarrow,433,false,focus,yes,822342,Chrome,112.0,Windows,10,undefined,undefined,1536 x 864,1536 x 864
S019,19,Vrouwelijk,Rechts,3,70,right,no,250,rightarrow,515,true,focus,yes,823642,Chrome,112.0,Windows,10,undefined,undefined,1536 x 864,1536 x 864
S019,19,Vrouwelijk,Rechts,3,71,right,no,250,rightarrow,689,true,focus,yes,825115,Chrome,112.0,Windows,10,undefined,undefined,1536 x 864,1536 x 864
S019,19,Vrouwelijk,Rechts,3,72,right,no,250,rightarrow,453,true,focus,yes,826346,Chrome,112.0,Windows,10,undefined,undefined,1536 x 864,1536 x 864
S019,19,Vrouwelijk,Rechts,3,73,right,no,250,rightarrow,442,true,focus,yes,827558,Chrome,112.0,Windows,10,undefined,undefined,1536 x 864,1536 x 864
S019,19,Vrouwelijk,Rechts,3,74,left,no,250,leftarrow,502,true,focus,yes,828845,Chrome,112.0,Windows,10,undefined,undefined,1536 x 864,1536 x 864
S019,19,Vrouwelijk,Rechts,3,75,left,no,250,leftarrow,521,true,focus,yes,830148,Chrome,112.0,Windows,10,undefined,undefined,1536 x 864,1536 x 864
S019,19,Vrouwelijk,Rechts,3,76,right,yes,250,rightarrow,436,false,focus,yes,831363,Chrome,112.0,Windows,10,undefined,undefined,1536 x 864,1536 x 864
S019,19,Vrouwelijk,Rechts,3,77,left,yes,200,leftarrow,372,false,focus,yes,832504,Chrome,112.0,Windows,10,undefined,undefined,1536 x 864,1536 x 864
S019,19,Vrouwelijk,Rechts,3,78,right,no,150,rightarrow,590,true,focus,yes,833866,Chrome,112.0,Windows,10,undefined,undefined,1536 x 864,1536 x 864
S019,19,Vrouwelijk,Rechts,3,79,right,no,150,rightarrow,415,true,focus,yes,835057,Chrome,112.0,Windows,10,undefined,undefined,1536 x 864,1536 x 864
S019,19,Vrouwelijk,Rechts,3,80,left,no,150,leftarrow,404,true,focus,yes,836242,Chrome,112.0,Windows,10,undefined,undefined,1536 x 864,1536 x 864
S019,19,Vrouwelijk,Rechts,3,81,right,yes,150,rightarrow,361,false,focus,yes,837384,Chrome,112.0,Windows,10,undefined,undefined,1536 x 864,1536 x 864
S019,19,Vrouwelijk,Rechts,3,82,left,yes,100,undefined,null,true,focus,yes,839406,Chrome,112.0,Windows,10,undefined,undefined,1536 x 864,1536 x 864
S019,19,Vrouwelijk,Rechts,3,83,left,no,150,leftarrow,454,true,focus,yes,840642,Chrome,112.0,Windows,10,undefined,undefined,1536 x 864,1536 x 864
S019,19,Vrouwelijk,Rechts,3,84,right,no,150,rightarrow,687,true,focus,yes,842109,Chrome,112.0,Windows,10,undefined,undefined,1536 x 864,1536 x 864
S019,19,Vrouwelijk,Rechts,3,85,right,no,150,rightarrow,486,true,focus,yes,843374,Chrome,112.0,Windows,10,undefined,undefined,1536 x 864,1536 x 864
S019,19,Vrouwelijk,Rechts,3,86,right,no,150,rightarrow,522,true,focus,yes,844676,Chrome,112.0,Windows,10,undefined,undefined,1536 x 864,1536 x 864
S019,19,Vrouwelijk,Rechts,3,87,left,no,150,leftarrow,625,true,focus,yes,846080,Chrome,112.0,Windows,10,undefined,undefined,1536 x 864,1536 x 864
S019,19,Vrouwelijk,Rechts,3,88,left,no,150,leftarrow,547,true,focus,yes,847401,Chrome,112.0,Windows,10,undefined,undefined,1536 x 864,1536 x 864
S019,19,Vrouwelijk,Rechts,3,89,right,no,150,rightarrow,472,true,focus,yes,848643,Chrome,112.0,Windows,10,undefined,undefined,1536 x 864,1536 x 864
S019,19,Vrouwelijk,Rechts,3,90,left,no,150,leftarrow,377,true,focus,yes,849789,Chrome,112.0,Windows,10,undefined,undefined,1536 x 864,1536 x 864
S019,19,Vrouwelijk,Rechts,3,91,left,no,150,leftarrow,364,true,focus,yes,850935,Chrome,112.0,Windows,10,undefined,undefined,1536 x 864,1536 x 864
S019,19,Vrouwelijk,Rechts,3,92,right,yes,150,undefined,null,true,focus,yes,852968,Chrome,112.0,Windows,10,undefined,undefined,1536 x 864,1536 x 864
S019,19,Vrouwelijk,Rechts,3,93,right,no,200,rightarrow,378,true,focus,yes,854116,Chrome,112.0,Windows,10,undefined,undefined,1536 x 864,1536 x 864
S019,19,Vrouwelijk,Rechts,3,94,left,yes,200,undefined,null,true,focus,yes,856151,Chrome,112.0,Windows,10,undefined,undefined,1536 x 864,1536 x 864
S019,19,Vrouwelijk,Rechts,3,95,right,no,250,rightarrow,409,true,focus,yes,857330,Chrome,112.0,Windows,10,undefined,undefined,1536 x 864,1536 x 864
S019,19,Vrouwelijk,Rechts,3,96,left,no,250,leftarrow,429,true,focus,yes,858533,Chrome,112.0,Windows,10,undefined,undefined,1536 x 864,1536 x 864
S019,19,Vrouwelijk,Rechts,3,97,left,yes,250,undefined,null,true,focus,yes,860566,Chrome,112.0,Windows,10,undefined,undefined,1536 x 864,1536 x 864
S019,19,Vrouwelijk,Rechts,3,98,right,yes,300,undefined,null,true,focus,yes,862604,Chrome,112.0,Windows,10,undefined,undefined,1536 x 864,1536 x 864
S019,19,Vrouwelijk,Rechts,3,99,right,no,350,rightarrow,516,true,focus,yes,863903,Chrome,112.0,Windows,10,undefined,undefined,1536 x 864,1536 x 864
S019,19,Vrouwelijk,Rechts,3,100,left,no,350,leftarrow,562,true,focus,yes,865233,Chrome,112.0,Windows,10,undefined,undefined,1536 x 864,1536 x 864
S019,19,Vrouwelijk,Rechts,3,101,right,no,350,rightarrow,779,true,focus,yes,866782,Chrome,112.0,Windows,10,undefined,undefined,1536 x 864,1536 x 864
S019,19,Vrouwelijk,Rechts,3,102,left,no,350,leftarrow,456,true,focus,yes,868010,Chrome,112.0,Windows,10,undefined,undefined,1536 x 864,1536 x 864
S019,19,Vrouwelijk,Rechts,3,103,left,no,350,leftarrow,415,true,focus,yes,869201,Chrome,112.0,Windows,10,undefined,undefined,1536 x 864,1536 x 864
S019,19,Vrouwelijk,Rechts,3,104,right,no,350,rightarrow,455,true,focus,yes,870441,Chrome,112.0,Windows,10,undefined,undefined,1536 x 864,1536 x 864
S019,19,Vrouwelijk,Rechts,3,105,right,no,350,rightarrow,465,true,focus,yes,871670,Chrome,112.0,Windows,10,undefined,undefined,1536 x 864,1536 x 864
S019,19,Vrouwelijk,Rechts,3,106,left,no,350,leftarrow,411,true,focus,yes,872850,Chrome,112.0,Windows,10,undefined,undefined,1536 x 864,1536 x 864
S019,19,Vrouwelijk,Rechts,3,107,right,no,350,rightarrow,368,true,focus,yes,873987,Chrome,112.0,Windows,10,undefined,undefined,1536 x 864,1536 x 864
S019,19,Vrouwelijk,Rechts,3,108,left,yes,350,leftarrow,438,false,focus,yes,875208,Chrome,112.0,Windows,10,undefined,undefined,1536 x 864,1536 x 864
S019,19,Vrouwelijk,Rechts,3,109,left,no,300,leftarrow,507,true,focus,yes,876493,Chrome,112.0,Windows,10,undefined,undefined,1536 x 864,1536 x 864
S019,19,Vrouwelijk,Rechts,3,110,right,no,300,rightarrow,458,true,focus,yes,877717,Chrome,112.0,Windows,10,undefined,undefined,1536 x 864,1536 x 864
S019,19,Vrouwelijk,Rechts,3,111,left,no,300,leftarrow,451,true,focus,yes,878954,Chrome,112.0,Windows,10,undefined,undefined,1536 x 864,1536 x 864
S019,19,Vrouwelijk,Rechts,3,112,right,yes,300,rightarrow,474,false,focus,yes,880210,Chrome,112.0,Windows,10,undefined,undefined,1536 x 864,1536 x 864
S019,19,Vrouwelijk,Rechts,3,113,right,no,250,rightarrow,632,true,focus,yes,881619,Chrome,112.0,Windows,10,undefined,undefined,1536 x 864,1536 x 864
S019,19,Vrouwelijk,Rechts,3,114,left,no,250,leftarrow,517,true,focus,yes,882909,Chrome,112.0,Windows,10,undefined,undefined,1536 x 864,1536 x 864
S019,19,Vrouwelijk,Rechts,3,115,left,no,250,leftarrow,541,true,focus,yes,884227,Chrome,112.0,Windows,10,undefined,undefined,1536 x 864,1536 x 864
S019,19,Vrouwelijk,Rechts,3,116,left,no,250,leftarrow,421,true,focus,yes,885424,Chrome,112.0,Windows,10,undefined,undefined,1536 x 864,1536 x 864
S019,19,Vrouwelijk,Rechts,3,117,right,no,250,rightarrow,480,true,focus,yes,886682,Chrome,112.0,Windows,10,undefined,undefined,1536 x 864,1536 x 864
S019,19,Vrouwelijk,Rechts,3,118,left,yes,250,leftarrow,397,false,focus,yes,887839,Chrome,112.0,Windows,10,undefined,undefined,1536 x 864,1536 x 864
S019,19,Vrouwelijk,Rechts,3,119,right,no,200,rightarrow,503,true,focus,yes,889121,Chrome,112.0,Windows,10,undefined,undefined,1536 x 864,1536 x 864
S019,19,Vrouwelijk,Rechts,3,120,right,yes,200,undefined,null,true,focus,yes,891165,Chrome,112.0,Windows,10,undefined,undefined,1536 x 864,1536 x 864
S019,19,Vrouwelijk,Rechts,3,121,right,no,250,rightarrow,613,true,focus,yes,892548,Chrome,112.0,Windows,10,undefined,undefined,1536 x 864,1536 x 864
S019,19,Vrouwelijk,Rechts,3,122,left,yes,250,undefined,null,true,focus,yes,894570,Chrome,112.0,Windows,10,undefined,undefined,1536 x 864,1536 x 864
S019,19,Vrouwelijk,Rechts,3,123,right,yes,300,undefined,null,true,focus,yes,896606,Chrome,112.0,Windows,10,undefined,undefined,1536 x 864,1536 x 864
S019,19,Vrouwelijk,Rechts,3,124,left,no,350,leftarrow,568,true,focus,yes,897944,Chrome,112.0,Windows,10,undefined,undefined,1536 x 864,1536 x 864
S019,19,Vrouwelijk,Rechts,3,125,right,no,350,rightarrow,629,true,focus,yes,899347,Chrome,112.0,Windows,10,undefined,undefined,1536 x 864,1536 x 864
S019,19,Vrouwelijk,Rechts,3,126,left,no,350,leftarrow,449,true,focus,yes,900568,Chrome,112.0,Windows,10,undefined,undefined,1536 x 864,1536 x 864
S019,19,Vrouwelijk,Rechts,3,127,left,no,350,leftarrow,484,true,focus,yes,901835,Chrome,112.0,Windows,10,undefined,undefined,1536 x 864,1536 x 864
S019,19,Vrouwelijk,Rechts,3,128,right,no,350,rightarrow,457,true,focus,yes,903060,Chrome,112.0,Windows,10,undefined,undefined,1536 x 864,1536 x 864
S019,19,Vrouwelijk,Rechts,4,1,right,yes,350,rightarrow,519,false,focus,yes,922852,Chrome,112.0,Windows,10,undefined,undefined,1536 x 864,1536 x 864
S019,19,Vrouwelijk,Rechts,4,2,left,yes,300,undefined,null,true,focus,yes,924887,Chrome,112.0,Windows,10,undefined,undefined,1536 x 864,1536 x 864
S019,19,Vrouwelijk,Rechts,4,3,left,no,350,leftarrow,651,true,focus,yes,926318,Chrome,112.0,Windows,10,undefined,undefined,1536 x 864,1536 x 864
S019,19,Vrouwelijk,Rechts,4,4,left,no,350,leftarrow,555,true,focus,yes,927655,Chrome,112.0,Windows,10,undefined,undefined,1536 x 864,1536 x 864
S019,19,Vrouwelijk,Rechts,4,5,right,no,350,rightarrow,695,true,focus,yes,929128,Chrome,112.0,Windows,10,undefined,undefined,1536 x 864,1536 x 864
S019,19,Vrouwelijk,Rechts,4,6,right,no,350,rightarrow,498,true,focus,yes,930398,Chrome,112.0,Windows,10,undefined,undefined,1536 x 864,1536 x 864
S019,19,Vrouwelijk,Rechts,4,7,left,no,350,leftarrow,509,true,focus,yes,931675,Chrome,112.0,Windows,10,undefined,undefined,1536 x 864,1536 x 864
S019,19,Vrouwelijk,Rechts,4,8,right,no,350,rightarrow,480,true,focus,yes,932919,Chrome,112.0,Windows,10,undefined,undefined,1536 x 864,1536 x 864
S019,19,Vrouwelijk,Rechts,4,9,left,no,350,leftarrow,745,true,focus,yes,934444,Chrome,112.0,Windows,10,undefined,undefined,1536 x 864,1536 x 864
S019,19,Vrouwelijk,Rechts,4,10,right,no,350,rightarrow,745,true,focus,yes,935962,Chrome,112.0,Windows,10,undefined,undefined,1536 x 864,1536 x 864
S019,19,Vrouwelijk,Rechts,4,11,left,yes,350,leftarrow,399,false,focus,yes,937132,Chrome,112.0,Windows,10,undefined,undefined,1536 x 864,1536 x 864
S019,19,Vrouwelijk,Rechts,4,12,right,no,300,rightarrow,534,true,focus,yes,938433,Chrome,112.0,Windows,10,undefined,undefined,1536 x 864,1536 x 864
S019,19,Vrouwelijk,Rechts,4,13,right,yes,300,undefined,null,true,focus,yes,940470,Chrome,112.0,Windows,10,undefined,undefined,1536 x 864,1536 x 864
S019,19,Vrouwelijk,Rechts,4,14,left,no,350,leftarrow,577,true,focus,yes,941826,Chrome,112.0,Windows,10,undefined,undefined,1536 x 864,1536 x 864
S019,19,Vrouwelijk,Rechts,4,15,left,no,350,leftarrow,594,true,focus,yes,943182,Chrome,112.0,Windows,10,undefined,undefined,1536 x 864,1536 x 864
S019,19,Vrouwelijk,Rechts,4,16,right,no,350,rightarrow,627,true,focus,yes,944592,Chrome,112.0,Windows,10,undefined,undefined,1536 x 864,1536 x 864
S019,19,Vrouwelijk,Rechts,4,17,left,yes,350,leftarrow,456,false,focus,yes,945823,Chrome,112.0,Windows,10,undefined,undefined,1536 x 864,1536 x 864
S019,19,Vrouwelijk,Rechts,4,18,right,no,300,rightarrow,582,true,focus,yes,947180,Chrome,112.0,Windows,10,undefined,undefined,1536 x 864,1536 x 864
S019,19,Vrouwelijk,Rechts,4,19,left,no,300,leftarrow,382,true,focus,yes,948330,Chrome,112.0,Windows,10,undefined,undefined,1536 x 864,1536 x 864
S019,19,Vrouwelijk,Rechts,4,20,right,yes,300,rightarrow,337,false,focus,yes,949452,Chrome,112.0,Windows,10,undefined,undefined,1536 x 864,1536 x 864
S019,19,Vrouwelijk,Rechts,4,21,left,no,250,leftarrow,450,true,focus,yes,950667,Chrome,112.0,Windows,10,undefined,undefined,1536 x 864,1536 x 864
S019,19,Vrouwelijk,Rechts,4,22,left,no,250,leftarrow,446,true,focus,yes,951894,Chrome,112.0,Windows,10,undefined,undefined,1536 x 864,1536 x 864
S019,19,Vrouwelijk,Rechts,4,23,right,no,250,rightarrow,439,true,focus,yes,953105,Chrome,112.0,Windows,10,undefined,undefined,1536 x 864,1536 x 864
S019,19,Vrouwelijk,Rechts,4,24,right,no,250,rightarrow,634,true,focus,yes,954517,Chrome,112.0,Windows,10,undefined,undefined,1536 x 864,1536 x 864
S019,19,Vrouwelijk,Rechts,4,25,left,no,250,leftarrow,375,true,focus,yes,955673,Chrome,112.0,Windows,10,undefined,undefined,1536 x 864,1536 x 864
S019,19,Vrouwelijk,Rechts,4,26,left,no,250,leftarrow,465,true,focus,yes,956920,Chrome,112.0,Windows,10,undefined,undefined,1536 x 864,1536 x 864
S019,19,Vrouwelijk,Rechts,4,27,left,no,250,leftarrow,527,true,focus,yes,958223,Chrome,112.0,Windows,10,undefined,undefined,1536 x 864,1536 x 864
S019,19,Vrouwelijk,Rechts,4,28,left,yes,250,undefined,null,true,focus,yes,960271,Chrome,112.0,Windows,10,undefined,undefined,1536 x 864,1536 x 864
S019,19,Vrouwelijk,Rechts,4,29,right,no,300,rightarrow,546,true,focus,yes,961601,Chrome,112.0,Windows,10,undefined,undefined,1536 x 864,1536 x 864
S019,19,Vrouwelijk,Rechts,4,30,right,yes,300,rightarrow,444,false,focus,yes,962816,Chrome,112.0,Windows,10,undefined,undefined,1536 x 864,1536 x 864
S019,19,Vrouwelijk,Rechts,4,31,right,no,250,rightarrow,402,true,focus,yes,963991,Chrome,112.0,Windows,10,undefined,undefined,1536 x 864,1536 x 864
S019,19,Vrouwelijk,Rechts,4,32,right,no,250,rightarrow,373,true,focus,yes,965145,Chrome,112.0,Windows,10,undefined,undefined,1536 x 864,1536 x 864
S019,19,Vrouwelijk,Rechts,4,33,right,no,250,rightarrow,326,true,focus,yes,966248,Chrome,112.0,Windows,10,undefined,undefined,1536 x 864,1536 x 864
S019,19,Vrouwelijk,Rechts,4,34,right,yes,250,rightarrow,361,false,focus,yes,967383,Chrome,112.0,Windows,10,undefined,undefined,1536 x 864,1536 x 864
S019,19,Vrouwelijk,Rechts,4,35,right,no,200,rightarrow,398,true,focus,yes,968553,Chrome,112.0,Windows,10,undefined,undefined,1536 x 864,1536 x 864
S019,19,Vrouwelijk,Rechts,4,36,left,yes,200,undefined,null,true,focus,yes,970584,Chrome,112.0,Windows,10,undefined,undefined,1536 x 864,1536 x 864
S019,19,Vrouwelijk,Rechts,4,37,right,no,250,rightarrow,614,true,focus,yes,971969,Chrome,112.0,Windows,10,undefined,undefined,1536 x 864,1536 x 864
S019,19,Vrouwelijk,Rechts,4,38,left,no,250,leftarrow,676,true,focus,yes,973432,Chrome,112.0,Windows,10,undefined,undefined,1536 x 864,1536 x 864
S019,19,Vrouwelijk,Rechts,4,39,left,no,250,leftarrow,387,true,focus,yes,974592,Chrome,112.0,Windows,10,undefined,undefined,1536 x 864,1536 x 864
S019,19,Vrouwelijk,Rechts,4,40,left,no,250,leftarrow,358,true,focus,yes,975729,Chrome,112.0,Windows,10,undefined,undefined,1536 x 864,1536 x 864
S019,19,Vrouwelijk,Rechts,4,41,right,no,250,rightarrow,538,true,focus,yes,977042,Chrome,112.0,Windows,10,undefined,undefined,1536 x 864,1536 x 864
S019,19,Vrouwelijk,Rechts,4,42,right,no,250,leftarrow,411,false,focus,yes,978233,Chrome,112.0,Windows,10,undefined,undefined,1536 x 864,1536 x 864
S019,19,Vrouwelijk,Rechts,4,43,left,no,250,leftarrow,818,true,focus,yes,979822,Chrome,112.0,Windows,10,undefined,undefined,1536 x 864,1536 x 864
S019,19,Vrouwelijk,Rechts,4,44,right,no,250,rightarrow,490,true,focus,yes,981094,Chrome,112.0,Windows,10,undefined,undefined,1536 x 864,1536 x 864
S019,19,Vrouwelijk,Rechts,4,45,right,yes,250,undefined,null,true,focus,yes,983127,Chrome,112.0,Windows,10,undefined,undefined,1536 x 864,1536 x 864
S019,19,Vrouwelijk,Rechts,4,46,left,no,300,leftarrow,474,true,focus,yes,984379,Chrome,112.0,Windows,10,undefined,undefined,1536 x 864,1536 x 864
S019,19,Vrouwelijk,Rechts,4,47,left,no,300,leftarrow,446,true,focus,yes,985600,Chrome,112.0,Windows,10,undefined,undefined,1536 x 864,1536 x 864
S019,19,Vrouwelijk,Rechts,4,48,left,yes,300,undefined,null,true,focus,yes,987625,Chrome,112.0,Windows,10,undefined,undefined,1536 x 864,1536 x 864
S019,19,Vrouwelijk,Rechts,4,49,left,no,350,leftarrow,344,true,focus,yes,988749,Chrome,112.0,Windows,10,undefined,undefined,1536 x 864,1536 x 864
S019,19,Vrouwelijk,Rechts,4,50,right,no,350,rightarrow,543,true,focus,yes,990063,Chrome,112.0,Windows,10,undefined,undefined,1536 x 864,1536 x 864
S019,19,Vrouwelijk,Rechts,4,51,right,yes,350,rightarrow,445,false,focus,yes,991272,Chrome,112.0,Windows,10,undefined,undefined,1536 x 864,1536 x 864
S019,19,Vrouwelijk,Rechts,4,52,left,no,300,leftarrow,481,true,focus,yes,992524,Chrome,112.0,Windows,10,undefined,undefined,1536 x 864,1536 x 864
S019,19,Vrouwelijk,Rechts,4,53,left,no,300,leftarrow,511,true,focus,yes,993814,Chrome,112.0,Windows,10,undefined,undefined,1536 x 864,1536 x 864
S019,19,Vrouwelijk,Rechts,4,54,right,no,300,rightarrow,549,true,focus,yes,995136,Chrome,112.0,Windows,10,undefined,undefined,1536 x 864,1536 x 864
S019,19,Vrouwelijk,Rechts,4,55,right,no,300,rightarrow,441,true,focus,yes,996361,Chrome,112.0,Windows,10,undefined,undefined,1536 x 864,1536 x 864
S019,19,Vrouwelijk,Rechts,4,56,left,yes,300,undefined,null,true,focus,yes,998391,Chrome,112.0,Windows,10,undefined,undefined,1536 x 864,1536 x 864
S019,19,Vrouwelijk,Rechts,4,57,right,no,350,rightarrow,393,true,focus,yes,999563,Chrome,112.0,Windows,10,undefined,undefined,1536 x 864,1536 x 864
S019,19,Vrouwelijk,Rechts,4,58,left,no,350,leftarrow,452,true,focus,yes,1000788,Chrome,112.0,Windows,10,undefined,undefined,1536 x 864,1536 x 864
S019,19,Vrouwelijk,Rechts,4,59,left,yes,350,leftarrow,535,false,focus,yes,1002089,Chrome,112.0,Windows,10,undefined,undefined,1536 x 864,1536 x 864
S019,19,Vrouwelijk,Rechts,4,60,right,no,300,rightarrow,393,true,focus,yes,1003262,Chrome,112.0,Windows,10,undefined,undefined,1536 x 864,1536 x 864
S019,19,Vrouwelijk,Rechts,4,61,right,yes,300,rightarrow,479,false,focus,yes,1004516,Chrome,112.0,Windows,10,undefined,undefined,1536 x 864,1536 x 864
S019,19,Vrouwelijk,Rechts,4,62,left,no,250,leftarrow,633,true,focus,yes,1005919,Chrome,112.0,Windows,10,undefined,undefined,1536 x 864,1536 x 864
S019,19,Vrouwelijk,Rechts,4,63,left,no,250,leftarrow,401,true,focus,yes,1007103,Chrome,112.0,Windows,10,undefined,undefined,1536 x 864,1536 x 864
S019,19,Vrouwelijk,Rechts,4,64,right,no,250,rightarrow,388,true,focus,yes,1008258,Chrome,112.0,Windows,10,undefined,undefined,1536 x 864,1536 x 864
S019,19,Vrouwelijk,Rechts,4,65,left,no,250,leftarrow,439,true,focus,yes,1009476,Chrome,112.0,Windows,10,undefined,undefined,1536 x 864,1536 x 864
S019,19,Vrouwelijk,Rechts,4,66,left,no,250,leftarrow,473,true,focus,yes,1010711,Chrome,112.0,Windows,10,undefined,undefined,1536 x 864,1536 x 864
S019,19,Vrouwelijk,Rechts,4,67,right,yes,250,undefined,null,true,focus,yes,1012752,Chrome,112.0,Windows,10,undefined,undefined,1536 x 864,1536 x 864
S019,19,Vrouwelijk,Rechts,4,68,left,yes,300,undefined,null,true,focus,yes,1014773,Chrome,112.0,Windows,10,undefined,undefined,1536 x 864,1536 x 864
S019,19,Vrouwelijk,Rechts,4,69,right,no,350,rightarrow,665,true,focus,yes,1016218,Chrome,112.0,Windows,10,undefined,undefined,1536 x 864,1536 x 864
S019,19,Vrouwelijk,Rechts,4,70,right,no,350,rightarrow,409,true,focus,yes,1017402,Chrome,112.0,Windows,10,undefined,undefined,1536 x 864,1536 x 864
S019,19,Vrouwelijk,Rechts,4,71,right,no,350,rightarrow,475,true,focus,yes,1018651,Chrome,112.0,Windows,10,undefined,undefined,1536 x 864,1536 x 864
S019,19,Vrouwelijk,Rechts,4,72,left,no,350,leftarrow,666,true,focus,yes,1020092,Chrome,112.0,Windows,10,undefined,undefined,1536 x 864,1536 x 864
S019,19,Vrouwelijk,Rechts,4,73,right,yes,350,undefined,null,true,focus,yes,1022133,Chrome,112.0,Windows,10,undefined,undefined,1536 x 864,1536 x 864
S019,19,Vrouwelijk,Rechts,4,74,left,yes,400,undefined,null,true,focus,yes,1024169,Chrome,112.0,Windows,10,undefined,undefined,1536 x 864,1536 x 864
S019,19,Vrouwelijk,Rechts,4,75,right,no,450,rightarrow,616,true,focus,yes,1025549,Chrome,112.0,Windows,10,undefined,undefined,1536 x 864,1536 x 864
S019,19,Vrouwelijk,Rechts,4,76,right,no,450,rightarrow,420,true,focus,yes,1026745,Chrome,112.0,Windows,10,undefined,undefined,1536 x 864,1536 x 864
S019,19,Vrouwelijk,Rechts,4,77,left,no,450,leftarrow,521,true,focus,yes,1028046,Chrome,112.0,Windows,10,undefined,undefined,1536 x 864,1536 x 864
S019,19,Vrouwelijk,Rechts,4,78,left,no,450,leftarrow,419,true,focus,yes,1029233,Chrome,112.0,Windows,10,undefined,undefined,1536 x 864,1536 x 864
S019,19,Vrouwelijk,Rechts,4,79,right,no,450,rightarrow,739,true,focus,yes,1030748,Chrome,112.0,Windows,10,undefined,undefined,1536 x 864,1536 x 864
S019,19,Vrouwelijk,Rechts,4,80,left,no,450,leftarrow,446,true,focus,yes,1031972,Chrome,112.0,Windows,10,undefined,undefined,1536 x 864,1536 x 864
S019,19,Vrouwelijk,Rechts,4,81,left,no,450,leftarrow,808,true,focus,yes,1033551,Chrome,112.0,Windows,10,undefined,undefined,1536 x 864,1536 x 864
S019,19,Vrouwelijk,Rechts,4,82,right,yes,450,undefined,null,true,focus,yes,1035571,Chrome,112.0,Windows,10,undefined,undefined,1536 x 864,1536 x 864
S019,19,Vrouwelijk,Rechts,4,83,left,no,500,leftarrow,544,true,focus,yes,1036885,Chrome,112.0,Windows,10,undefined,undefined,1536 x 864,1536 x 864
S019,19,Vrouwelijk,Rechts,4,84,right,no,500,rightarrow,636,true,focus,yes,1038294,Chrome,112.0,Windows,10,undefined,undefined,1536 x 864,1536 x 864
S019,19,Vrouwelijk,Rechts,4,85,right,no,500,rightarrow,376,true,focus,yes,1039451,Chrome,112.0,Windows,10,undefined,undefined,1536 x 864,1536 x 864
S019,19,Vrouwelijk,Rechts,4,86,right,no,500,rightarrow,337,true,focus,yes,1040564,Chrome,112.0,Windows,10,undefined,undefined,1536 x 864,1536 x 864
S019,19,Vrouwelijk,Rechts,4,87,left,no,500,leftarrow,425,true,focus,yes,1041751,Chrome,112.0,Windows,10,undefined,undefined,1536 x 864,1536 x 864
S019,19,Vrouwelijk,Rechts,4,88,left,yes,500,leftarrow,405,false,focus,yes,1042929,Chrome,112.0,Windows,10,undefined,undefined,1536 x 864,1536 x 864
S019,19,Vrouwelijk,Rechts,4,89,left,no,450,leftarrow,356,true,focus,yes,1044064,Chrome,112.0,Windows,10,undefined,undefined,1536 x 864,1536 x 864
S019,19,Vrouwelijk,Rechts,4,90,right,no,450,rightarrow,543,true,focus,yes,1045384,Chrome,112.0,Windows,10,undefined,undefined,1536 x 864,1536 x 864
S019,19,Vrouwelijk,Rechts,4,91,right,yes,450,rightarrow,427,false,focus,yes,1046585,Chrome,112.0,Windows,10,undefined,undefined,1536 x 864,1536 x 864
S019,19,Vrouwelijk,Rechts,4,92,left,no,400,leftarrow,433,true,focus,yes,1047790,Chrome,112.0,Windows,10,undefined,undefined,1536 x 864,1536 x 864
S019,19,Vrouwelijk,Rechts,4,93,right,no,400,rightarrow,532,true,focus,yes,1049090,Chrome,112.0,Windows,10,undefined,undefined,1536 x 864,1536 x 864
S019,19,Vrouwelijk,Rechts,4,94,right,no,400,rightarrow,396,true,focus,yes,1050270,Chrome,112.0,Windows,10,undefined,undefined,1536 x 864,1536 x 864
S019,19,Vrouwelijk,Rechts,4,95,left,yes,400,leftarrow,377,false,focus,yes,1051418,Chrome,112.0,Windows,10,undefined,undefined,1536 x 864,1536 x 864
S019,19,Vrouwelijk,Rechts,4,96,left,no,350,leftarrow,421,true,focus,yes,1052603,Chrome,112.0,Windows,10,undefined,undefined,1536 x 864,1536 x 864
S019,19,Vrouwelijk,Rechts,4,97,left,yes,350,undefined,null,true,focus,yes,1054614,Chrome,112.0,Windows,10,undefined,undefined,1536 x 864,1536 x 864
S019,19,Vrouwelijk,Rechts,4,98,left,no,400,leftarrow,427,true,focus,yes,1055818,Chrome,112.0,Windows,10,undefined,undefined,1536 x 864,1536 x 864
S019,19,Vrouwelijk,Rechts,4,99,left,no,400,leftarrow,993,true,focus,yes,1057583,Chrome,112.0,Windows,10,undefined,undefined,1536 x 864,1536 x 864
S019,19,Vrouwelijk,Rechts,4,100,right,no,400,rightarrow,380,true,focus,yes,1058726,Chrome,112.0,Windows,10,undefined,undefined,1536 x 864,1536 x 864
S019,19,Vrouwelijk,Rechts,4,101,left,no,400,leftarrow,375,true,focus,yes,1059882,Chrome,112.0,Windows,10,undefined,undefined,1536 x 864,1536 x 864
S019,19,Vrouwelijk,Rechts,4,102,right,yes,400,rightarrow,371,false,focus,yes,1061028,Chrome,112.0,Windows,10,undefined,undefined,1536 x 864,1536 x 864
S019,19,Vrouwelijk,Rechts,4,103,right,no,350,rightarrow,436,true,focus,yes,1062243,Chrome,112.0,Windows,10,undefined,undefined,1536 x 864,1536 x 864
S019,19,Vrouwelijk,Rechts,4,104,right,no,350,rightarrow,522,true,focus,yes,1063537,Chrome,112.0,Windows,10,undefined,undefined,1536 x 864,1536 x 864
S019,19,Vrouwelijk,Rechts,4,105,right,yes,350,rightarrow,371,false,focus,yes,1064677,Chrome,112.0,Windows,10,undefined,undefined,1536 x 864,1536 x 864
S019,19,Vrouwelijk,Rechts,4,106,left,no,300,leftarrow,429,true,focus,yes,1065885,Chrome,112.0,Windows,10,undefined,undefined,1536 x 864,1536 x 864
S019,19,Vrouwelijk,Rechts,4,107,left,no,300,leftarrow,432,true,focus,yes,1067088,Chrome,112.0,Windows,10,undefined,undefined,1536 x 864,1536 x 864
S019,19,Vrouwelijk,Rechts,4,108,left,yes,300,leftarrow,431,false,focus,yes,1068303,Chrome,112.0,Windows,10,undefined,undefined,1536 x 864,1536 x 864
S019,19,Vrouwelijk,Rechts,4,109,left,no,250,leftarrow,798,true,focus,yes,1069871,Chrome,112.0,Windows,10,undefined,undefined,1536 x 864,1536 x 864
S019,19,Vrouwelijk,Rechts,4,110,right,no,250,rightarrow,407,true,focus,yes,1071046,Chrome,112.0,Windows,10,undefined,undefined,1536 x 864,1536 x 864
S019,19,Vrouwelijk,Rechts,4,111,right,no,250,rightarrow,497,true,focus,yes,1072321,Chrome,112.0,Windows,10,undefined,undefined,1536 x 864,1536 x 864
S019,19,Vrouwelijk,Rechts,4,112,right,no,250,rightarrow,432,true,focus,yes,1073521,Chrome,112.0,Windows,10,undefined,undefined,1536 x 864,1536 x 864
S019,19,Vrouwelijk,Rechts,4,113,left,no,250,leftarrow,461,true,focus,yes,1074767,Chrome,112.0,Windows,10,undefined,undefined,1536 x 864,1536 x 864
S019,19,Vrouwelijk,Rechts,4,114,left,no,250,leftarrow,449,true,focus,yes,1075989,Chrome,112.0,Windows,10,undefined,undefined,1536 x 864,1536 x 864
S019,19,Vrouwelijk,Rechts,4,115,left,no,250,leftarrow,347,true,focus,yes,1077121,Chrome,112.0,Windows,10,undefined,undefined,1536 x 864,1536 x 864
S019,19,Vrouwelijk,Rechts,4,116,left,yes,250,leftarrow,431,false,focus,yes,1078338,Chrome,112.0,Windows,10,undefined,undefined,1536 x 864,1536 x 864
S019,19,Vrouwelijk,Rechts,4,117,right,no,200,rightarrow,433,true,focus,yes,1079540,Chrome,112.0,Windows,10,undefined,undefined,1536 x 864,1536 x 864
S019,19,Vrouwelijk,Rechts,4,118,right,no,200,rightarrow,570,true,focus,yes,1080893,Chrome,112.0,Windows,10,undefined,undefined,1536 x 864,1536 x 864
S019,19,Vrouwelijk,Rechts,4,119,right,no,200,rightarrow,463,true,focus,yes,1082137,Chrome,112.0,Windows,10,undefined,undefined,1536 x 864,1536 x 864
S019,19,Vrouwelijk,Rechts,4,120,right,yes,200,undefined,null,true,focus,yes,1084170,Chrome,112.0,Windows,10,undefined,undefined,1536 x 864,1536 x 864
S019,19,Vrouwelijk,Rechts,4,121,left,yes,250,undefined,null,true,focus,yes,1086206,Chrome,112.0,Windows,10,undefined,undefined,1536 x 864,1536 x 864
S019,19,Vrouwelijk,Rechts,4,122,left,no,300,leftarrow,501,true,focus,yes,1087491,Chrome,112.0,Windows,10,undefined,undefined,1536 x 864,1536 x 864
S019,19,Vrouwelijk,Rechts,4,123,right,no,300,rightarrow,807,true,focus,yes,1089081,Chrome,112.0,Windows,10,undefined,undefined,1536 x 864,1536 x 864
S019,19,Vrouwelijk,Rechts,4,124,left,no,300,leftarrow,720,true,focus,yes,1090576,Chrome,112.0,Windows,10,undefined,undefined,1536 x 864,1536 x 864
S019,19,Vrouwelijk,Rechts,4,125,right,no,300,rightarrow,412,true,focus,yes,1091768,Chrome,112.0,Windows,10,undefined,undefined,1536 x 864,1536 x 864
S019,19,Vrouwelijk,Rechts,4,126,right,yes,300,rightarrow,419,false,focus,yes,1092961,Chrome,112.0,Windows,10,undefined,undefined,1536 x 864,1536 x 864
S019,19,Vrouwelijk,Rechts,4,127,right,no,250,rightarrow,729,true,focus,yes,1094469,Chrome,112.0,Windows,10,undefined,undefined,1536 x 864,1536 x 864
S019,19,Vrouwelijk,Rechts,4,128,left,no,250,leftarrow,397,true,focus,yes,1095636,Chrome,112.0,Windows,10,undefined,undefined,1536 x 864,1536 x 864
S019,19,Vrouwelijk,Rechts,5,1,left,yes,250,undefined,null,true,focus,yes,1115407,Chrome,112.0,Windows,10,undefined,undefined,1536 x 864,1536 x 864
S019,19,Vrouwelijk,Rechts,5,2,right,yes,300,undefined,null,true,focus,yes,1117442,Chrome,112.0,Windows,10,undefined,undefined,1536 x 864,1536 x 864
S019,19,Vrouwelijk,Rechts,5,3,left,no,350,leftarrow,680,true,focus,yes,1118901,Chrome,112.0,Windows,10,undefined,undefined,1536 x 864,1536 x 864
S019,19,Vrouwelijk,Rechts,5,4,left,no,350,leftarrow,482,true,focus,yes,1120153,Chrome,112.0,Windows,10,undefined,undefined,1536 x 864,1536 x 864
S019,19,Vrouwelijk,Rechts,5,5,right,no,350,rightarrow,407,true,focus,yes,1121344,Chrome,112.0,Windows,10,undefined,undefined,1536 x 864,1536 x 864
S019,19,Vrouwelijk,Rechts,5,6,right,no,350,rightarrow,398,true,focus,yes,1122519,Chrome,112.0,Windows,10,undefined,undefined,1536 x 864,1536 x 864
S019,19,Vrouwelijk,Rechts,5,7,left,no,350,leftarrow,475,true,focus,yes,1123779,Chrome,112.0,Windows,10,undefined,undefined,1536 x 864,1536 x 864
S019,19,Vrouwelijk,Rechts,5,8,right,no,350,rightarrow,381,true,focus,yes,1124936,Chrome,112.0,Windows,10,undefined,undefined,1536 x 864,1536 x 864
S019,19,Vrouwelijk,Rechts,5,9,left,no,350,leftarrow,518,true,focus,yes,1126228,Chrome,112.0,Windows,10,undefined,undefined,1536 x 864,1536 x 864
S019,19,Vrouwelijk,Rechts,5,10,right,no,350,rightarrow,311,true,focus,yes,1127315,Chrome,112.0,Windows,10,undefined,undefined,1536 x 864,1536 x 864
S019,19,Vrouwelijk,Rechts,5,11,left,no,350,leftarrow,314,true,focus,yes,1128400,Chrome,112.0,Windows,10,undefined,undefined,1536 x 864,1536 x 864
S019,19,Vrouwelijk,Rechts,5,12,right,yes,350,rightarrow,357,false,focus,yes,1129527,Chrome,112.0,Windows,10,undefined,undefined,1536 x 864,1536 x 864
S019,19,Vrouwelijk,Rechts,5,13,right,no,300,rightarrow,419,true,focus,yes,1130724,Chrome,112.0,Windows,10,undefined,undefined,1536 x 864,1536 x 864
S019,19,Vrouwelijk,Rechts,5,14,left,no,300,leftarrow,629,true,focus,yes,1132134,Chrome,112.0,Windows,10,undefined,undefined,1536 x 864,1536 x 864
S019,19,Vrouwelijk,Rechts,5,15,right,no,300,rightarrow,374,true,focus,yes,1133294,Chrome,112.0,Windows,10,undefined,undefined,1536 x 864,1536 x 864
S019,19,Vrouwelijk,Rechts,5,16,left,yes,300,leftarrow,347,false,focus,yes,1134417,Chrome,112.0,Windows,10,undefined,undefined,1536 x 864,1536 x 864
S019,19,Vrouwelijk,Rechts,5,17,right,no,250,rightarrow,349,true,focus,yes,1135536,Chrome,112.0,Windows,10,undefined,undefined,1536 x 864,1536 x 864
S019,19,Vrouwelijk,Rechts,5,18,left,no,250,leftarrow,422,true,focus,yes,1136742,Chrome,112.0,Windows,10,undefined,undefined,1536 x 864,1536 x 864
S019,19,Vrouwelijk,Rechts,5,19,right,no,250,rightarrow,347,true,focus,yes,1137868,Chrome,112.0,Windows,10,undefined,undefined,1536 x 864,1536 x 864
S019,19,Vrouwelijk,Rechts,5,20,right,yes,250,rightarrow,435,false,focus,yes,1139062,Chrome,112.0,Windows,10,undefined,undefined,1536 x 864,1536 x 864
S019,19,Vrouwelijk,Rechts,5,21,right,no,200,rightarrow,537,true,focus,yes,1140373,Chrome,112.0,Windows,10,undefined,undefined,1536 x 864,1536 x 864
S019,19,Vrouwelijk,Rechts,5,22,left,yes,200,leftarrow,361,false,focus,yes,1141514,Chrome,112.0,Windows,10,undefined,undefined,1536 x 864,1536 x 864
S019,19,Vrouwelijk,Rechts,5,23,left,no,150,leftarrow,559,true,focus,yes,1142846,Chrome,112.0,Windows,10,undefined,undefined,1536 x 864,1536 x 864
S019,19,Vrouwelijk,Rechts,5,24,left,no,150,leftarrow,529,true,focus,yes,1144151,Chrome,112.0,Windows,10,undefined,undefined,1536 x 864,1536 x 864
S019,19,Vrouwelijk,Rechts,5,25,left,no,150,leftarrow,403,true,focus,yes,1145340,Chrome,112.0,Windows,10,undefined,undefined,1536 x 864,1536 x 864
S019,19,Vrouwelijk,Rechts,5,26,right,no,150,rightarrow,337,true,focus,yes,1146456,Chrome,112.0,Windows,10,undefined,undefined,1536 x 864,1536 x 864
S019,19,Vrouwelijk,Rechts,5,27,left,no,150,leftarrow,320,true,focus,yes,1147548,Chrome,112.0,Windows,10,undefined,undefined,1536 x 864,1536 x 864
S019,19,Vrouwelijk,Rechts,5,28,right,no,150,rightarrow,336,true,focus,yes,1148655,Chrome,112.0,Windows,10,undefined,undefined,1536 x 864,1536 x 864
S019,19,Vrouwelijk,Rechts,5,29,left,yes,150,undefined,null,true,focus,yes,1150692,Chrome,112.0,Windows,10,undefined,undefined,1536 x 864,1536 x 864
S019,19,Vrouwelijk,Rechts,5,30,right,no,200,rightarrow,588,true,focus,yes,1152057,Chrome,112.0,Windows,10,undefined,undefined,1536 x 864,1536 x 864
S019,19,Vrouwelijk,Rechts,5,31,right,yes,200,rightarrow,457,false,focus,yes,1153292,Chrome,112.0,Windows,10,undefined,undefined,1536 x 864,1536 x 864
S019,19,Vrouwelijk,Rechts,5,32,left,no,150,leftarrow,680,true,focus,yes,1154749,Chrome,112.0,Windows,10,undefined,undefined,1536 x 864,1536 x 864
S019,19,Vrouwelijk,Rechts,5,33,right,no,150,rightarrow,361,true,focus,yes,1155879,Chrome,112.0,Windows,10,undefined,undefined,1536 x 864,1536 x 864
S019,19,Vrouwelijk,Rechts,5,34,right,yes,150,undefined,null,true,focus,yes,1157904,Chrome,112.0,Windows,10,undefined,undefined,1536 x 864,1536 x 864
S019,19,Vrouwelijk,Rechts,5,35,left,no,200,leftarrow,375,true,focus,yes,1159050,Chrome,112.0,Windows,10,undefined,undefined,1536 x 864,1536 x 864
S019,19,Vrouwelijk,Rechts,5,36,left,no,200,leftarrow,486,true,focus,yes,1160321,Chrome,112.0,Windows,10,undefined,undefined,1536 x 864,1536 x 864
S019,19,Vrouwelijk,Rechts,5,37,right,no,200,rightarrow,398,true,focus,yes,1161489,Chrome,112.0,Windows,10,undefined,undefined,1536 x 864,1536 x 864
S019,19,Vrouwelijk,Rechts,5,38,right,no,200,rightarrow,602,true,focus,yes,1162870,Chrome,112.0,Windows,10,undefined,undefined,1536 x 864,1536 x 864
S019,19,Vrouwelijk,Rechts,5,39,left,no,200,leftarrow,392,true,focus,yes,1164033,Chrome,112.0,Windows,10,undefined,undefined,1536 x 864,1536 x 864
S019,19,Vrouwelijk,Rechts,5,40,left,yes,200,leftarrow,381,false,focus,yes,1165199,Chrome,112.0,Windows,10,undefined,undefined,1536 x 864,1536 x 864
S019,19,Vrouwelijk,Rechts,5,41,right,no,150,rightarrow,742,true,focus,yes,1166728,Chrome,112.0,Windows,10,undefined,undefined,1536 x 864,1536 x 864
S019,19,Vrouwelijk,Rechts,5,42,left,no,150,leftarrow,328,true,focus,yes,1167830,Chrome,112.0,Windows,10,undefined,undefined,1536 x 864,1536 x 864
S019,19,Vrouwelijk,Rechts,5,43,left,no,150,leftarrow,421,true,focus,yes,1169029,Chrome,112.0,Windows,10,undefined,undefined,1536 x 864,1536 x 864
S019,19,Vrouwelijk,Rechts,5,44,right,yes,150,undefined,null,true,focus,yes,1171053,Chrome,112.0,Windows,10,undefined,undefined,1536 x 864,1536 x 864
S019,19,Vrouwelijk,Rechts,5,45,left,yes,200,undefined,null,true,focus,yes,1173086,Chrome,112.0,Windows,10,undefined,undefined,1536 x 864,1536 x 864
S019,19,Vrouwelijk,Rechts,5,46,left,no,250,leftarrow,433,true,focus,yes,1174301,Chrome,112.0,Windows,10,undefined,undefined,1536 x 864,1536 x 864
S019,19,Vrouwelijk,Rechts,5,47,right,no,250,rightarrow,515,true,focus,yes,1175584,Chrome,112.0,Windows,10,undefined,undefined,1536 x 864,1536 x 864
S019,19,Vrouwelijk,Rechts,5,48,right,no,250,rightarrow,570,true,focus,yes,1176937,Chrome,112.0,Windows,10,undefined,undefined,1536 x 864,1536 x 864
S019,19,Vrouwelijk,Rechts,5,49,right,no,250,rightarrow,341,true,focus,yes,1178058,Chrome,112.0,Windows,10,undefined,undefined,1536 x 864,1536 x 864
S019,19,Vrouwelijk,Rechts,5,50,left,yes,250,undefined,null,true,focus,yes,1180086,Chrome,112.0,Windows,10,undefined,undefined,1536 x 864,1536 x 864
S019,19,Vrouwelijk,Rechts,5,51,left,no,300,leftarrow,409,true,focus,yes,1181276,Chrome,112.0,Windows,10,undefined,undefined,1536 x 864,1536 x 864
S019,19,Vrouwelijk,Rechts,5,52,left,no,300,leftarrow,523,true,focus,yes,1182572,Chrome,112.0,Windows,10,undefined,undefined,1536 x 864,1536 x 864
S019,19,Vrouwelijk,Rechts,5,53,left,no,300,leftarrow,725,true,focus,yes,1184076,Chrome,112.0,Windows,10,undefined,undefined,1536 x 864,1536 x 864
S019,19,Vrouwelijk,Rechts,5,54,right,no,300,rightarrow,326,true,focus,yes,1185176,Chrome,112.0,Windows,10,undefined,undefined,1536 x 864,1536 x 864
S019,19,Vrouwelijk,Rechts,5,55,right,yes,300,rightarrow,429,false,focus,yes,1186379,Chrome,112.0,Windows,10,undefined,undefined,1536 x 864,1536 x 864
S019,19,Vrouwelijk,Rechts,5,56,right,no,250,rightarrow,635,true,focus,yes,1187785,Chrome,112.0,Windows,10,undefined,undefined,1536 x 864,1536 x 864
S019,19,Vrouwelijk,Rechts,5,57,right,no,250,rightarrow,371,true,focus,yes,1188939,Chrome,112.0,Windows,10,undefined,undefined,1536 x 864,1536 x 864
S019,19,Vrouwelijk,Rechts,5,58,right,no,250,rightarrow,325,true,focus,yes,1190042,Chrome,112.0,Windows,10,undefined,undefined,1536 x 864,1536 x 864
S019,19,Vrouwelijk,Rechts,5,59,left,yes,250,leftarrow,467,false,focus,yes,1191283,Chrome,112.0,Windows,10,undefined,undefined,1536 x 864,1536 x 864
S019,19,Vrouwelijk,Rechts,5,60,right,no,200,rightarrow,332,true,focus,yes,1192399,Chrome,112.0,Windows,10,undefined,undefined,1536 x 864,1536 x 864
S019,19,Vrouwelijk,Rechts,5,61,left,no,200,leftarrow,651,true,focus,yes,1193834,Chrome,112.0,Windows,10,undefined,undefined,1536 x 864,1536 x 864
S019,19,Vrouwelijk,Rechts,5,62,left,no,200,leftarrow,454,true,focus,yes,1195070,Chrome,112.0,Windows,10,undefined,undefined,1536 x 864,1536 x 864
S019,19,Vrouwelijk,Rechts,5,63,right,yes,200,undefined,null,true,focus,yes,1197103,Chrome,112.0,Windows,10,undefined,undefined,1536 x 864,1536 x 864
S019,19,Vrouwelijk,Rechts,5,64,left,no,250,leftarrow,395,true,focus,yes,1198278,Chrome,112.0,Windows,10,undefined,undefined,1536 x 864,1536 x 864
S019,19,Vrouwelijk,Rechts,5,65,left,no,250,leftarrow,561,true,focus,yes,1199611,Chrome,112.0,Windows,10,undefined,undefined,1536 x 864,1536 x 864
S019,19,Vrouwelijk,Rechts,5,66,left,no,250,leftarrow,581,true,focus,yes,1200963,Chrome,112.0,Windows,10,undefined,undefined,1536 x 864,1536 x 864
S019,19,Vrouwelijk,Rechts,5,67,right,yes,250,undefined,null,true,focus,yes,1202982,Chrome,112.0,Windows,10,undefined,undefined,1536 x 864,1536 x 864
S019,19,Vrouwelijk,Rechts,5,68,right,no,300,rightarrow,615,true,focus,yes,1204369,Chrome,112.0,Windows,10,undefined,undefined,1536 x 864,1536 x 864
S019,19,Vrouwelijk,Rechts,5,69,right,no,300,rightarrow,371,true,focus,yes,1205520,Chrome,112.0,Windows,10,undefined,undefined,1536 x 864,1536 x 864
S019,19,Vrouwelijk,Rechts,5,70,right,no,300,rightarrow,333,true,focus,yes,1206632,Chrome,112.0,Windows,10,undefined,undefined,1536 x 864,1536 x 864
S019,19,Vrouwelijk,Rechts,5,71,left,yes,300,undefined,null,true,focus,yes,1208676,Chrome,112.0,Windows,10,undefined,undefined,1536 x 864,1536 x 864
S019,19,Vrouwelijk,Rechts,5,72,left,no,350,leftarrow,463,true,focus,yes,1209912,Chrome,112.0,Windows,10,undefined,undefined,1536 x 864,1536 x 864
S019,19,Vrouwelijk,Rechts,5,73,right,yes,350,rightarrow,467,false,focus,yes,1211149,Chrome,112.0,Windows,10,undefined,undefined,1536 x 864,1536 x 864
S019,19,Vrouwelijk,Rechts,5,74,left,no,300,leftarrow,561,true,focus,yes,1212493,Chrome,112.0,Windows,10,undefined,undefined,1536 x 864,1536 x 864
S019,19,Vrouwelijk,Rechts,5,75,left,no,300,leftarrow,392,true,focus,yes,1213657,Chrome,112.0,Windows,10,undefined,undefined,1536 x 864,1536 x 864
S019,19,Vrouwelijk,Rechts,5,76,left,no,300,leftarrow,461,true,focus,yes,1214893,Chrome,112.0,Windows,10,undefined,undefined,1536 x 864,1536 x 864
S019,19,Vrouwelijk,Rechts,5,77,left,yes,300,leftarrow,453,false,focus,yes,1216108,Chrome,112.0,Windows,10,undefined,undefined,1536 x 864,1536 x 864
S019,19,Vrouwelijk,Rechts,5,78,right,no,250,rightarrow,523,true,focus,yes,1217405,Chrome,112.0,Windows,10,undefined,undefined,1536 x 864,1536 x 864
S019,19,Vrouwelijk,Rechts,5,79,right,no,250,rightarrow,330,true,focus,yes,1218511,Chrome,112.0,Windows,10,undefined,undefined,1536 x 864,1536 x 864
S019,19,Vrouwelijk,Rechts,5,80,right,no,250,rightarrow,323,true,focus,yes,1219604,Chrome,112.0,Windows,10,undefined,undefined,1536 x 864,1536 x 864
S019,19,Vrouwelijk,Rechts,5,81,right,no,250,rightarrow,305,true,focus,yes,1220673,Chrome,112.0,Windows,10,undefined,undefined,1536 x 864,1536 x 864
S019,19,Vrouwelijk,Rechts,5,82,left,no,250,leftarrow,511,true,focus,yes,1221959,Chrome,112.0,Windows,10,undefined,undefined,1536 x 864,1536 x 864
S019,19,Vrouwelijk,Rechts,5,83,right,no,250,rightarrow,399,true,focus,yes,1223131,Chrome,112.0,Windows,10,undefined,undefined,1536 x 864,1536 x 864
S019,19,Vrouwelijk,Rechts,5,84,left,no,250,leftarrow,414,true,focus,yes,1224318,Chrome,112.0,Windows,10,undefined,undefined,1536 x 864,1536 x 864
S019,19,Vrouwelijk,Rechts,5,85,left,yes,250,leftarrow,368,false,focus,yes,1225466,Chrome,112.0,Windows,10,undefined,undefined,1536 x 864,1536 x 864
S019,19,Vrouwelijk,Rechts,5,86,right,no,200,rightarrow,393,true,focus,yes,1226641,Chrome,112.0,Windows,10,undefined,undefined,1536 x 864,1536 x 864
S019,19,Vrouwelijk,Rechts,5,87,left,no,200,leftarrow,347,true,focus,yes,1227761,Chrome,112.0,Windows,10,undefined,undefined,1536 x 864,1536 x 864
S019,19,Vrouwelijk,Rechts,5,88,right,yes,200,rightarrow,331,false,focus,yes,1228862,Chrome,112.0,Windows,10,undefined,undefined,1536 x 864,1536 x 864
S019,19,Vrouwelijk,Rechts,5,89,right,no,150,rightarrow,417,true,focus,yes,1230048,Chrome,112.0,Windows,10,undefined,undefined,1536 x 864,1536 x 864
S019,19,Vrouwelijk,Rechts,5,90,left,no,150,leftarrow,638,true,focus,yes,1231469,Chrome,112.0,Windows,10,undefined,undefined,1536 x 864,1536 x 864
S019,19,Vrouwelijk,Rechts,5,91,left,no,150,leftarrow,552,true,focus,yes,1232785,Chrome,112.0,Windows,10,undefined,undefined,1536 x 864,1536 x 864
S019,19,Vrouwelijk,Rechts,5,92,right,yes,150,undefined,null,true,focus,yes,1234817,Chrome,112.0,Windows,10,undefined,undefined,1536 x 864,1536 x 864
S019,19,Vrouwelijk,Rechts,5,93,left,no,200,leftarrow,460,true,focus,yes,1236058,Chrome,112.0,Windows,10,undefined,undefined,1536 x 864,1536 x 864
S019,19,Vrouwelijk,Rechts,5,94,right,no,200,rightarrow,654,true,focus,yes,1237485,Chrome,112.0,Windows,10,undefined,undefined,1536 x 864,1536 x 864
S019,19,Vrouwelijk,Rechts,5,95,right,no,200,rightarrow,462,true,focus,yes,1238726,Chrome,112.0,Windows,10,undefined,undefined,1536 x 864,1536 x 864
S019,19,Vrouwelijk,Rechts,5,96,left,yes,200,leftarrow,384,false,focus,yes,1239881,Chrome,112.0,Windows,10,undefined,undefined,1536 x 864,1536 x 864
S019,19,Vrouwelijk,Rechts,5,97,right,yes,150,undefined,null,true,focus,yes,1241923,Chrome,112.0,Windows,10,undefined,undefined,1536 x 864,1536 x 864
S019,19,Vrouwelijk,Rechts,5,98,left,no,200,leftarrow,431,true,focus,yes,1243128,Chrome,112.0,Windows,10,undefined,undefined,1536 x 864,1536 x 864
S019,19,Vrouwelijk,Rechts,5,99,right,no,200,rightarrow,408,true,focus,yes,1244311,Chrome,112.0,Windows,10,undefined,undefined,1536 x 864,1536 x 864
S019,19,Vrouwelijk,Rechts,5,100,left,no,200,leftarrow,326,true,focus,yes,1245423,Chrome,112.0,Windows,10,undefined,undefined,1536 x 864,1536 x 864
S019,19,Vrouwelijk,Rechts,5,101,left,no,200,leftarrow,421,true,focus,yes,1246618,Chrome,112.0,Windows,10,undefined,undefined,1536 x 864,1536 x 864
S019,19,Vrouwelijk,Rechts,5,102,right,no,200,rightarrow,404,true,focus,yes,1247801,Chrome,112.0,Windows,10,undefined,undefined,1536 x 864,1536 x 864
S019,19,Vrouwelijk,Rechts,5,103,right,no,200,rightarrow,475,true,focus,yes,1249056,Chrome,112.0,Windows,10,undefined,undefined,1536 x 864,1536 x 864
S019,19,Vrouwelijk,Rechts,5,104,left,yes,200,leftarrow,384,false,focus,yes,1250215,Chrome,112.0,Windows,10,undefined,undefined,1536 x 864,1536 x 864
S019,19,Vrouwelijk,Rechts,5,105,left,no,150,leftarrow,410,true,focus,yes,1251406,Chrome,112.0,Windows,10,undefined,undefined,1536 x 864,1536 x 864
S019,19,Vrouwelijk,Rechts,5,106,left,no,150,leftarrow,389,true,focus,yes,1252568,Chrome,112.0,Windows,10,undefined,undefined,1536 x 864,1536 x 864
S019,19,Vrouwelijk,Rechts,5,107,left,no,150,leftarrow,359,true,focus,yes,1253705,Chrome,112.0,Windows,10,undefined,undefined,1536 x 864,1536 x 864
S019,19,Vrouwelijk,Rechts,5,108,right,no,150,leftarrow,298,false,focus,yes,1254777,Chrome,112.0,Windows,10,undefined,undefined,1536 x 864,1536 x 864
S019,19,Vrouwelijk,Rechts,5,109,right,no,150,rightarrow,573,true,focus,yes,1256136,Chrome,112.0,Windows,10,undefined,undefined,1536 x 864,1536 x 864
S019,19,Vrouwelijk,Rechts,5,110,right,no,150,rightarrow,376,true,focus,yes,1257289,Chrome,112.0,Windows,10,undefined,undefined,1536 x 864,1536 x 864
S019,19,Vrouwelijk,Rechts,5,111,right,yes,150,undefined,null,true,focus,yes,1259323,Chrome,112.0,Windows,10,undefined,undefined,1536 x 864,1536 x 864
S019,19,Vrouwelijk,Rechts,5,112,left,yes,200,undefined,null,true,focus,yes,1261367,Chrome,112.0,Windows,10,undefined,undefined,1536 x 864,1536 x 864
S019,19,Vrouwelijk,Rechts,5,113,left,no,250,leftarrow,483,true,focus,yes,1262621,Chrome,112.0,Windows,10,undefined,undefined,1536 x 864,1536 x 864
S019,19,Vrouwelijk,Rechts,5,114,right,no,250,rightarrow,449,true,focus,yes,1263854,Chrome,112.0,Windows,10,undefined,undefined,1536 x 864,1536 x 864
S019,19,Vrouwelijk,Rechts,5,115,right,yes,250,rightarrow,392,false,focus,yes,1265030,Chrome,112.0,Windows,10,undefined,undefined,1536 x 864,1536 x 864
S019,19,Vrouwelijk,Rechts,5,116,right,no,200,rightarrow,857,true,focus,yes,1266663,Chrome,112.0,Windows,10,undefined,undefined,1536 x 864,1536 x 864
S019,19,Vrouwelijk,Rechts,5,117,left,yes,200,undefined,null,true,focus,yes,1268690,Chrome,112.0,Windows,10,undefined,undefined,1536 x 864,1536 x 864
S019,19,Vrouwelijk,Rechts,5,118,right,no,250,rightarrow,357,true,focus,yes,1269828,Chrome,112.0,Windows,10,undefined,undefined,1536 x 864,1536 x 864
S019,19,Vrouwelijk,Rechts,5,119,left,no,250,leftarrow,450,true,focus,yes,1271054,Chrome,112.0,Windows,10,undefined,undefined,1536 x 864,1536 x 864
S019,19,Vrouwelijk,Rechts,5,120,left,no,250,leftarrow,451,true,focus,yes,1272289,Chrome,112.0,Windows,10,undefined,undefined,1536 x 864,1536 x 864
S019,19,Vrouwelijk,Rechts,5,121,left,no,250,leftarrow,484,true,focus,yes,1273555,Chrome,112.0,Windows,10,undefined,undefined,1536 x 864,1536 x 864
S019,19,Vrouwelijk,Rechts,5,122,right,yes,250,undefined,null,true,focus,yes,1275572,Chrome,112.0,Windows,10,undefined,undefined,1536 x 864,1536 x 864
S019,19,Vrouwelijk,Rechts,5,123,right,no,300,rightarrow,478,true,focus,yes,1276832,Chrome,112.0,Windows,10,undefined,undefined,1536 x 864,1536 x 864
S019,19,Vrouwelijk,Rechts,5,124,left,no,300,leftarrow,414,true,focus,yes,1278018,Chrome,112.0,Windows,10,undefined,undefined,1536 x 864,1536 x 864
S019,19,Vrouwelijk,Rechts,5,125,right,no,300,rightarrow,389,true,focus,yes,1279194,Chrome,112.0,Windows,10,undefined,undefined,1536 x 864,1536 x 864
S019,19,Vrouwelijk,Rechts,5,126,left,yes,300,leftarrow,350,false,focus,yes,1280320,Chrome,112.0,Windows,10,undefined,undefined,1536 x 864,1536 x 864
S019,19,Vrouwelijk,Rechts,5,127,left,no,250,leftarrow,572,true,focus,yes,1281665,Chrome,112.0,Windows,10,undefined,undefined,1536 x 864,1536 x 864
S019,19,Vrouwelijk,Rechts,5,128,right,no,250,rightarrow,720,true,focus,yes,1283147,Chrome,112.0,Windows,10,undefined,undefined,1536 x 864,1536 x 864
S019,19,Vrouwelijk,Rechts,6,1,right,no,250,rightarrow,543,true,focus,yes,1302000,Chrome,112.0,Windows,10,undefined,undefined,1536 x 864,1536 x 864
S019,19,Vrouwelijk,Rechts,6,2,right,no,250,rightarrow,330,true,focus,yes,1303116,Chrome,112.0,Windows,10,undefined,undefined,1536 x 864,1536 x 864
S019,19,Vrouwelijk,Rechts,6,3,left,no,250,leftarrow,575,true,focus,yes,1304462,Chrome,112.0,Windows,10,undefined,undefined,1536 x 864,1536 x 864
S019,19,Vrouwelijk,Rechts,6,4,right,no,250,rightarrow,385,true,focus,yes,1305622,Chrome,112.0,Windows,10,undefined,undefined,1536 x 864,1536 x 864
S019,19,Vrouwelijk,Rechts,6,5,right,yes,250,rightarrow,418,false,focus,yes,1306820,Chrome,112.0,Windows,10,undefined,undefined,1536 x 864,1536 x 864
S019,19,Vrouwelijk,Rechts,6,6,left,no,200,leftarrow,644,true,focus,yes,1308243,Chrome,112.0,Windows,10,undefined,undefined,1536 x 864,1536 x 864
S019,19,Vrouwelijk,Rechts,6,7,left,no,200,leftarrow,406,true,focus,yes,1309414,Chrome,112.0,Windows,10,undefined,undefined,1536 x 864,1536 x 864
S019,19,Vrouwelijk,Rechts,6,8,left,yes,200,leftarrow,359,false,focus,yes,1310536,Chrome,112.0,Windows,10,undefined,undefined,1536 x 864,1536 x 864
S019,19,Vrouwelijk,Rechts,6,9,right,no,150,rightarrow,620,true,focus,yes,1311938,Chrome,112.0,Windows,10,undefined,undefined,1536 x 864,1536 x 864
S019,19,Vrouwelijk,Rechts,6,10,right,yes,150,rightarrow,664,false,focus,yes,1313384,Chrome,112.0,Windows,10,undefined,undefined,1536 x 864,1536 x 864
S019,19,Vrouwelijk,Rechts,6,11,right,no,100,rightarrow,650,true,focus,yes,1314803,Chrome,112.0,Windows,10,undefined,undefined,1536 x 864,1536 x 864
S019,19,Vrouwelijk,Rechts,6,12,left,yes,100,undefined,null,true,focus,yes,1316826,Chrome,112.0,Windows,10,undefined,undefined,1536 x 864,1536 x 864
S019,19,Vrouwelijk,Rechts,6,13,left,no,150,leftarrow,487,true,focus,yes,1318096,Chrome,112.0,Windows,10,undefined,undefined,1536 x 864,1536 x 864
S019,19,Vrouwelijk,Rechts,6,14,left,no,150,leftarrow,443,true,focus,yes,1319318,Chrome,112.0,Windows,10,undefined,undefined,1536 x 864,1536 x 864
S019,19,Vrouwelijk,Rechts,6,15,left,no,150,leftarrow,403,true,focus,yes,1320495,Chrome,112.0,Windows,10,undefined,undefined,1536 x 864,1536 x 864
S019,19,Vrouwelijk,Rechts,6,16,right,no,150,rightarrow,408,true,focus,yes,1321684,Chrome,112.0,Windows,10,undefined,undefined,1536 x 864,1536 x 864
S019,19,Vrouwelijk,Rechts,6,17,right,no,150,rightarrow,394,true,focus,yes,1322852,Chrome,112.0,Windows,10,undefined,undefined,1536 x 864,1536 x 864
S019,19,Vrouwelijk,Rechts,6,18,left,yes,150,undefined,null,true,focus,yes,1324888,Chrome,112.0,Windows,10,undefined,undefined,1536 x 864,1536 x 864
S019,19,Vrouwelijk,Rechts,6,19,right,no,200,rightarrow,467,true,focus,yes,1326125,Chrome,112.0,Windows,10,undefined,undefined,1536 x 864,1536 x 864
S019,19,Vrouwelijk,Rechts,6,20,right,yes,200,rightarrow,381,false,focus,yes,1327291,Chrome,112.0,Windows,10,undefined,undefined,1536 x 864,1536 x 864
S019,19,Vrouwelijk,Rechts,6,21,left,no,150,leftarrow,605,true,focus,yes,1328680,Chrome,112.0,Windows,10,undefined,undefined,1536 x 864,1536 x 864
S019,19,Vrouwelijk,Rechts,6,22,left,no,150,leftarrow,358,true,focus,yes,1329816,Chrome,112.0,Windows,10,undefined,undefined,1536 x 864,1536 x 864
S019,19,Vrouwelijk,Rechts,6,23,right,no,150,rightarrow,352,true,focus,yes,1330944,Chrome,112.0,Windows,10,undefined,undefined,1536 x 864,1536 x 864
S019,19,Vrouwelijk,Rechts,6,24,left,no,150,leftarrow,365,true,focus,yes,1332092,Chrome,112.0,Windows,10,undefined,undefined,1536 x 864,1536 x 864
S019,19,Vrouwelijk,Rechts,6,25,left,no,150,leftarrow,328,true,focus,yes,1333203,Chrome,112.0,Windows,10,undefined,undefined,1536 x 864,1536 x 864
S019,19,Vrouwelijk,Rechts,6,26,right,yes,150,undefined,null,true,focus,yes,1335229,Chrome,112.0,Windows,10,undefined,undefined,1536 x 864,1536 x 864
S019,19,Vrouwelijk,Rechts,6,27,left,no,200,leftarrow,451,true,focus,yes,1336459,Chrome,112.0,Windows,10,undefined,undefined,1536 x 864,1536 x 864
S019,19,Vrouwelijk,Rechts,6,28,right,no,200,rightarrow,366,true,focus,yes,1337607,Chrome,112.0,Windows,10,undefined,undefined,1536 x 864,1536 x 864
S019,19,Vrouwelijk,Rechts,6,29,right,no,200,rightarrow,361,true,focus,yes,1338753,Chrome,112.0,Windows,10,undefined,undefined,1536 x 864,1536 x 864
S019,19,Vrouwelijk,Rechts,6,30,left,yes,200,leftarrow,408,false,focus,yes,1339932,Chrome,112.0,Windows,10,undefined,undefined,1536 x 864,1536 x 864
S019,19,Vrouwelijk,Rechts,6,34,left,yes,150,undefined,null,true,focus,yes,1345643,Chrome,112.0,Windows,10,undefined,undefined,1536 x 864,1536 x 864
