participantID;age;gender;handedness;block_i;trial_i;stim;signal;SSD;response;rt;correct;focus;Fullscreen;time_elapsed;browser_name;browser_version;os_name;os_version;tablet;mobile;screen_resolution;window_resolution
H042;27;Mannelijk;Rechts;0;1;right;no;200;rightarrow;493;true;focus;yes;380899;Chrome;112.0;macOS;10.15.7;undefined;undefined;2560 x 1440;2560 x 1440
H042;27;Mannelijk;Rechts;0;2;left;no;200;leftarrow;405;true;focus;yes;382833;Chrome;112.0;macOS;10.15.7;undefined;undefined;2560 x 1440;2560 x 1440
H042;27;Mannelijk;Rechts;0;3;right;no;200;rightarrow;382;true;focus;yes;384746;Chrome;112.0;macOS;10.15.7;undefined;undefined;2560 x 1440;2560 x 1440
H042;27;Mannelijk;Rechts;0;4;right;no;200;rightarrow;413;true;focus;yes;386680;Chrome;112.0;macOS;10.15.7;undefined;undefined;2560 x 1440;2560 x 1440
H042;27;Mannelijk;Rechts;0;5;left;yes;200;leftarrow;371;false;focus;yes;388572;Chrome;112.0;macOS;10.15.7;undefined;undefined;2560 x 1440;2560 x 1440
H042;27;Mannelijk;Rechts;0;6;left;no;150;leftarrow;360;true;focus;yes;390460;Chrome;112.0;macOS;10.15.7;undefined;undefined;2560 x 1440;2560 x 1440
H042;27;Mannelijk;Rechts;0;7;right;yes;150;rightarrow;322;false;focus;yes;392305;Chrome;112.0;macOS;10.15.7;undefined;undefined;2560 x 1440;2560 x 1440
H042;27;Mannelijk;Rechts;0;8;left;no;100;leftarrow;362;true;focus;yes;394196;Chrome;112.0;macOS;10.15.7;undefined;undefined;2560 x 1440;2560 x 1440
H042;27;Mannelijk;Rechts;1;1;right;no;100;rightarrow;363;true;focus;yes;414423;Chrome;112.0;macOS;10.15.7;undefined;undefined;2560 x 1440;2560 x 1440
H042;27;Mannelijk;Rechts;1;2;right;no;100;rightarrow;681;true;focus;yes;415885;Chrome;112.0;macOS;10.15.7;undefined;undefined;2560 x 1440;2560 x 1440
H042;27;Mannelijk;Rechts;1;3;left;no;100;leftarrow;376;true;focus;yes;417032;Chrome;112.0;macOS;10.15.7;undefined;undefined;2560 x 1440;2560 x 1440
H042;27;Mannelijk;Rechts;1;4;left;no;100;leftarrow;381;true;focus;yes;418181;Chrome;112.0;macOS;10.15.7;undefined;undefined;2560 x 1440;2560 x 1440
H042;27;Mannelijk;Rechts;1;5;right;yes;100;rightarrow;453;false;focus;yes;419407;Chrome;112.0;macOS;10.15.7;undefined;undefined;2560 x 1440;2560 x 1440
H042;27;Mannelijk;Rechts;1;6;left;yes;50;undefined;null;true;focus;yes;421441;Chrome;112.0;macOS;10.15.7;undefined;undefined;2560 x 1440;2560 x 1440
H042;27;Mannelijk;Rechts;1;7;left;no;100;leftarrow;447;true;focus;yes;422658;Chrome;112.0;macOS;10.15.7;undefined;undefined;2560 x 1440;2560 x 1440
H042;27;Mannelijk;Rechts;1;8;right;no;100;rightarrow;453;true;focus;yes;423873;Chrome;112.0;macOS;10.15.7;undefined;undefined;2560 x 1440;2560 x 1440
H042;27;Mannelijk;Rechts;1;9;left;no;100;leftarrow;516;true;focus;yes;425156;Chrome;112.0;macOS;10.15.7;undefined;undefined;2560 x 1440;2560 x 1440
H042;27;Mannelijk;Rechts;1;10;right;no;100;rightarrow;430;true;focus;yes;426349;Chrome;112.0;macOS;10.15.7;undefined;undefined;2560 x 1440;2560 x 1440
H042;27;Mannelijk;Rechts;1;11;left;yes;100;leftarrow;343;false;focus;yes;427450;Chrome;112.0;macOS;10.15.7;undefined;undefined;2560 x 1440;2560 x 1440
H042;27;Mannelijk;Rechts;1;12;right;no;50;rightarrow;409;true;focus;yes;428620;Chrome;112.0;macOS;10.15.7;undefined;undefined;2560 x 1440;2560 x 1440
H042;27;Mannelijk;Rechts;1;13;right;no;50;rightarrow;429;true;focus;yes;429813;Chrome;112.0;macOS;10.15.7;undefined;undefined;2560 x 1440;2560 x 1440
H042;27;Mannelijk;Rechts;1;14;left;no;50;leftarrow;385;true;focus;yes;430961;Chrome;112.0;macOS;10.15.7;undefined;undefined;2560 x 1440;2560 x 1440
H042;27;Mannelijk;Rechts;1;15;left;no;50;leftarrow;426;true;focus;yes;432153;Chrome;112.0;macOS;10.15.7;undefined;undefined;2560 x 1440;2560 x 1440
H042;27;Mannelijk;Rechts;1;16;right;yes;50;undefined;null;true;focus;yes;434174;Chrome;112.0;macOS;10.15.7;undefined;undefined;2560 x 1440;2560 x 1440
H042;27;Mannelijk;Rechts;1;17;right;no;100;rightarrow;608;true;focus;yes;435551;Chrome;112.0;macOS;10.15.7;undefined;undefined;2560 x 1440;2560 x 1440
H042;27;Mannelijk;Rechts;1;18;right;no;100;rightarrow;398;true;focus;yes;436721;Chrome;112.0;macOS;10.15.7;undefined;undefined;2560 x 1440;2560 x 1440
H042;27;Mannelijk;Rechts;1;19;left;yes;100;undefined;null;true;focus;yes;438743;Chrome;112.0;macOS;10.15.7;undefined;undefined;2560 x 1440;2560 x 1440
H042;27;Mannelijk;Rechts;1;20;right;no;150;rightarrow;366;true;focus;yes;439892;Chrome;112.0;macOS;10.15.7;undefined;undefined;2560 x 1440;2560 x 1440
H042;27;Mannelijk;Rechts;1;21;left;no;150;leftarrow;384;true;focus;yes;441041;Chrome;112.0;macOS;10.15.7;undefined;undefined;2560 x 1440;2560 x 1440
H042;27;Mannelijk;Rechts;1;22;left;no;150;leftarrow;403;true;focus;yes;442210;Chrome;112.0;macOS;10.15.7;undefined;undefined;2560 x 1440;2560 x 1440
H042;27;Mannelijk;Rechts;1;23;right;yes;150;undefined;null;true;focus;yes;444231;Chrome;112.0;macOS;10.15.7;undefined;undefined;2560 x 1440;2560 x 1440
H042;27;Mannelijk;Rechts;1;24;left;no;200;leftarrow;330;true;focus;yes;445338;Chrome;112.0;macOS;10.15.7;undefined;undefined;2560 x 1440;2560 x 1440
H042;27;Mannelijk;Rechts;1;25;left;no;200;leftarrow;404;true;focus;yes;446508;Chrome;112.0;macOS;10.15.7;undefined;undefined;2560 x 1440;2560 x 1440
H042;27;Mannelijk;Rechts;1;26;right;no;200;rightarrow;462;true;focus;yes;447745;Chrome;112.0;macOS;10.15.7;undefined;undefined;2560 x 1440;2560 x 1440
H042;27;Mannelijk;Rechts;1;27;right;no;200;rightarrow;474;true;focus;yes;448983;Chrome;112.0;macOS;10.15.7;undefined;undefined;2560 x 1440;2560 x 1440
H042;27;Mannelijk;Rechts;1;28;right;no;200;rightarrow;357;true;focus;yes;450109;Chrome;112.0;macOS;10.15.7;undefined;undefined;2560 x 1440;2560 x 1440
H042;27;Mannelijk;Rechts;1;29;left;no;200;leftarrow;349;true;focus;yes;451233;Chrome;112.0;macOS;10.15.7;undefined;undefined;2560 x 1440;2560 x 1440
H042;27;Mannelijk;Rechts;1;30;left;no;200;leftarrow;380;true;focus;yes;452380;Chrome;112.0;macOS;10.15.7;undefined;undefined;2560 x 1440;2560 x 1440
H042;27;Mannelijk;Rechts;1;31;left;yes;200;leftarrow;381;false;focus;yes;453526;Chrome;112.0;macOS;10.15.7;undefined;undefined;2560 x 1440;2560 x 1440
H042;27;Mannelijk;Rechts;1;32;right;yes;150;rightarrow;389;false;focus;yes;454676;Chrome;112.0;macOS;10.15.7;undefined;undefined;2560 x 1440;2560 x 1440
H042;27;Mannelijk;Rechts;1;33;left;yes;100;undefined;null;true;focus;yes;456694;Chrome;112.0;macOS;10.15.7;undefined;undefined;2560 x 1440;2560 x 1440
H042;27;Mannelijk;Rechts;1;34;left;no;150;leftarrow;385;true;focus;yes;457848;Chrome;112.0;macOS;10.15.7;undefined;undefined;2560 x 1440;2560 x 1440
H042;27;Mannelijk;Rechts;1;35;right;yes;150;undefined;null;true;focus;yes;459873;Chrome;112.0;macOS;10.15.7;undefined;undefined;2560 x 1440;2560 x 1440
H042;27;Mannelijk;Rechts;1;36;left;no;200;leftarrow;359;true;focus;yes;461010;Chrome;112.0;macOS;10.15.7;undefined;undefined;2560 x 1440;2560 x 1440
H042;27;Mannelijk;Rechts;1;37;left;no;200;leftarrow;460;true;focus;yes;462235;Chrome;112.0;macOS;10.15.7;undefined;undefined;2560 x 1440;2560 x 1440
H042;27;Mannelijk;Rechts;1;38;right;no;200;rightarrow;419;true;focus;yes;463427;Chrome;112.0;macOS;10.15.7;undefined;undefined;2560 x 1440;2560 x 1440
H042;27;Mannelijk;Rechts;1;39;right;no;200;rightarrow;432;true;focus;yes;464620;Chrome;112.0;macOS;10.15.7;undefined;undefined;2560 x 1440;2560 x 1440
H042;27;Mannelijk;Rechts;1;40;right;no;200;rightarrow;385;true;focus;yes;465768;Chrome;112.0;macOS;10.15.7;undefined;undefined;2560 x 1440;2560 x 1440
H042;27;Mannelijk;Rechts;1;41;left;no;200;leftarrow;335;true;focus;yes;466871;Chrome;112.0;macOS;10.15.7;undefined;undefined;2560 x 1440;2560 x 1440
H042;27;Mannelijk;Rechts;1;42;right;no;200;rightarrow;389;true;focus;yes;468041;Chrome;112.0;macOS;10.15.7;undefined;undefined;2560 x 1440;2560 x 1440
H042;27;Mannelijk;Rechts;1;43;right;no;200;rightarrow;515;true;focus;yes;469323;Chrome;112.0;macOS;10.15.7;undefined;undefined;2560 x 1440;2560 x 1440
H042;27;Mannelijk;Rechts;1;44;right;no;200;rightarrow;361;true;focus;yes;470448;Chrome;112.0;macOS;10.15.7;undefined;undefined;2560 x 1440;2560 x 1440
H042;27;Mannelijk;Rechts;1;45;left;no;200;leftarrow;378;true;focus;yes;471594;Chrome;112.0;macOS;10.15.7;undefined;undefined;2560 x 1440;2560 x 1440
H042;27;Mannelijk;Rechts;1;46;left;no;200;leftarrow;352;true;focus;yes;472720;Chrome;112.0;macOS;10.15.7;undefined;undefined;2560 x 1440;2560 x 1440
H042;27;Mannelijk;Rechts;1;47;left;yes;200;leftarrow;354;false;focus;yes;473846;Chrome;112.0;macOS;10.15.7;undefined;undefined;2560 x 1440;2560 x 1440
H042;27;Mannelijk;Rechts;1;48;right;yes;150;rightarrow;409;false;focus;yes;475017;Chrome;112.0;macOS;10.15.7;undefined;undefined;2560 x 1440;2560 x 1440
H042;27;Mannelijk;Rechts;1;49;left;no;100;leftarrow;460;true;focus;yes;476253;Chrome;112.0;macOS;10.15.7;undefined;undefined;2560 x 1440;2560 x 1440
H042;27;Mannelijk;Rechts;1;50;right;no;100;rightarrow;455;true;focus;yes;477467;Chrome;112.0;macOS;10.15.7;undefined;undefined;2560 x 1440;2560 x 1440
H042;27;Mannelijk;Rechts;1;51;left;no;100;leftarrow;387;true;focus;yes;478615;Chrome;112.0;macOS;10.15.7;undefined;undefined;2560 x 1440;2560 x 1440
H042;27;Mannelijk;Rechts;1;52;right;no;100;rightarrow;477;true;focus;yes;479853;Chrome;112.0;macOS;10.15.7;undefined;undefined;2560 x 1440;2560 x 1440
H042;27;Mannelijk;Rechts;1;53;left;no;100;leftarrow;452;true;focus;yes;481068;Chrome;112.0;macOS;10.15.7;undefined;undefined;2560 x 1440;2560 x 1440
H042;27;Mannelijk;Rechts;1;54;left;yes;100;undefined;null;true;focus;yes;483089;Chrome;112.0;macOS;10.15.7;undefined;undefined;2560 x 1440;2560 x 1440
H042;27;Mannelijk;Rechts;1;55;right;yes;150;rightarrow;363;false;focus;yes;484218;Chrome;112.0;macOS;10.15.7;undefined;undefined;2560 x 1440;2560 x 1440
H042;27;Mannelijk;Rechts;1;56;right;no;100;rightarrow;426;true;focus;yes;485411;Chrome;112.0;macOS;10.15.7;undefined;undefined;2560 x 1440;2560 x 1440
H042;27;Mannelijk;Rechts;1;57;left;no;100;leftarrow;561;true;focus;yes;486738;Chrome;112.0;macOS;10.15.7;undefined;undefined;2560 x 1440;2560 x 1440
H042;27;Mannelijk;Rechts;1;58;right;no;100;rightarrow;449;true;focus;yes;487953;Chrome;112.0;macOS;10.15.7;undefined;undefined;2560 x 1440;2560 x 1440
H042;27;Mannelijk;Rechts;1;59;right;no;100;rightarrow;426;true;focus;yes;489147;Chrome;112.0;macOS;10.15.7;undefined;undefined;2560 x 1440;2560 x 1440
H042;27;Mannelijk;Rechts;1;60;right;yes;100;undefined;null;true;focus;yes;491180;Chrome;112.0;macOS;10.15.7;undefined;undefined;2560 x 1440;2560 x 1440
H042;27;Mannelijk;Rechts;1;61;right;no;150;leftarrow;369;false;focus;yes;492318;Chrome;112.0;macOS;10.15.7;undefined;undefined;2560 x 1440;2560 x 1440
H042;27;Mannelijk;Rechts;1;62;left;no;150;leftarrow;353;true;focus;yes;493443;Chrome;112.0;macOS;10.15.7;undefined;undefined;2560 x 1440;2560 x 1440
H042;27;Mannelijk;Rechts;1;63;left;no;150;leftarrow;427;true;focus;yes;494635;Chrome;112.0;macOS;10.15.7;undefined;undefined;2560 x 1440;2560 x 1440
H042;27;Mannelijk;Rechts;1;64;left;yes;150;leftarrow;405;false;focus;yes;495805;Chrome;112.0;macOS;10.15.7;undefined;undefined;2560 x 1440;2560 x 1440
H042;27;Mannelijk;Rechts;1;65;left;no;100;leftarrow;542;true;focus;yes;497111;Chrome;112.0;macOS;10.15.7;undefined;undefined;2560 x 1440;2560 x 1440
H042;27;Mannelijk;Rechts;1;66;right;no;100;rightarrow;511;true;focus;yes;498394;Chrome;112.0;macOS;10.15.7;undefined;undefined;2560 x 1440;2560 x 1440
H042;27;Mannelijk;Rechts;1;67;right;no;100;rightarrow;437;true;focus;yes;499608;Chrome;112.0;macOS;10.15.7;undefined;undefined;2560 x 1440;2560 x 1440
H042;27;Mannelijk;Rechts;1;68;right;no;100;rightarrow;385;true;focus;yes;500755;Chrome;112.0;macOS;10.15.7;undefined;undefined;2560 x 1440;2560 x 1440
H042;27;Mannelijk;Rechts;1;69;left;no;100;leftarrow;449;true;focus;yes;501970;Chrome;112.0;macOS;10.15.7;undefined;undefined;2560 x 1440;2560 x 1440
H042;27;Mannelijk;Rechts;1;70;right;yes;100;undefined;null;true;focus;yes;503997;Chrome;112.0;macOS;10.15.7;undefined;undefined;2560 x 1440;2560 x 1440
H042;27;Mannelijk;Rechts;1;71;left;yes;150;leftarrow;381;false;focus;yes;505144;Chrome;112.0;macOS;10.15.7;undefined;undefined;2560 x 1440;2560 x 1440
H042;27;Mannelijk;Rechts;1;72;left;no;100;leftarrow;378;true;focus;yes;506290;Chrome;112.0;macOS;10.15.7;undefined;undefined;2560 x 1440;2560 x 1440
H042;27;Mannelijk;Rechts;1;73;left;no;100;leftarrow;427;true;focus;yes;507483;Chrome;112.0;macOS;10.15.7;undefined;undefined;2560 x 1440;2560 x 1440
H042;27;Mannelijk;Rechts;1;74;right;no;100;rightarrow;494;true;focus;yes;508743;Chrome;112.0;macOS;10.15.7;undefined;undefined;2560 x 1440;2560 x 1440
H042;27;Mannelijk;Rechts;1;75;right;no;100;rightarrow;422;true;focus;yes;509936;Chrome;112.0;macOS;10.15.7;undefined;undefined;2560 x 1440;2560 x 1440
H042;27;Mannelijk;Rechts;1;76;left;no;100;leftarrow;423;true;focus;yes;511127;Chrome;112.0;macOS;10.15.7;undefined;undefined;2560 x 1440;2560 x 1440
H042;27;Mannelijk;Rechts;1;77;right;no;100;rightarrow;408;true;focus;yes;512298;Chrome;112.0;macOS;10.15.7;undefined;undefined;2560 x 1440;2560 x 1440
H042;27;Mannelijk;Rechts;1;78;left;no;100;leftarrow;336;true;focus;yes;513401;Chrome;112.0;macOS;10.15.7;undefined;undefined;2560 x 1440;2560 x 1440
H042;27;Mannelijk;Rechts;1;79;right;yes;100;rightarrow;404;false;focus;yes;514571;Chrome;112.0;macOS;10.15.7;undefined;undefined;2560 x 1440;2560 x 1440
H042;27;Mannelijk;Rechts;1;80;left;yes;50;undefined;null;true;focus;yes;516589;Chrome;112.0;macOS;10.15.7;undefined;undefined;2560 x 1440;2560 x 1440
H042;27;Mannelijk;Rechts;1;81;right;no;100;rightarrow;357;true;focus;yes;517721;Chrome;112.0;macOS;10.15.7;undefined;undefined;2560 x 1440;2560 x 1440
H042;27;Mannelijk;Rechts;1;82;left;no;100;leftarrow;429;true;focus;yes;518913;Chrome;112.0;macOS;10.15.7;undefined;undefined;2560 x 1440;2560 x 1440
H042;27;Mannelijk;Rechts;1;83;left;no;100;leftarrow;439;true;focus;yes;520129;Chrome;112.0;macOS;10.15.7;undefined;undefined;2560 x 1440;2560 x 1440
H042;27;Mannelijk;Rechts;1;84;right;no;100;rightarrow;423;true;focus;yes;521321;Chrome;112.0;macOS;10.15.7;undefined;undefined;2560 x 1440;2560 x 1440
H042;27;Mannelijk;Rechts;1;85;right;yes;100;undefined;null;true;focus;yes;523351;Chrome;112.0;macOS;10.15.7;undefined;undefined;2560 x 1440;2560 x 1440
H042;27;Mannelijk;Rechts;1;86;left;no;150;leftarrow;346;true;focus;yes;524470;Chrome;112.0;macOS;10.15.7;undefined;undefined;2560 x 1440;2560 x 1440
H042;27;Mannelijk;Rechts;1;87;left;yes;150;leftarrow;364;false;focus;yes;525596;Chrome;112.0;macOS;10.15.7;undefined;undefined;2560 x 1440;2560 x 1440
H042;27;Mannelijk;Rechts;1;88;right;no;100;rightarrow;471;true;focus;yes;526833;Chrome;112.0;macOS;10.15.7;undefined;undefined;2560 x 1440;2560 x 1440
H042;27;Mannelijk;Rechts;1;89;left;yes;100;undefined;null;true;focus;yes;528854;Chrome;112.0;macOS;10.15.7;undefined;undefined;2560 x 1440;2560 x 1440
H042;27;Mannelijk;Rechts;1;90;right;yes;150;rightarrow;372;false;focus;yes;530006;Chrome;112.0;macOS;10.15.7;undefined;undefined;2560 x 1440;2560 x 1440
H042;27;Mannelijk;Rechts;1;91;right;no;100;rightarrow;384;true;focus;yes;531153;Chrome;112.0;macOS;10.15.7;undefined;undefined;2560 x 1440;2560 x 1440
H042;27;Mannelijk;Rechts;1;92;left;no;100;leftarrow;381;true;focus;yes;532301;Chrome;112.0;macOS;10.15.7;undefined;undefined;2560 x 1440;2560 x 1440
H042;27;Mannelijk;Rechts;1;93;left;no;100;leftarrow;406;true;focus;yes;533471;Chrome;112.0;macOS;10.15.7;undefined;undefined;2560 x 1440;2560 x 1440
H042;27;Mannelijk;Rechts;1;94;right;no;100;rightarrow;399;true;focus;yes;534641;Chrome;112.0;macOS;10.15.7;undefined;undefined;2560 x 1440;2560 x 1440
H042;27;Mannelijk;Rechts;1;95;right;no;100;rightarrow;384;true;focus;yes;535788;Chrome;112.0;macOS;10.15.7;undefined;undefined;2560 x 1440;2560 x 1440
H042;27;Mannelijk;Rechts;1;96;left;no;100;leftarrow;455;true;focus;yes;537003;Chrome;112.0;macOS;10.15.7;undefined;undefined;2560 x 1440;2560 x 1440
H042;27;Mannelijk;Rechts;1;97;right;no;100;rightarrow;449;true;focus;yes;538218;Chrome;112.0;macOS;10.15.7;undefined;undefined;2560 x 1440;2560 x 1440
H042;27;Mannelijk;Rechts;1;98;right;no;100;rightarrow;402;true;focus;yes;539388;Chrome;112.0;macOS;10.15.7;undefined;undefined;2560 x 1440;2560 x 1440
H042;27;Mannelijk;Rechts;1;99;left;no;100;leftarrow;361;true;focus;yes;540513;Chrome;112.0;macOS;10.15.7;undefined;undefined;2560 x 1440;2560 x 1440
H042;27;Mannelijk;Rechts;1;100;right;no;100;rightarrow;368;true;focus;yes;541660;Chrome;112.0;macOS;10.15.7;undefined;undefined;2560 x 1440;2560 x 1440
H042;27;Mannelijk;Rechts;1;101;left;yes;100;leftarrow;353;false;focus;yes;542786;Chrome;112.0;macOS;10.15.7;undefined;undefined;2560 x 1440;2560 x 1440
H042;27;Mannelijk;Rechts;1;102;left;no;50;leftarrow;381;true;focus;yes;543933;Chrome;112.0;macOS;10.15.7;undefined;undefined;2560 x 1440;2560 x 1440
H042;27;Mannelijk;Rechts;1;103;right;yes;50;undefined;null;true;focus;yes;545949;Chrome;112.0;macOS;10.15.7;undefined;undefined;2560 x 1440;2560 x 1440
H042;27;Mannelijk;Rechts;1;104;left;no;100;leftarrow;340;true;focus;yes;547061;Chrome;112.0;macOS;10.15.7;undefined;undefined;2560 x 1440;2560 x 1440
H042;27;Mannelijk;Rechts;1;105;right;no;100;rightarrow;451;true;focus;yes;548275;Chrome;112.0;macOS;10.15.7;undefined;undefined;2560 x 1440;2560 x 1440
H042;27;Mannelijk;Rechts;1;106;left;yes;100;undefined;null;true;focus;yes;550296;Chrome;112.0;macOS;10.15.7;undefined;undefined;2560 x 1440;2560 x 1440
H042;27;Mannelijk;Rechts;1;107;right;no;150;rightarrow;359;true;focus;yes;551425;Chrome;112.0;macOS;10.15.7;undefined;undefined;2560 x 1440;2560 x 1440
H042;27;Mannelijk;Rechts;1;108;left;no;150;leftarrow;463;true;focus;yes;552663;Chrome;112.0;macOS;10.15.7;undefined;undefined;2560 x 1440;2560 x 1440
H042;27;Mannelijk;Rechts;1;109;left;no;150;leftarrow;455;true;focus;yes;553899;Chrome;112.0;macOS;10.15.7;undefined;undefined;2560 x 1440;2560 x 1440
H042;27;Mannelijk;Rechts;1;110;right;yes;150;undefined;null;true;focus;yes;555921;Chrome;112.0;macOS;10.15.7;undefined;undefined;2560 x 1440;2560 x 1440
H042;27;Mannelijk;Rechts;1;111;left;no;200;leftarrow;359;true;focus;yes;557050;Chrome;112.0;macOS;10.15.7;undefined;undefined;2560 x 1440;2560 x 1440
H042;27;Mannelijk;Rechts;1;112;right;no;200;rightarrow;449;true;focus;yes;558267;Chrome;112.0;macOS;10.15.7;undefined;undefined;2560 x 1440;2560 x 1440
H042;27;Mannelijk;Rechts;1;113;right;no;200;rightarrow;501;true;focus;yes;559527;Chrome;112.0;macOS;10.15.7;undefined;undefined;2560 x 1440;2560 x 1440
H042;27;Mannelijk;Rechts;1;114;left;no;200;leftarrow;394;true;focus;yes;560696;Chrome;112.0;macOS;10.15.7;undefined;undefined;2560 x 1440;2560 x 1440
H042;27;Mannelijk;Rechts;1;115;left;no;200;leftarrow;389;true;focus;yes;561866;Chrome;112.0;macOS;10.15.7;undefined;undefined;2560 x 1440;2560 x 1440
H042;27;Mannelijk;Rechts;1;116;right;yes;200;rightarrow;449;false;focus;yes;563082;Chrome;112.0;macOS;10.15.7;undefined;undefined;2560 x 1440;2560 x 1440
H042;27;Mannelijk;Rechts;1;117;left;no;150;leftarrow;378;true;focus;yes;564228;Chrome;112.0;macOS;10.15.7;undefined;undefined;2560 x 1440;2560 x 1440
H042;27;Mannelijk;Rechts;1;118;left;yes;150;leftarrow;381;false;focus;yes;565375;Chrome;112.0;macOS;10.15.7;undefined;undefined;2560 x 1440;2560 x 1440
H042;27;Mannelijk;Rechts;1;119;right;no;100;rightarrow;476;true;focus;yes;566613;Chrome;112.0;macOS;10.15.7;undefined;undefined;2560 x 1440;2560 x 1440
H042;27;Mannelijk;Rechts;1;120;right;no;100;rightarrow;442;true;focus;yes;567828;Chrome;112.0;macOS;10.15.7;undefined;undefined;2560 x 1440;2560 x 1440
H042;27;Mannelijk;Rechts;1;121;right;no;100;rightarrow;427;true;focus;yes;569020;Chrome;112.0;macOS;10.15.7;undefined;undefined;2560 x 1440;2560 x 1440
H042;27;Mannelijk;Rechts;1;122;right;no;100;rightarrow;419;true;focus;yes;570213;Chrome;112.0;macOS;10.15.7;undefined;undefined;2560 x 1440;2560 x 1440
H042;27;Mannelijk;Rechts;1;123;right;yes;100;undefined;null;true;focus;yes;572228;Chrome;112.0;macOS;10.15.7;undefined;undefined;2560 x 1440;2560 x 1440
H042;27;Mannelijk;Rechts;1;124;left;no;150;leftarrow;368;true;focus;yes;573364;Chrome;112.0;macOS;10.15.7;undefined;undefined;2560 x 1440;2560 x 1440
H042;27;Mannelijk;Rechts;1;125;left;yes;150;leftarrow;410;false;focus;yes;574534;Chrome;112.0;macOS;10.15.7;undefined;undefined;2560 x 1440;2560 x 1440
H042;27;Mannelijk;Rechts;1;126;left;no;100;leftarrow;410;true;focus;yes;575702;Chrome;112.0;macOS;10.15.7;undefined;undefined;2560 x 1440;2560 x 1440
H042;27;Mannelijk;Rechts;1;127;left;no;100;leftarrow;386;true;focus;yes;576850;Chrome;112.0;macOS;10.15.7;undefined;undefined;2560 x 1440;2560 x 1440
H042;27;Mannelijk;Rechts;1;128;right;no;100;rightarrow;493;true;focus;yes;578110;Chrome;112.0;macOS;10.15.7;undefined;undefined;2560 x 1440;2560 x 1440
H042;27;Mannelijk;Rechts;2;1;left;no;100;leftarrow;369;true;focus;yes;708701;Chrome;112.0;macOS;10.15.7;undefined;undefined;2560 x 1440;2560 x 1440
H042;27;Mannelijk;Rechts;2;2;left;no;100;leftarrow;353;true;focus;yes;709825;Chrome;112.0;macOS;10.15.7;undefined;undefined;2560 x 1440;2560 x 1440
H042;27;Mannelijk;Rechts;2;3;right;yes;100;undefined;null;true;focus;yes;711849;Chrome;112.0;macOS;10.15.7;undefined;undefined;2560 x 1440;2560 x 1440
H042;27;Mannelijk;Rechts;2;4;right;no;150;rightarrow;401;true;focus;yes;713020;Chrome;112.0;macOS;10.15.7;undefined;undefined;2560 x 1440;2560 x 1440
H042;27;Mannelijk;Rechts;2;5;right;no;150;rightarrow;407;true;focus;yes;714192;Chrome;112.0;macOS;10.15.7;undefined;undefined;2560 x 1440;2560 x 1440
H042;27;Mannelijk;Rechts;2;6;left;no;150;leftarrow;380;true;focus;yes;715341;Chrome;112.0;macOS;10.15.7;undefined;undefined;2560 x 1440;2560 x 1440
H042;27;Mannelijk;Rechts;2;7;left;yes;150;leftarrow;370;false;focus;yes;716486;Chrome;112.0;macOS;10.15.7;undefined;undefined;2560 x 1440;2560 x 1440
H042;27;Mannelijk;Rechts;2;8;right;no;100;rightarrow;396;true;focus;yes;717655;Chrome;112.0;macOS;10.15.7;undefined;undefined;2560 x 1440;2560 x 1440
H042;27;Mannelijk;Rechts;2;9;right;no;100;rightarrow;390;true;focus;yes;718804;Chrome;112.0;macOS;10.15.7;undefined;undefined;2560 x 1440;2560 x 1440
H042;27;Mannelijk;Rechts;2;10;left;yes;100;undefined;null;true;focus;yes;720841;Chrome;112.0;macOS;10.15.7;undefined;undefined;2560 x 1440;2560 x 1440
H042;27;Mannelijk;Rechts;2;11;left;no;150;leftarrow;363;true;focus;yes;721975;Chrome;112.0;macOS;10.15.7;undefined;undefined;2560 x 1440;2560 x 1440
H042;27;Mannelijk;Rechts;2;12;left;no;150;leftarrow;375;true;focus;yes;723122;Chrome;112.0;macOS;10.15.7;undefined;undefined;2560 x 1440;2560 x 1440
H042;27;Mannelijk;Rechts;2;13;right;no;150;rightarrow;325;true;focus;yes;724225;Chrome;112.0;macOS;10.15.7;undefined;undefined;2560 x 1440;2560 x 1440
H042;27;Mannelijk;Rechts;2;14;right;yes;150;rightarrow;314;false;focus;yes;725306;Chrome;112.0;macOS;10.15.7;undefined;undefined;2560 x 1440;2560 x 1440
H042;27;Mannelijk;Rechts;2;15;left;no;100;leftarrow;359;true;focus;yes;726433;Chrome;112.0;macOS;10.15.7;undefined;undefined;2560 x 1440;2560 x 1440
H042;27;Mannelijk;Rechts;2;16;right;no;100;rightarrow;375;true;focus;yes;727578;Chrome;112.0;macOS;10.15.7;undefined;undefined;2560 x 1440;2560 x 1440
H042;27;Mannelijk;Rechts;2;17;right;no;100;rightarrow;406;true;focus;yes;728747;Chrome;112.0;macOS;10.15.7;undefined;undefined;2560 x 1440;2560 x 1440
H042;27;Mannelijk;Rechts;2;18;right;no;100;rightarrow;375;true;focus;yes;729897;Chrome;112.0;macOS;10.15.7;undefined;undefined;2560 x 1440;2560 x 1440
H042;27;Mannelijk;Rechts;2;19;left;no;100;leftarrow;368;true;focus;yes;731042;Chrome;112.0;macOS;10.15.7;undefined;undefined;2560 x 1440;2560 x 1440
H042;27;Mannelijk;Rechts;2;20;right;yes;100;undefined;null;true;focus;yes;733081;Chrome;112.0;macOS;10.15.7;undefined;undefined;2560 x 1440;2560 x 1440
H042;27;Mannelijk;Rechts;2;21;left;no;150;leftarrow;367;true;focus;yes;734216;Chrome;112.0;macOS;10.15.7;undefined;undefined;2560 x 1440;2560 x 1440
H042;27;Mannelijk;Rechts;2;22;right;no;150;rightarrow;444;true;focus;yes;735430;Chrome;112.0;macOS;10.15.7;undefined;undefined;2560 x 1440;2560 x 1440
H042;27;Mannelijk;Rechts;2;23;left;yes;150;leftarrow;430;false;focus;yes;736623;Chrome;112.0;macOS;10.15.7;undefined;undefined;2560 x 1440;2560 x 1440
H042;27;Mannelijk;Rechts;2;24;left;no;100;leftarrow;351;true;focus;yes;737748;Chrome;112.0;macOS;10.15.7;undefined;undefined;2560 x 1440;2560 x 1440
H042;27;Mannelijk;Rechts;2;25;right;no;100;rightarrow;437;true;focus;yes;738962;Chrome;112.0;macOS;10.15.7;undefined;undefined;2560 x 1440;2560 x 1440
H042;27;Mannelijk;Rechts;2;26;right;yes;100;undefined;null;true;focus;yes;740985;Chrome;112.0;macOS;10.15.7;undefined;undefined;2560 x 1440;2560 x 1440
H042;27;Mannelijk;Rechts;2;27;right;no;150;rightarrow;418;true;focus;yes;742181;Chrome;112.0;macOS;10.15.7;undefined;undefined;2560 x 1440;2560 x 1440
H042;27;Mannelijk;Rechts;2;28;left;yes;150;undefined;null;true;focus;yes;744217;Chrome;112.0;macOS;10.15.7;undefined;undefined;2560 x 1440;2560 x 1440
H042;27;Mannelijk;Rechts;2;29;right;no;200;rightarrow;366;true;focus;yes;745355;Chrome;112.0;macOS;10.15.7;undefined;undefined;2560 x 1440;2560 x 1440
H042;27;Mannelijk;Rechts;2;30;left;no;200;leftarrow;446;true;focus;yes;746568;Chrome;112.0;macOS;10.15.7;undefined;undefined;2560 x 1440;2560 x 1440
H042;27;Mannelijk;Rechts;2;31;left;no;200;leftarrow;412;true;focus;yes;747737;Chrome;112.0;macOS;10.15.7;undefined;undefined;2560 x 1440;2560 x 1440
H042;27;Mannelijk;Rechts;2;32;left;no;200;leftarrow;372;true;focus;yes;748886;Chrome;112.0;macOS;10.15.7;undefined;undefined;2560 x 1440;2560 x 1440
H042;27;Mannelijk;Rechts;2;33;left;no;200;leftarrow;377;true;focus;yes;750035;Chrome;112.0;macOS;10.15.7;undefined;undefined;2560 x 1440;2560 x 1440
H042;27;Mannelijk;Rechts;2;34;left;no;200;leftarrow;357;true;focus;yes;751158;Chrome;112.0;macOS;10.15.7;undefined;undefined;2560 x 1440;2560 x 1440
H042;27;Mannelijk;Rechts;2;35;left;yes;200;leftarrow;386;false;focus;yes;752307;Chrome;112.0;macOS;10.15.7;undefined;undefined;2560 x 1440;2560 x 1440
H042;27;Mannelijk;Rechts;2;36;right;no;150;rightarrow;440;true;focus;yes;753524;Chrome;112.0;macOS;10.15.7;undefined;undefined;2560 x 1440;2560 x 1440
H042;27;Mannelijk;Rechts;2;37;left;no;150;leftarrow;356;true;focus;yes;754646;Chrome;112.0;macOS;10.15.7;undefined;undefined;2560 x 1440;2560 x 1440
H042;27;Mannelijk;Rechts;2;38;right;no;150;rightarrow;421;true;focus;yes;755838;Chrome;112.0;macOS;10.15.7;undefined;undefined;2560 x 1440;2560 x 1440
H042;27;Mannelijk;Rechts;2;39;right;yes;150;rightarrow;429;false;focus;yes;757031;Chrome;112.0;macOS;10.15.7;undefined;undefined;2560 x 1440;2560 x 1440
H042;27;Mannelijk;Rechts;2;40;right;no;100;rightarrow;352;true;focus;yes;758155;Chrome;112.0;macOS;10.15.7;undefined;undefined;2560 x 1440;2560 x 1440
H042;27;Mannelijk;Rechts;2;41;right;no;100;rightarrow;404;true;focus;yes;759325;Chrome;112.0;macOS;10.15.7;undefined;undefined;2560 x 1440;2560 x 1440
H042;27;Mannelijk;Rechts;2;42;right;no;100;rightarrow;374;true;focus;yes;760472;Chrome;112.0;macOS;10.15.7;undefined;undefined;2560 x 1440;2560 x 1440
H042;27;Mannelijk;Rechts;2;43;right;yes;100;rightarrow;345;false;focus;yes;761597;Chrome;112.0;macOS;10.15.7;undefined;undefined;2560 x 1440;2560 x 1440
H042;27;Mannelijk;Rechts;2;44;left;no;50;leftarrow;428;true;focus;yes;762789;Chrome;112.0;macOS;10.15.7;undefined;undefined;2560 x 1440;2560 x 1440
H042;27;Mannelijk;Rechts;2;45;left;yes;50;leftarrow;419;false;focus;yes;763983;Chrome;112.0;macOS;10.15.7;undefined;undefined;2560 x 1440;2560 x 1440
H042;27;Mannelijk;Rechts;2;46;right;no;50;rightarrow;385;true;focus;yes;765130;Chrome;112.0;macOS;10.15.7;undefined;undefined;2560 x 1440;2560 x 1440
H042;27;Mannelijk;Rechts;2;47;left;no;50;leftarrow;426;true;focus;yes;766323;Chrome;112.0;macOS;10.15.7;undefined;undefined;2560 x 1440;2560 x 1440
H042;27;Mannelijk;Rechts;2;48;left;no;50;leftarrow;426;true;focus;yes;767516;Chrome;112.0;macOS;10.15.7;undefined;undefined;2560 x 1440;2560 x 1440
H042;27;Mannelijk;Rechts;2;49;left;no;50;leftarrow;396;true;focus;yes;768685;Chrome;112.0;macOS;10.15.7;undefined;undefined;2560 x 1440;2560 x 1440
H042;27;Mannelijk;Rechts;2;50;left;no;50;leftarrow;454;true;focus;yes;769900;Chrome;112.0;macOS;10.15.7;undefined;undefined;2560 x 1440;2560 x 1440
H042;27;Mannelijk;Rechts;2;51;left;no;50;leftarrow;387;true;focus;yes;771048;Chrome;112.0;macOS;10.15.7;undefined;undefined;2560 x 1440;2560 x 1440
H042;27;Mannelijk;Rechts;2;52;right;no;50;rightarrow;444;true;focus;yes;772263;Chrome;112.0;macOS;10.15.7;undefined;undefined;2560 x 1440;2560 x 1440
H042;27;Mannelijk;Rechts;2;53;right;no;50;rightarrow;556;true;focus;yes;773591;Chrome;112.0;macOS;10.15.7;undefined;undefined;2560 x 1440;2560 x 1440
H042;27;Mannelijk;Rechts;2;54;left;yes;50;undefined;null;true;focus;yes;775610;Chrome;112.0;macOS;10.15.7;undefined;undefined;2560 x 1440;2560 x 1440
H042;27;Mannelijk;Rechts;2;55;right;yes;100;rightarrow;331;false;focus;yes;776719;Chrome;112.0;macOS;10.15.7;undefined;undefined;2560 x 1440;2560 x 1440
H042;27;Mannelijk;Rechts;2;56;right;no;50;rightarrow;429;true;focus;yes;777910;Chrome;112.0;macOS;10.15.7;undefined;undefined;2560 x 1440;2560 x 1440
H042;27;Mannelijk;Rechts;2;57;right;no;50;rightarrow;362;true;focus;yes;779036;Chrome;112.0;macOS;10.15.7;undefined;undefined;2560 x 1440;2560 x 1440
H042;27;Mannelijk;Rechts;2;58;left;yes;50;undefined;null;true;focus;yes;781058;Chrome;112.0;macOS;10.15.7;undefined;undefined;2560 x 1440;2560 x 1440
H042;27;Mannelijk;Rechts;2;59;right;no;100;rightarrow;416;true;focus;yes;782253;Chrome;112.0;macOS;10.15.7;undefined;undefined;2560 x 1440;2560 x 1440
H042;27;Mannelijk;Rechts;2;60;left;no;100;leftarrow;441;true;focus;yes;783468;Chrome;112.0;macOS;10.15.7;undefined;undefined;2560 x 1440;2560 x 1440
H042;27;Mannelijk;Rechts;2;61;left;no;100;leftarrow;408;true;focus;yes;784637;Chrome;112.0;macOS;10.15.7;undefined;undefined;2560 x 1440;2560 x 1440
H042;27;Mannelijk;Rechts;2;62;right;yes;100;undefined;null;true;focus;yes;786655;Chrome;112.0;macOS;10.15.7;undefined;undefined;2560 x 1440;2560 x 1440
H042;27;Mannelijk;Rechts;2;63;right;no;150;rightarrow;452;true;focus;yes;787889;Chrome;112.0;macOS;10.15.7;undefined;undefined;2560 x 1440;2560 x 1440
H042;27;Mannelijk;Rechts;2;64;left;no;150;leftarrow;367;true;focus;yes;789025;Chrome;112.0;macOS;10.15.7;undefined;undefined;2560 x 1440;2560 x 1440
H042;27;Mannelijk;Rechts;2;65;right;no;150;rightarrow;351;true;focus;yes;790151;Chrome;112.0;macOS;10.15.7;undefined;undefined;2560 x 1440;2560 x 1440
H042;27;Mannelijk;Rechts;2;66;right;no;150;rightarrow;360;true;focus;yes;791275;Chrome;112.0;macOS;10.15.7;undefined;undefined;2560 x 1440;2560 x 1440
H042;27;Mannelijk;Rechts;2;67;left;yes;150;undefined;null;true;focus;yes;793296;Chrome;112.0;macOS;10.15.7;undefined;undefined;2560 x 1440;2560 x 1440
H042;27;Mannelijk;Rechts;2;68;right;yes;200;rightarrow;353;false;focus;yes;794427;Chrome;112.0;macOS;10.15.7;undefined;undefined;2560 x 1440;2560 x 1440
H042;27;Mannelijk;Rechts;2;69;left;no;150;leftarrow;413;true;focus;yes;795618;Chrome;112.0;macOS;10.15.7;undefined;undefined;2560 x 1440;2560 x 1440
H042;27;Mannelijk;Rechts;2;70;right;no;150;rightarrow;464;true;focus;yes;796858;Chrome;112.0;macOS;10.15.7;undefined;undefined;2560 x 1440;2560 x 1440
H042;27;Mannelijk;Rechts;2;71;left;no;150;leftarrow;382;true;focus;yes;798003;Chrome;112.0;macOS;10.15.7;undefined;undefined;2560 x 1440;2560 x 1440
H042;27;Mannelijk;Rechts;2;72;left;no;150;leftarrow;419;true;focus;yes;799198;Chrome;112.0;macOS;10.15.7;undefined;undefined;2560 x 1440;2560 x 1440
H042;27;Mannelijk;Rechts;2;73;right;no;150;rightarrow;470;true;focus;yes;800433;Chrome;112.0;macOS;10.15.7;undefined;undefined;2560 x 1440;2560 x 1440
H042;27;Mannelijk;Rechts;2;74;left;no;150;leftarrow;388;true;focus;yes;801601;Chrome;112.0;macOS;10.15.7;undefined;undefined;2560 x 1440;2560 x 1440
H042;27;Mannelijk;Rechts;2;75;left;no;150;leftarrow;394;true;focus;yes;802773;Chrome;112.0;macOS;10.15.7;undefined;undefined;2560 x 1440;2560 x 1440
H042;27;Mannelijk;Rechts;2;76;right;no;150;rightarrow;386;true;focus;yes;803919;Chrome;112.0;macOS;10.15.7;undefined;undefined;2560 x 1440;2560 x 1440
H042;27;Mannelijk;Rechts;2;77;right;yes;150;rightarrow;368;false;focus;yes;805046;Chrome;112.0;macOS;10.15.7;undefined;undefined;2560 x 1440;2560 x 1440
H042;27;Mannelijk;Rechts;2;78;right;no;100;rightarrow;384;true;focus;yes;806193;Chrome;112.0;macOS;10.15.7;undefined;undefined;2560 x 1440;2560 x 1440
H042;27;Mannelijk;Rechts;2;79;left;yes;100;undefined;null;true;focus;yes;808218;Chrome;112.0;macOS;10.15.7;undefined;undefined;2560 x 1440;2560 x 1440
H042;27;Mannelijk;Rechts;2;80;left;no;150;leftarrow;439;true;focus;yes;809433;Chrome;112.0;macOS;10.15.7;undefined;undefined;2560 x 1440;2560 x 1440
H042;27;Mannelijk;Rechts;2;81;right;no;150;rightarrow;492;true;focus;yes;810693;Chrome;112.0;macOS;10.15.7;undefined;undefined;2560 x 1440;2560 x 1440
H042;27;Mannelijk;Rechts;2;82;left;no;150;leftarrow;406;true;focus;yes;811862;Chrome;112.0;macOS;10.15.7;undefined;undefined;2560 x 1440;2560 x 1440
H042;27;Mannelijk;Rechts;2;83;left;yes;150;leftarrow;408;false;focus;yes;813034;Chrome;112.0;macOS;10.15.7;undefined;undefined;2560 x 1440;2560 x 1440
H042;27;Mannelijk;Rechts;2;84;right;no;100;rightarrow;514;true;focus;yes;814315;Chrome;112.0;macOS;10.15.7;undefined;undefined;2560 x 1440;2560 x 1440
H042;27;Mannelijk;Rechts;2;85;right;no;100;rightarrow;409;true;focus;yes;815486;Chrome;112.0;macOS;10.15.7;undefined;undefined;2560 x 1440;2560 x 1440
H042;27;Mannelijk;Rechts;2;86;right;yes;100;undefined;null;true;focus;yes;817505;Chrome;112.0;macOS;10.15.7;undefined;undefined;2560 x 1440;2560 x 1440
H042;27;Mannelijk;Rechts;2;87;left;no;150;leftarrow;418;true;focus;yes;818705;Chrome;112.0;macOS;10.15.7;undefined;undefined;2560 x 1440;2560 x 1440
H042;27;Mannelijk;Rechts;2;88;left;no;150;leftarrow;502;true;focus;yes;819988;Chrome;112.0;macOS;10.15.7;undefined;undefined;2560 x 1440;2560 x 1440
H042;27;Mannelijk;Rechts;2;89;right;no;150;rightarrow;494;true;focus;yes;821247;Chrome;112.0;macOS;10.15.7;undefined;undefined;2560 x 1440;2560 x 1440
H042;27;Mannelijk;Rechts;2;90;left;no;150;leftarrow;451;true;focus;yes;822461;Chrome;112.0;macOS;10.15.7;undefined;undefined;2560 x 1440;2560 x 1440
H042;27;Mannelijk;Rechts;2;91;left;yes;150;undefined;null;true;focus;yes;824498;Chrome;112.0;macOS;10.15.7;undefined;undefined;2560 x 1440;2560 x 1440
H042;27;Mannelijk;Rechts;2;92;right;yes;200;rightarrow;334;false;focus;yes;825612;Chrome;112.0;macOS;10.15.7;undefined;undefined;2560 x 1440;2560 x 1440
H042;27;Mannelijk;Rechts;2;93;left;no;150;leftarrow;403;true;focus;yes;826780;Chrome;112.0;macOS;10.15.7;undefined;undefined;2560 x 1440;2560 x 1440
H042;27;Mannelijk;Rechts;2;94;right;no;150;rightarrow;429;true;focus;yes;827974;Chrome;112.0;macOS;10.15.7;undefined;undefined;2560 x 1440;2560 x 1440
H042;27;Mannelijk;Rechts;2;95;left;no;150;leftarrow;407;true;focus;yes;829142;Chrome;112.0;macOS;10.15.7;undefined;undefined;2560 x 1440;2560 x 1440
H042;27;Mannelijk;Rechts;2;96;right;no;150;rightarrow;397;true;focus;yes;830313;Chrome;112.0;macOS;10.15.7;undefined;undefined;2560 x 1440;2560 x 1440
H042;27;Mannelijk;Rechts;2;97;left;no;150;leftarrow;384;true;focus;yes;831461;Chrome;112.0;macOS;10.15.7;undefined;undefined;2560 x 1440;2560 x 1440
H042;27;Mannelijk;Rechts;2;98;left;no;150;leftarrow;396;true;focus;yes;832632;Chrome;112.0;macOS;10.15.7;undefined;undefined;2560 x 1440;2560 x 1440
H042;27;Mannelijk;Rechts;2;99;left;no;150;leftarrow;398;true;focus;yes;833802;Chrome;112.0;macOS;10.15.7;undefined;undefined;2560 x 1440;2560 x 1440
H042;27;Mannelijk;Rechts;2;100;right;yes;150;undefined;null;true;focus;yes;835823;Chrome;112.0;macOS;10.15.7;undefined;undefined;2560 x 1440;2560 x 1440
H042;27;Mannelijk;Rechts;2;101;right;no;200;rightarrow;488;true;focus;yes;837086;Chrome;112.0;macOS;10.15.7;undefined;undefined;2560 x 1440;2560 x 1440
H042;27;Mannelijk;Rechts;2;102;right;no;200;rightarrow;374;true;focus;yes;838233;Chrome;112.0;macOS;10.15.7;undefined;undefined;2560 x 1440;2560 x 1440
H042;27;Mannelijk;Rechts;2;103;right;no;200;rightarrow;470;true;focus;yes;839471;Chrome;112.0;macOS;10.15.7;undefined;undefined;2560 x 1440;2560 x 1440
H042;27;Mannelijk;Rechts;2;104;left;yes;200;leftarrow;383;false;focus;yes;840618;Chrome;112.0;macOS;10.15.7;undefined;undefined;2560 x 1440;2560 x 1440
H042;27;Mannelijk;Rechts;2;105;left;no;150;leftarrow;395;true;focus;yes;841789;Chrome;112.0;macOS;10.15.7;undefined;undefined;2560 x 1440;2560 x 1440
H042;27;Mannelijk;Rechts;2;106;right;no;150;rightarrow;396;true;focus;yes;842960;Chrome;112.0;macOS;10.15.7;undefined;undefined;2560 x 1440;2560 x 1440
H042;27;Mannelijk;Rechts;2;107;right;no;150;rightarrow;410;true;focus;yes;844150;Chrome;112.0;macOS;10.15.7;undefined;undefined;2560 x 1440;2560 x 1440
H042;27;Mannelijk;Rechts;2;108;left;no;150;leftarrow;362;true;focus;yes;845275;Chrome;112.0;macOS;10.15.7;undefined;undefined;2560 x 1440;2560 x 1440
H042;27;Mannelijk;Rechts;2;109;left;no;150;leftarrow;416;true;focus;yes;846469;Chrome;112.0;macOS;10.15.7;undefined;undefined;2560 x 1440;2560 x 1440
H042;27;Mannelijk;Rechts;2;110;right;no;150;rightarrow;485;true;focus;yes;847729;Chrome;112.0;macOS;10.15.7;undefined;undefined;2560 x 1440;2560 x 1440
H042;27;Mannelijk;Rechts;2;111;left;yes;150;leftarrow;434;false;focus;yes;848944;Chrome;112.0;macOS;10.15.7;undefined;undefined;2560 x 1440;2560 x 1440
H042;27;Mannelijk;Rechts;2;112;right;yes;100;undefined;null;true;focus;yes;850974;Chrome;112.0;macOS;10.15.7;undefined;undefined;2560 x 1440;2560 x 1440
H042;27;Mannelijk;Rechts;2;113;right;yes;150;rightarrow;466;false;focus;yes;852206;Chrome;112.0;macOS;10.15.7;undefined;undefined;2560 x 1440;2560 x 1440
H042;27;Mannelijk;Rechts;2;114;left;no;100;leftarrow;387;true;focus;yes;853352;Chrome;112.0;macOS;10.15.7;undefined;undefined;2560 x 1440;2560 x 1440
H042;27;Mannelijk;Rechts;2;115;right;no;100;rightarrow;434;true;focus;yes;854567;Chrome;112.0;macOS;10.15.7;undefined;undefined;2560 x 1440;2560 x 1440
H042;27;Mannelijk;Rechts;2;116;right;no;100;rightarrow;432;true;focus;yes;855761;Chrome;112.0;macOS;10.15.7;undefined;undefined;2560 x 1440;2560 x 1440
H042;27;Mannelijk;Rechts;2;117;left;no;100;leftarrow;391;true;focus;yes;856931;Chrome;112.0;macOS;10.15.7;undefined;undefined;2560 x 1440;2560 x 1440
H042;27;Mannelijk;Rechts;2;118;left;no;100;leftarrow;363;true;focus;yes;858057;Chrome;112.0;macOS;10.15.7;undefined;undefined;2560 x 1440;2560 x 1440
H042;27;Mannelijk;Rechts;2;119;left;yes;100;leftarrow;344;false;focus;yes;859182;Chrome;112.0;macOS;10.15.7;undefined;undefined;2560 x 1440;2560 x 1440
H042;27;Mannelijk;Rechts;2;120;right;no;50;rightarrow;383;true;focus;yes;860328;Chrome;112.0;macOS;10.15.7;undefined;undefined;2560 x 1440;2560 x 1440
H042;27;Mannelijk;Rechts;2;121;left;no;50;leftarrow;401;true;focus;yes;861498;Chrome;112.0;macOS;10.15.7;undefined;undefined;2560 x 1440;2560 x 1440
H042;27;Mannelijk;Rechts;2;122;left;yes;50;leftarrow;326;false;focus;yes;862601;Chrome;112.0;macOS;10.15.7;undefined;undefined;2560 x 1440;2560 x 1440
H042;27;Mannelijk;Rechts;2;123;right;no;50;rightarrow;414;true;focus;yes;863793;Chrome;112.0;macOS;10.15.7;undefined;undefined;2560 x 1440;2560 x 1440
H042;27;Mannelijk;Rechts;2;124;left;no;50;leftarrow;360;true;focus;yes;864918;Chrome;112.0;macOS;10.15.7;undefined;undefined;2560 x 1440;2560 x 1440
H042;27;Mannelijk;Rechts;2;125;right;yes;50;undefined;null;true;focus;yes;866934;Chrome;112.0;macOS;10.15.7;undefined;undefined;2560 x 1440;2560 x 1440
H042;27;Mannelijk;Rechts;2;126;right;no;100;rightarrow;434;true;focus;yes;868137;Chrome;112.0;macOS;10.15.7;undefined;undefined;2560 x 1440;2560 x 1440
H042;27;Mannelijk;Rechts;2;127;right;no;100;rightarrow;433;true;focus;yes;869350;Chrome;112.0;macOS;10.15.7;undefined;undefined;2560 x 1440;2560 x 1440
H042;27;Mannelijk;Rechts;2;128;left;no;100;leftarrow;375;true;focus;yes;870498;Chrome;112.0;macOS;10.15.7;undefined;undefined;2560 x 1440;2560 x 1440
H042;27;Mannelijk;Rechts;3;1;left;no;100;leftarrow;350;true;focus;yes;988557;Chrome;112.0;macOS;10.15.7;undefined;undefined;2560 x 1440;2560 x 1440
H042;27;Mannelijk;Rechts;3;2;right;no;100;rightarrow;363;true;focus;yes;989682;Chrome;112.0;macOS;10.15.7;undefined;undefined;2560 x 1440;2560 x 1440
H042;27;Mannelijk;Rechts;3;3;right;no;100;rightarrow;356;true;focus;yes;990806;Chrome;112.0;macOS;10.15.7;undefined;undefined;2560 x 1440;2560 x 1440
H042;27;Mannelijk;Rechts;3;4;left;yes;100;leftarrow;351;false;focus;yes;991931;Chrome;112.0;macOS;10.15.7;undefined;undefined;2560 x 1440;2560 x 1440
H042;27;Mannelijk;Rechts;3;5;left;no;50;leftarrow;325;true;focus;yes;993033;Chrome;112.0;macOS;10.15.7;undefined;undefined;2560 x 1440;2560 x 1440
H042;27;Mannelijk;Rechts;3;6;right;no;50;rightarrow;344;true;focus;yes;994158;Chrome;112.0;macOS;10.15.7;undefined;undefined;2560 x 1440;2560 x 1440
H042;27;Mannelijk;Rechts;3;7;right;yes;50;undefined;null;true;focus;yes;996178;Chrome;112.0;macOS;10.15.7;undefined;undefined;2560 x 1440;2560 x 1440
H042;27;Mannelijk;Rechts;3;8;left;no;100;leftarrow;330;true;focus;yes;997287;Chrome;112.0;macOS;10.15.7;undefined;undefined;2560 x 1440;2560 x 1440
H042;27;Mannelijk;Rechts;3;9;left;no;100;leftarrow;329;true;focus;yes;998389;Chrome;112.0;macOS;10.15.7;undefined;undefined;2560 x 1440;2560 x 1440
H042;27;Mannelijk;Rechts;3;10;left;yes;100;undefined;null;true;focus;yes;1000406;Chrome;112.0;macOS;10.15.7;undefined;undefined;2560 x 1440;2560 x 1440
H042;27;Mannelijk;Rechts;3;11;right;yes;150;rightarrow;315;false;focus;yes;1001494;Chrome;112.0;macOS;10.15.7;undefined;undefined;2560 x 1440;2560 x 1440
H042;27;Mannelijk;Rechts;3;12;right;no;100;rightarrow;351;true;focus;yes;1002619;Chrome;112.0;macOS;10.15.7;undefined;undefined;2560 x 1440;2560 x 1440
H042;27;Mannelijk;Rechts;3;13;left;no;100;leftarrow;347;true;focus;yes;1003743;Chrome;112.0;macOS;10.15.7;undefined;undefined;2560 x 1440;2560 x 1440
H042;27;Mannelijk;Rechts;3;14;left;no;100;leftarrow;374;true;focus;yes;1004890;Chrome;112.0;macOS;10.15.7;undefined;undefined;2560 x 1440;2560 x 1440
H042;27;Mannelijk;Rechts;3;15;right;no;100;rightarrow;370;true;focus;yes;1006038;Chrome;112.0;macOS;10.15.7;undefined;undefined;2560 x 1440;2560 x 1440
H042;27;Mannelijk;Rechts;3;16;right;no;100;rightarrow;484;true;focus;yes;1007287;Chrome;112.0;macOS;10.15.7;undefined;undefined;2560 x 1440;2560 x 1440
H042;27;Mannelijk;Rechts;3;17;left;no;100;leftarrow;396;true;focus;yes;1008447;Chrome;112.0;macOS;10.15.7;undefined;undefined;2560 x 1440;2560 x 1440
H042;27;Mannelijk;Rechts;3;18;right;no;100;rightarrow;337;true;focus;yes;1009549;Chrome;112.0;macOS;10.15.7;undefined;undefined;2560 x 1440;2560 x 1440
H042;27;Mannelijk;Rechts;3;19;left;no;100;leftarrow;304;true;focus;yes;1010628;Chrome;112.0;macOS;10.15.7;undefined;undefined;2560 x 1440;2560 x 1440
H042;27;Mannelijk;Rechts;3;20;right;yes;100;rightarrow;418;false;focus;yes;1011822;Chrome;112.0;macOS;10.15.7;undefined;undefined;2560 x 1440;2560 x 1440
H042;27;Mannelijk;Rechts;3;21;right;no;50;rightarrow;382;true;focus;yes;1012969;Chrome;112.0;macOS;10.15.7;undefined;undefined;2560 x 1440;2560 x 1440
H042;27;Mannelijk;Rechts;3;22;right;no;50;rightarrow;570;true;focus;yes;1014321;Chrome;112.0;macOS;10.15.7;undefined;undefined;2560 x 1440;2560 x 1440
H042;27;Mannelijk;Rechts;3;23;left;no;50;leftarrow;441;true;focus;yes;1015533;Chrome;112.0;macOS;10.15.7;undefined;undefined;2560 x 1440;2560 x 1440
H042;27;Mannelijk;Rechts;3;24;left;yes;50;undefined;null;true;focus;yes;1017562;Chrome;112.0;macOS;10.15.7;undefined;undefined;2560 x 1440;2560 x 1440
H042;27;Mannelijk;Rechts;3;25;left;no;100;leftarrow;456;true;focus;yes;1018797;Chrome;112.0;macOS;10.15.7;undefined;undefined;2560 x 1440;2560 x 1440
H042;27;Mannelijk;Rechts;3;26;left;no;100;leftarrow;439;true;focus;yes;1020011;Chrome;112.0;macOS;10.15.7;undefined;undefined;2560 x 1440;2560 x 1440
H042;27;Mannelijk;Rechts;3;27;right;no;100;rightarrow;482;true;focus;yes;1021271;Chrome;112.0;macOS;10.15.7;undefined;undefined;2560 x 1440;2560 x 1440
H042;27;Mannelijk;Rechts;3;28;right;yes;100;rightarrow;398;false;focus;yes;1022443;Chrome;112.0;macOS;10.15.7;undefined;undefined;2560 x 1440;2560 x 1440
H042;27;Mannelijk;Rechts;3;29;right;no;50;rightarrow;400;true;focus;yes;1023611;Chrome;112.0;macOS;10.15.7;undefined;undefined;2560 x 1440;2560 x 1440
H042;27;Mannelijk;Rechts;3;30;left;yes;50;undefined;null;true;focus;yes;1025634;Chrome;112.0;macOS;10.15.7;undefined;undefined;2560 x 1440;2560 x 1440
H042;27;Mannelijk;Rechts;3;31;right;no;100;rightarrow;359;true;focus;yes;1026762;Chrome;112.0;macOS;10.15.7;undefined;undefined;2560 x 1440;2560 x 1440
H042;27;Mannelijk;Rechts;3;32;left;no;100;leftarrow;378;true;focus;yes;1027908;Chrome;112.0;macOS;10.15.7;undefined;undefined;2560 x 1440;2560 x 1440
H042;27;Mannelijk;Rechts;3;33;right;yes;100;undefined;null;true;focus;yes;1029944;Chrome;112.0;macOS;10.15.7;undefined;undefined;2560 x 1440;2560 x 1440
H042;27;Mannelijk;Rechts;3;34;left;no;150;leftarrow;408;true;focus;yes;1031127;Chrome;112.0;macOS;10.15.7;undefined;undefined;2560 x 1440;2560 x 1440
H042;27;Mannelijk;Rechts;3;35;right;no;150;rightarrow;590;true;focus;yes;1032477;Chrome;112.0;macOS;10.15.7;undefined;undefined;2560 x 1440;2560 x 1440
H042;27;Mannelijk;Rechts;3;36;right;no;150;rightarrow;430;true;focus;yes;1033668;Chrome;112.0;macOS;10.15.7;undefined;undefined;2560 x 1440;2560 x 1440
H042;27;Mannelijk;Rechts;3;37;left;no;150;leftarrow;426;true;focus;yes;1034861;Chrome;112.0;macOS;10.15.7;undefined;undefined;2560 x 1440;2560 x 1440
H042;27;Mannelijk;Rechts;3;38;left;yes;150;leftarrow;360;false;focus;yes;1035987;Chrome;112.0;macOS;10.15.7;undefined;undefined;2560 x 1440;2560 x 1440
H042;27;Mannelijk;Rechts;3;39;right;no;100;rightarrow;347;true;focus;yes;1037111;Chrome;112.0;macOS;10.15.7;undefined;undefined;2560 x 1440;2560 x 1440
H042;27;Mannelijk;Rechts;3;40;left;no;100;leftarrow;386;true;focus;yes;1038261;Chrome;112.0;macOS;10.15.7;undefined;undefined;2560 x 1440;2560 x 1440
H042;27;Mannelijk;Rechts;3;41;left;no;100;leftarrow;436;true;focus;yes;1039474;Chrome;112.0;macOS;10.15.7;undefined;undefined;2560 x 1440;2560 x 1440
H042;27;Mannelijk;Rechts;3;42;right;no;100;rightarrow;594;true;focus;yes;1040846;Chrome;112.0;macOS;10.15.7;undefined;undefined;2560 x 1440;2560 x 1440
H042;27;Mannelijk;Rechts;3;43;right;yes;100;undefined;null;true;focus;yes;1042878;Chrome;112.0;macOS;10.15.7;undefined;undefined;2560 x 1440;2560 x 1440
H042;27;Mannelijk;Rechts;3;44;right;no;150;rightarrow;410;true;focus;yes;1044065;Chrome;112.0;macOS;10.15.7;undefined;undefined;2560 x 1440;2560 x 1440
H042;27;Mannelijk;Rechts;3;45;left;yes;150;leftarrow;421;false;focus;yes;1045257;Chrome;112.0;macOS;10.15.7;undefined;undefined;2560 x 1440;2560 x 1440
H042;27;Mannelijk;Rechts;3;46;left;no;100;leftarrow;355;true;focus;yes;1046383;Chrome;112.0;macOS;10.15.7;undefined;undefined;2560 x 1440;2560 x 1440
H042;27;Mannelijk;Rechts;3;47;left;no;100;leftarrow;382;true;focus;yes;1047528;Chrome;112.0;macOS;10.15.7;undefined;undefined;2560 x 1440;2560 x 1440
H042;27;Mannelijk;Rechts;3;48;right;no;100;rightarrow;398;true;focus;yes;1048699;Chrome;112.0;macOS;10.15.7;undefined;undefined;2560 x 1440;2560 x 1440
H042;27;Mannelijk;Rechts;3;49;left;yes;100;leftarrow;424;false;focus;yes;1049892;Chrome;112.0;macOS;10.15.7;undefined;undefined;2560 x 1440;2560 x 1440
H042;27;Mannelijk;Rechts;3;50;left;no;50;leftarrow;380;true;focus;yes;1051039;Chrome;112.0;macOS;10.15.7;undefined;undefined;2560 x 1440;2560 x 1440
H042;27;Mannelijk;Rechts;3;51;right;no;50;rightarrow;473;true;focus;yes;1052276;Chrome;112.0;macOS;10.15.7;undefined;undefined;2560 x 1440;2560 x 1440
H042;27;Mannelijk;Rechts;3;52;right;no;50;rightarrow;427;true;focus;yes;1053469;Chrome;112.0;macOS;10.15.7;undefined;undefined;2560 x 1440;2560 x 1440
H042;27;Mannelijk;Rechts;3;53;left;no;50;leftarrow;449;true;focus;yes;1054684;Chrome;112.0;macOS;10.15.7;undefined;undefined;2560 x 1440;2560 x 1440
H042;27;Mannelijk;Rechts;3;54;right;no;50;rightarrow;538;true;focus;yes;1055989;Chrome;112.0;macOS;10.15.7;undefined;undefined;2560 x 1440;2560 x 1440
H042;27;Mannelijk;Rechts;3;55;left;no;50;leftarrow;406;true;focus;yes;1057162;Chrome;112.0;macOS;10.15.7;undefined;undefined;2560 x 1440;2560 x 1440
H042;27;Mannelijk;Rechts;3;56;right;yes;50;undefined;null;true;focus;yes;1059195;Chrome;112.0;macOS;10.15.7;undefined;undefined;2560 x 1440;2560 x 1440
H042;27;Mannelijk;Rechts;3;57;right;no;100;rightarrow;434;true;focus;yes;1060399;Chrome;112.0;macOS;10.15.7;undefined;undefined;2560 x 1440;2560 x 1440
H042;27;Mannelijk;Rechts;3;58;left;no;100;leftarrow;434;true;focus;yes;1061592;Chrome;112.0;macOS;10.15.7;undefined;undefined;2560 x 1440;2560 x 1440
H042;27;Mannelijk;Rechts;3;59;left;yes;100;undefined;null;true;focus;yes;1063623;Chrome;112.0;macOS;10.15.7;undefined;undefined;2560 x 1440;2560 x 1440
H042;27;Mannelijk;Rechts;3;60;left;no;150;leftarrow;443;true;focus;yes;1064832;Chrome;112.0;macOS;10.15.7;undefined;undefined;2560 x 1440;2560 x 1440
H042;27;Mannelijk;Rechts;3;61;right;no;150;rightarrow;397;true;focus;yes;1066002;Chrome;112.0;macOS;10.15.7;undefined;undefined;2560 x 1440;2560 x 1440
H042;27;Mannelijk;Rechts;3;62;left;no;150;leftarrow;401;true;focus;yes;1067171;Chrome;112.0;macOS;10.15.7;undefined;undefined;2560 x 1440;2560 x 1440
H042;27;Mannelijk;Rechts;3;63;right;yes;150;rightarrow;415;false;focus;yes;1068366;Chrome;112.0;macOS;10.15.7;undefined;undefined;2560 x 1440;2560 x 1440
H042;27;Mannelijk;Rechts;3;64;right;no;100;rightarrow;403;true;focus;yes;1069534;Chrome;112.0;macOS;10.15.7;undefined;undefined;2560 x 1440;2560 x 1440
H042;27;Mannelijk;Rechts;3;65;right;yes;100;undefined;null;true;focus;yes;1071563;Chrome;112.0;macOS;10.15.7;undefined;undefined;2560 x 1440;2560 x 1440
H042;27;Mannelijk;Rechts;3;66;left;no;150;leftarrow;371;true;focus;yes;1072706;Chrome;112.0;macOS;10.15.7;undefined;undefined;2560 x 1440;2560 x 1440
H042;27;Mannelijk;Rechts;3;67;right;no;150;rightarrow;400;true;focus;yes;1073877;Chrome;112.0;macOS;10.15.7;undefined;undefined;2560 x 1440;2560 x 1440
H042;27;Mannelijk;Rechts;3;68;right;no;150;rightarrow;471;true;focus;yes;1075114;Chrome;112.0;macOS;10.15.7;undefined;undefined;2560 x 1440;2560 x 1440
H042;27;Mannelijk;Rechts;3;69;left;yes;150;leftarrow;446;false;focus;yes;1076329;Chrome;112.0;macOS;10.15.7;undefined;undefined;2560 x 1440;2560 x 1440
H042;27;Mannelijk;Rechts;3;70;left;no;100;leftarrow;353;true;focus;yes;1077453;Chrome;112.0;macOS;10.15.7;undefined;undefined;2560 x 1440;2560 x 1440
H042;27;Mannelijk;Rechts;3;71;left;no;100;leftarrow;359;true;focus;yes;1078579;Chrome;112.0;macOS;10.15.7;undefined;undefined;2560 x 1440;2560 x 1440
H042;27;Mannelijk;Rechts;3;72;right;no;100;rightarrow;403;true;focus;yes;1079749;Chrome;112.0;macOS;10.15.7;undefined;undefined;2560 x 1440;2560 x 1440
H042;27;Mannelijk;Rechts;3;73;left;yes;100;leftarrow;373;false;focus;yes;1080897;Chrome;112.0;macOS;10.15.7;undefined;undefined;2560 x 1440;2560 x 1440
H042;27;Mannelijk;Rechts;3;74;right;no;50;rightarrow;410;true;focus;yes;1082089;Chrome;112.0;macOS;10.15.7;undefined;undefined;2560 x 1440;2560 x 1440
H042;27;Mannelijk;Rechts;3;75;left;no;50;leftarrow;419;true;focus;yes;1083281;Chrome;112.0;macOS;10.15.7;undefined;undefined;2560 x 1440;2560 x 1440
H042;27;Mannelijk;Rechts;3;76;left;no;50;leftarrow;412;true;focus;yes;1084451;Chrome;112.0;macOS;10.15.7;undefined;undefined;2560 x 1440;2560 x 1440
H042;27;Mannelijk;Rechts;3;77;right;no;50;rightarrow;356;true;focus;yes;1085576;Chrome;112.0;macOS;10.15.7;undefined;undefined;2560 x 1440;2560 x 1440
H042;27;Mannelijk;Rechts;3;78;left;no;50;leftarrow;398;true;focus;yes;1086746;Chrome;112.0;macOS;10.15.7;undefined;undefined;2560 x 1440;2560 x 1440
H042;27;Mannelijk;Rechts;3;79;right;no;50;rightarrow;332;true;focus;yes;1087849;Chrome;112.0;macOS;10.15.7;undefined;undefined;2560 x 1440;2560 x 1440
H042;27;Mannelijk;Rechts;3;80;right;yes;50;undefined;null;true;focus;yes;1089891;Chrome;112.0;macOS;10.15.7;undefined;undefined;2560 x 1440;2560 x 1440
H042;27;Mannelijk;Rechts;3;81;right;no;100;rightarrow;372;true;focus;yes;1091045;Chrome;112.0;macOS;10.15.7;undefined;undefined;2560 x 1440;2560 x 1440
H042;27;Mannelijk;Rechts;3;82;left;no;100;leftarrow;373;true;focus;yes;1092194;Chrome;112.0;macOS;10.15.7;undefined;undefined;2560 x 1440;2560 x 1440
H042;27;Mannelijk;Rechts;3;83;right;no;100;rightarrow;351;true;focus;yes;1093316;Chrome;112.0;macOS;10.15.7;undefined;undefined;2560 x 1440;2560 x 1440
H042;27;Mannelijk;Rechts;3;84;left;yes;100;leftarrow;372;false;focus;yes;1094465;Chrome;112.0;macOS;10.15.7;undefined;undefined;2560 x 1440;2560 x 1440
H042;27;Mannelijk;Rechts;3;85;left;no;50;leftarrow;376;true;focus;yes;1095611;Chrome;112.0;macOS;10.15.7;undefined;undefined;2560 x 1440;2560 x 1440
H042;27;Mannelijk;Rechts;3;86;left;no;50;leftarrow;486;true;focus;yes;1096872;Chrome;112.0;macOS;10.15.7;undefined;undefined;2560 x 1440;2560 x 1440
H042;27;Mannelijk;Rechts;3;87;right;yes;50;undefined;null;true;focus;yes;1098890;Chrome;112.0;macOS;10.15.7;undefined;undefined;2560 x 1440;2560 x 1440
H042;27;Mannelijk;Rechts;3;88;right;no;100;rightarrow;448;true;focus;yes;1100111;Chrome;112.0;macOS;10.15.7;undefined;undefined;2560 x 1440;2560 x 1440
H042;27;Mannelijk;Rechts;3;89;right;no;100;rightarrow;385;true;focus;yes;1101259;Chrome;112.0;macOS;10.15.7;undefined;undefined;2560 x 1440;2560 x 1440
H042;27;Mannelijk;Rechts;3;90;left;no;100;leftarrow;410;true;focus;yes;1102429;Chrome;112.0;macOS;10.15.7;undefined;undefined;2560 x 1440;2560 x 1440
H042;27;Mannelijk;Rechts;3;91;left;no;100;leftarrow;348;true;focus;yes;1103554;Chrome;112.0;macOS;10.15.7;undefined;undefined;2560 x 1440;2560 x 1440
H042;27;Mannelijk;Rechts;3;92;right;no;100;rightarrow;398;true;focus;yes;1104723;Chrome;112.0;macOS;10.15.7;undefined;undefined;2560 x 1440;2560 x 1440
H042;27;Mannelijk;Rechts;3;93;left;yes;100;undefined;null;true;focus;yes;1106759;Chrome;112.0;macOS;10.15.7;undefined;undefined;2560 x 1440;2560 x 1440
H042;27;Mannelijk;Rechts;3;94;right;no;150;rightarrow;366;true;focus;yes;1107897;Chrome;112.0;macOS;10.15.7;undefined;undefined;2560 x 1440;2560 x 1440
H042;27;Mannelijk;Rechts;3;95;left;no;150;leftarrow;308;true;focus;yes;1108976;Chrome;112.0;macOS;10.15.7;undefined;undefined;2560 x 1440;2560 x 1440
H042;27;Mannelijk;Rechts;3;96;right;yes;150;rightarrow;398;false;focus;yes;1110147;Chrome;112.0;macOS;10.15.7;undefined;undefined;2560 x 1440;2560 x 1440
H042;27;Mannelijk;Rechts;3;97;right;yes;100;undefined;null;true;focus;yes;1112167;Chrome;112.0;macOS;10.15.7;undefined;undefined;2560 x 1440;2560 x 1440
H042;27;Mannelijk;Rechts;3;98;left;no;150;leftarrow;389;true;focus;yes;1113320;Chrome;112.0;macOS;10.15.7;undefined;undefined;2560 x 1440;2560 x 1440
H042;27;Mannelijk;Rechts;3;99;left;no;150;leftarrow;350;true;focus;yes;1114444;Chrome;112.0;macOS;10.15.7;undefined;undefined;2560 x 1440;2560 x 1440
H042;27;Mannelijk;Rechts;3;100;left;no;150;leftarrow;365;true;focus;yes;1115569;Chrome;112.0;macOS;10.15.7;undefined;undefined;2560 x 1440;2560 x 1440
H042;27;Mannelijk;Rechts;3;101;right;no;150;rightarrow;398;true;focus;yes;1116739;Chrome;112.0;macOS;10.15.7;undefined;undefined;2560 x 1440;2560 x 1440
H042;27;Mannelijk;Rechts;3;102;right;no;150;rightarrow;417;true;focus;yes;1117933;Chrome;112.0;macOS;10.15.7;undefined;undefined;2560 x 1440;2560 x 1440
H042;27;Mannelijk;Rechts;3;103;right;no;150;rightarrow;393;true;focus;yes;1119101;Chrome;112.0;macOS;10.15.7;undefined;undefined;2560 x 1440;2560 x 1440
H042;27;Mannelijk;Rechts;3;104;left;yes;150;leftarrow;350;false;focus;yes;1120226;Chrome;112.0;macOS;10.15.7;undefined;undefined;2560 x 1440;2560 x 1440
H042;27;Mannelijk;Rechts;3;105;right;no;100;rightarrow;401;true;focus;yes;1121396;Chrome;112.0;macOS;10.15.7;undefined;undefined;2560 x 1440;2560 x 1440
H042;27;Mannelijk;Rechts;3;106;right;no;100;rightarrow;417;true;focus;yes;1122589;Chrome;112.0;macOS;10.15.7;undefined;undefined;2560 x 1440;2560 x 1440
H042;27;Mannelijk;Rechts;3;107;left;yes;100;leftarrow;439;false;focus;yes;1123805;Chrome;112.0;macOS;10.15.7;undefined;undefined;2560 x 1440;2560 x 1440
H042;27;Mannelijk;Rechts;3;108;left;no;50;leftarrow;349;true;focus;yes;1124929;Chrome;112.0;macOS;10.15.7;undefined;undefined;2560 x 1440;2560 x 1440
H042;27;Mannelijk;Rechts;3;109;left;no;50;leftarrow;501;true;focus;yes;1126212;Chrome;112.0;macOS;10.15.7;undefined;undefined;2560 x 1440;2560 x 1440
H042;27;Mannelijk;Rechts;3;110;left;no;50;leftarrow;393;true;focus;yes;1127381;Chrome;112.0;macOS;10.15.7;undefined;undefined;2560 x 1440;2560 x 1440
H042;27;Mannelijk;Rechts;3;111;right;yes;50;undefined;null;true;focus;yes;1129419;Chrome;112.0;macOS;10.15.7;undefined;undefined;2560 x 1440;2560 x 1440
H042;27;Mannelijk;Rechts;3;112;right;no;100;rightarrow;448;true;focus;yes;1130643;Chrome;112.0;macOS;10.15.7;undefined;undefined;2560 x 1440;2560 x 1440
H042;27;Mannelijk;Rechts;3;113;right;no;100;rightarrow;393;true;focus;yes;1131814;Chrome;112.0;macOS;10.15.7;undefined;undefined;2560 x 1440;2560 x 1440
H042;27;Mannelijk;Rechts;3;114;right;yes;100;undefined;null;true;focus;yes;1133847;Chrome;112.0;macOS;10.15.7;undefined;undefined;2560 x 1440;2560 x 1440
H042;27;Mannelijk;Rechts;3;115;left;yes;150;undefined;null;true;focus;yes;1135881;Chrome;112.0;macOS;10.15.7;undefined;undefined;2560 x 1440;2560 x 1440
H042;27;Mannelijk;Rechts;3;116;left;no;200;leftarrow;430;true;focus;yes;1137080;Chrome;112.0;macOS;10.15.7;undefined;undefined;2560 x 1440;2560 x 1440
H042;27;Mannelijk;Rechts;3;117;left;no;200;leftarrow;365;true;focus;yes;1138204;Chrome;112.0;macOS;10.15.7;undefined;undefined;2560 x 1440;2560 x 1440
H042;27;Mannelijk;Rechts;3;118;right;no;200;rightarrow;425;true;focus;yes;1139397;Chrome;112.0;macOS;10.15.7;undefined;undefined;2560 x 1440;2560 x 1440
H042;27;Mannelijk;Rechts;3;119;left;no;200;leftarrow;403;true;focus;yes;1140566;Chrome;112.0;macOS;10.15.7;undefined;undefined;2560 x 1440;2560 x 1440
H042;27;Mannelijk;Rechts;3;120;right;no;200;rightarrow;444;true;focus;yes;1141782;Chrome;112.0;macOS;10.15.7;undefined;undefined;2560 x 1440;2560 x 1440
H042;27;Mannelijk;Rechts;3;121;left;no;200;leftarrow;314;true;focus;yes;1142862;Chrome;112.0;macOS;10.15.7;undefined;undefined;2560 x 1440;2560 x 1440
H042;27;Mannelijk;Rechts;3;122;right;no;200;rightarrow;396;true;focus;yes;1144031;Chrome;112.0;macOS;10.15.7;undefined;undefined;2560 x 1440;2560 x 1440
H042;27;Mannelijk;Rechts;3;123;left;no;200;leftarrow;330;true;focus;yes;1145134;Chrome;112.0;macOS;10.15.7;undefined;undefined;2560 x 1440;2560 x 1440
H042;27;Mannelijk;Rechts;3;124;left;yes;200;leftarrow;397;false;focus;yes;1146304;Chrome;112.0;macOS;10.15.7;undefined;undefined;2560 x 1440;2560 x 1440
H042;27;Mannelijk;Rechts;3;125;right;no;150;rightarrow;384;true;focus;yes;1147451;Chrome;112.0;macOS;10.15.7;undefined;undefined;2560 x 1440;2560 x 1440
H042;27;Mannelijk;Rechts;3;126;left;no;150;leftarrow;335;true;focus;yes;1148553;Chrome;112.0;macOS;10.15.7;undefined;undefined;2560 x 1440;2560 x 1440
H042;27;Mannelijk;Rechts;3;127;right;yes;150;rightarrow;378;false;focus;yes;1149702;Chrome;112.0;macOS;10.15.7;undefined;undefined;2560 x 1440;2560 x 1440
H042;27;Mannelijk;Rechts;3;128;right;no;100;rightarrow;340;true;focus;yes;1150804;Chrome;112.0;macOS;10.15.7;undefined;undefined;2560 x 1440;2560 x 1440
H042;27;Mannelijk;Rechts;4;1;left;no;100;leftarrow;319;true;focus;yes;1182799;Chrome;112.0;macOS;10.15.7;undefined;undefined;2560 x 1440;2560 x 1440
H042;27;Mannelijk;Rechts;4;2;right;yes;100;rightarrow;351;false;focus;yes;1183925;Chrome;112.0;macOS;10.15.7;undefined;undefined;2560 x 1440;2560 x 1440
H042;27;Mannelijk;Rechts;4;3;right;no;50;leftarrow;313;false;focus;yes;1185005;Chrome;112.0;macOS;10.15.7;undefined;undefined;2560 x 1440;2560 x 1440
H042;27;Mannelijk;Rechts;4;4;left;no;50;leftarrow;318;true;focus;yes;1186085;Chrome;112.0;macOS;10.15.7;undefined;undefined;2560 x 1440;2560 x 1440
H042;27;Mannelijk;Rechts;4;5;right;no;50;rightarrow;313;true;focus;yes;1187165;Chrome;112.0;macOS;10.15.7;undefined;undefined;2560 x 1440;2560 x 1440
H042;27;Mannelijk;Rechts;4;6;right;no;50;rightarrow;397;true;focus;yes;1188337;Chrome;112.0;macOS;10.15.7;undefined;undefined;2560 x 1440;2560 x 1440
H042;27;Mannelijk;Rechts;4;7;left;yes;50;undefined;null;true;focus;yes;1190371;Chrome;112.0;macOS;10.15.7;undefined;undefined;2560 x 1440;2560 x 1440
H042;27;Mannelijk;Rechts;4;8;left;no;100;leftarrow;405;true;focus;yes;1191552;Chrome;112.0;macOS;10.15.7;undefined;undefined;2560 x 1440;2560 x 1440
H042;27;Mannelijk;Rechts;4;9;left;no;100;leftarrow;352;true;focus;yes;1192668;Chrome;112.0;macOS;10.15.7;undefined;undefined;2560 x 1440;2560 x 1440
H042;27;Mannelijk;Rechts;4;10;right;no;100;rightarrow;345;true;focus;yes;1193780;Chrome;112.0;macOS;10.15.7;undefined;undefined;2560 x 1440;2560 x 1440
H042;27;Mannelijk;Rechts;4;11;left;no;100;leftarrow;381;true;focus;yes;1194928;Chrome;112.0;macOS;10.15.7;undefined;undefined;2560 x 1440;2560 x 1440
H042;27;Mannelijk;Rechts;4;12;left;no;100;leftarrow;364;true;focus;yes;1196063;Chrome;112.0;macOS;10.15.7;undefined;undefined;2560 x 1440;2560 x 1440
H042;27;Mannelijk;Rechts;4;13;left;yes;100;undefined;null;true;focus;yes;1198095;Chrome;112.0;macOS;10.15.7;undefined;undefined;2560 x 1440;2560 x 1440
H042;27;Mannelijk;Rechts;4;14;right;yes;150;rightarrow;203;false;focus;yes;1199067;Chrome;112.0;macOS;10.15.7;undefined;undefined;2560 x 1440;2560 x 1440
H042;27;Mannelijk;Rechts;4;15;right;no;100;rightarrow;424;true;focus;yes;1200259;Chrome;112.0;macOS;10.15.7;undefined;undefined;2560 x 1440;2560 x 1440
H042;27;Mannelijk;Rechts;4;16;right;no;100;rightarrow;361;true;focus;yes;1201385;Chrome;112.0;macOS;10.15.7;undefined;undefined;2560 x 1440;2560 x 1440
H042;27;Mannelijk;Rechts;4;17;left;yes;100;undefined;null;true;focus;yes;1203427;Chrome;112.0;macOS;10.15.7;undefined;undefined;2560 x 1440;2560 x 1440
H042;27;Mannelijk;Rechts;4;18;left;no;150;leftarrow;357;true;focus;yes;1204556;Chrome;112.0;macOS;10.15.7;undefined;undefined;2560 x 1440;2560 x 1440
H042;27;Mannelijk;Rechts;4;19;right;no;150;rightarrow;393;true;focus;yes;1205727;Chrome;112.0;macOS;10.15.7;undefined;undefined;2560 x 1440;2560 x 1440
H042;27;Mannelijk;Rechts;4;20;left;no;150;leftarrow;328;true;focus;yes;1206829;Chrome;112.0;macOS;10.15.7;undefined;undefined;2560 x 1440;2560 x 1440
H042;27;Mannelijk;Rechts;4;21;left;no;150;leftarrow;373;true;focus;yes;1207977;Chrome;112.0;macOS;10.15.7;undefined;undefined;2560 x 1440;2560 x 1440
H042;27;Mannelijk;Rechts;4;22;right;yes;150;rightarrow;352;false;focus;yes;1209102;Chrome;112.0;macOS;10.15.7;undefined;undefined;2560 x 1440;2560 x 1440
H042;27;Mannelijk;Rechts;4;23;right;no;100;rightarrow;440;true;focus;yes;1210317;Chrome;112.0;macOS;10.15.7;undefined;undefined;2560 x 1440;2560 x 1440
H042;27;Mannelijk;Rechts;4;24;right;no;100;rightarrow;394;true;focus;yes;1211486;Chrome;112.0;macOS;10.15.7;undefined;undefined;2560 x 1440;2560 x 1440
H042;27;Mannelijk;Rechts;4;25;right;no;100;rightarrow;405;true;focus;yes;1212657;Chrome;112.0;macOS;10.15.7;undefined;undefined;2560 x 1440;2560 x 1440
H042;27;Mannelijk;Rechts;4;26;right;no;100;rightarrow;420;true;focus;yes;1213849;Chrome;112.0;macOS;10.15.7;undefined;undefined;2560 x 1440;2560 x 1440
H042;27;Mannelijk;Rechts;4;27;left;no;100;leftarrow;398;true;focus;yes;1215019;Chrome;112.0;macOS;10.15.7;undefined;undefined;2560 x 1440;2560 x 1440
H042;27;Mannelijk;Rechts;4;28;right;yes;100;undefined;null;true;focus;yes;1217039;Chrome;112.0;macOS;10.15.7;undefined;undefined;2560 x 1440;2560 x 1440
H042;27;Mannelijk;Rechts;4;29;right;no;150;rightarrow;468;true;focus;yes;1218284;Chrome;112.0;macOS;10.15.7;undefined;undefined;2560 x 1440;2560 x 1440
H042;27;Mannelijk;Rechts;4;30;left;yes;150;leftarrow;368;false;focus;yes;1219429;Chrome;112.0;macOS;10.15.7;undefined;undefined;2560 x 1440;2560 x 1440
H042;27;Mannelijk;Rechts;4;31;left;no;100;leftarrow;363;true;focus;yes;1220554;Chrome;112.0;macOS;10.15.7;undefined;undefined;2560 x 1440;2560 x 1440
H042;27;Mannelijk;Rechts;4;32;left;no;100;leftarrow;459;true;focus;yes;1221792;Chrome;112.0;macOS;10.15.7;undefined;undefined;2560 x 1440;2560 x 1440
H042;27;Mannelijk;Rechts;4;33;left;yes;100;undefined;null;true;focus;yes;1223811;Chrome;112.0;macOS;10.15.7;undefined;undefined;2560 x 1440;2560 x 1440
H042;27;Mannelijk;Rechts;4;34;right;no;150;rightarrow;339;true;focus;yes;1224920;Chrome;112.0;macOS;10.15.7;undefined;undefined;2560 x 1440;2560 x 1440
H042;27;Mannelijk;Rechts;4;35;left;no;150;leftarrow;361;true;focus;yes;1226044;Chrome;112.0;macOS;10.15.7;undefined;undefined;2560 x 1440;2560 x 1440
H042;27;Mannelijk;Rechts;4;36;right;yes;150;rightarrow;425;false;focus;yes;1227236;Chrome;112.0;macOS;10.15.7;undefined;undefined;2560 x 1440;2560 x 1440
H042;27;Mannelijk;Rechts;4;37;right;no;100;rightarrow;358;true;focus;yes;1228362;Chrome;112.0;macOS;10.15.7;undefined;undefined;2560 x 1440;2560 x 1440
H042;27;Mannelijk;Rechts;4;38;left;no;100;leftarrow;498;true;focus;yes;1229622;Chrome;112.0;macOS;10.15.7;undefined;undefined;2560 x 1440;2560 x 1440
H042;27;Mannelijk;Rechts;4;39;right;no;100;rightarrow;449;true;focus;yes;1230836;Chrome;112.0;macOS;10.15.7;undefined;undefined;2560 x 1440;2560 x 1440
H042;27;Mannelijk;Rechts;4;40;left;no;100;leftarrow;440;true;focus;yes;1232051;Chrome;112.0;macOS;10.15.7;undefined;undefined;2560 x 1440;2560 x 1440
H042;27;Mannelijk;Rechts;4;41;left;no;100;leftarrow;436;true;focus;yes;1233267;Chrome;112.0;macOS;10.15.7;undefined;undefined;2560 x 1440;2560 x 1440
H042;27;Mannelijk;Rechts;4;42;right;no;100;rightarrow;495;true;focus;yes;1234526;Chrome;112.0;macOS;10.15.7;undefined;undefined;2560 x 1440;2560 x 1440
H042;27;Mannelijk;Rechts;4;43;left;yes;100;undefined;null;true;focus;yes;1236543;Chrome;112.0;macOS;10.15.7;undefined;undefined;2560 x 1440;2560 x 1440
H042;27;Mannelijk;Rechts;4;44;right;no;150;rightarrow;344;true;focus;yes;1237656;Chrome;112.0;macOS;10.15.7;undefined;undefined;2560 x 1440;2560 x 1440
H042;27;Mannelijk;Rechts;4;45;left;no;150;leftarrow;375;true;focus;yes;1238802;Chrome;112.0;macOS;10.15.7;undefined;undefined;2560 x 1440;2560 x 1440
H042;27;Mannelijk;Rechts;4;46;left;no;150;leftarrow;389;true;focus;yes;1239972;Chrome;112.0;macOS;10.15.7;undefined;undefined;2560 x 1440;2560 x 1440
H042;27;Mannelijk;Rechts;4;47;right;yes;150;rightarrow;392;false;focus;yes;1241142;Chrome;112.0;macOS;10.15.7;undefined;undefined;2560 x 1440;2560 x 1440
H042;27;Mannelijk;Rechts;4;48;right;no;100;rightarrow;380;true;focus;yes;1242289;Chrome;112.0;macOS;10.15.7;undefined;undefined;2560 x 1440;2560 x 1440
H042;27;Mannelijk;Rechts;4;49;left;yes;100;leftarrow;343;false;focus;yes;1243414;Chrome;112.0;macOS;10.15.7;undefined;undefined;2560 x 1440;2560 x 1440
H042;27;Mannelijk;Rechts;4;50;left;no;50;leftarrow;315;true;focus;yes;1244495;Chrome;112.0;macOS;10.15.7;undefined;undefined;2560 x 1440;2560 x 1440
H042;27;Mannelijk;Rechts;4;51;right;no;50;rightarrow;404;true;focus;yes;1245664;Chrome;112.0;macOS;10.15.7;undefined;undefined;2560 x 1440;2560 x 1440
H042;27;Mannelijk;Rechts;4;52;right;no;50;rightarrow;397;true;focus;yes;1246834;Chrome;112.0;macOS;10.15.7;undefined;undefined;2560 x 1440;2560 x 1440
H042;27;Mannelijk;Rechts;4;53;left;no;50;leftarrow;436;true;focus;yes;1248050;Chrome;112.0;macOS;10.15.7;undefined;undefined;2560 x 1440;2560 x 1440
H042;27;Mannelijk;Rechts;4;54;left;no;50;leftarrow;374;true;focus;yes;1249196;Chrome;112.0;macOS;10.15.7;undefined;undefined;2560 x 1440;2560 x 1440
H042;27;Mannelijk;Rechts;4;55;right;no;50;rightarrow;348;true;focus;yes;1250321;Chrome;112.0;macOS;10.15.7;undefined;undefined;2560 x 1440;2560 x 1440
H042;27;Mannelijk;Rechts;4;56;right;yes;50;undefined;null;true;focus;yes;1252336;Chrome;112.0;macOS;10.15.7;undefined;undefined;2560 x 1440;2560 x 1440
H042;27;Mannelijk;Rechts;4;57;right;no;100;rightarrow;357;true;focus;yes;1253472;Chrome;112.0;macOS;10.15.7;undefined;undefined;2560 x 1440;2560 x 1440
H042;27;Mannelijk;Rechts;4;58;right;yes;100;rightarrow;362;false;focus;yes;1254598;Chrome;112.0;macOS;10.15.7;undefined;undefined;2560 x 1440;2560 x 1440
H042;27;Mannelijk;Rechts;4;59;left;no;50;leftarrow;402;true;focus;yes;1255767;Chrome;112.0;macOS;10.15.7;undefined;undefined;2560 x 1440;2560 x 1440
H042;27;Mannelijk;Rechts;4;60;left;no;50;leftarrow;387;true;focus;yes;1256926;Chrome;112.0;macOS;10.15.7;undefined;undefined;2560 x 1440;2560 x 1440
H042;27;Mannelijk;Rechts;4;61;right;no;50;rightarrow;407;true;focus;yes;1258107;Chrome;112.0;macOS;10.15.7;undefined;undefined;2560 x 1440;2560 x 1440
H042;27;Mannelijk;Rechts;4;62;right;no;50;rightarrow;377;true;focus;yes;1259254;Chrome;112.0;macOS;10.15.7;undefined;undefined;2560 x 1440;2560 x 1440
H042;27;Mannelijk;Rechts;4;63;left;no;50;leftarrow;360;true;focus;yes;1260379;Chrome;112.0;macOS;10.15.7;undefined;undefined;2560 x 1440;2560 x 1440
H042;27;Mannelijk;Rechts;4;64;left;yes;50;leftarrow;357;false;focus;yes;1261504;Chrome;112.0;macOS;10.15.7;undefined;undefined;2560 x 1440;2560 x 1440
H042;27;Mannelijk;Rechts;4;65;left;yes;50;leftarrow;330;false;focus;yes;1262606;Chrome;112.0;macOS;10.15.7;undefined;undefined;2560 x 1440;2560 x 1440
H042;27;Mannelijk;Rechts;4;66;right;no;50;rightarrow;427;true;focus;yes;1263799;Chrome;112.0;macOS;10.15.7;undefined;undefined;2560 x 1440;2560 x 1440
H042;27;Mannelijk;Rechts;4;67;left;no;50;leftarrow;387;true;focus;yes;1264946;Chrome;112.0;macOS;10.15.7;undefined;undefined;2560 x 1440;2560 x 1440
H042;27;Mannelijk;Rechts;4;68;right;yes;50;rightarrow;346;false;focus;yes;1266072;Chrome;112.0;macOS;10.15.7;undefined;undefined;2560 x 1440;2560 x 1440
H042;27;Mannelijk;Rechts;4;69;left;no;50;leftarrow;362;true;focus;yes;1267197;Chrome;112.0;macOS;10.15.7;undefined;undefined;2560 x 1440;2560 x 1440
H042;27;Mannelijk;Rechts;4;70;right;no;50;rightarrow;384;true;focus;yes;1268344;Chrome;112.0;macOS;10.15.7;undefined;undefined;2560 x 1440;2560 x 1440
H042;27;Mannelijk;Rechts;4;71;right;no;50;rightarrow;586;true;focus;yes;1269694;Chrome;112.0;macOS;10.15.7;undefined;undefined;2560 x 1440;2560 x 1440
H042;27;Mannelijk;Rechts;4;72;left;no;50;leftarrow;374;true;focus;yes;1270842;Chrome;112.0;macOS;10.15.7;undefined;undefined;2560 x 1440;2560 x 1440
H042;27;Mannelijk;Rechts;4;73;left;no;50;leftarrow;388;true;focus;yes;1272012;Chrome;112.0;macOS;10.15.7;undefined;undefined;2560 x 1440;2560 x 1440
H042;27;Mannelijk;Rechts;4;74;right;no;50;rightarrow;392;true;focus;yes;1273181;Chrome;112.0;macOS;10.15.7;undefined;undefined;2560 x 1440;2560 x 1440
H042;27;Mannelijk;Rechts;4;75;left;no;50;leftarrow;336;true;focus;yes;1274284;Chrome;112.0;macOS;10.15.7;undefined;undefined;2560 x 1440;2560 x 1440
H042;27;Mannelijk;Rechts;4;76;right;yes;50;undefined;null;true;focus;yes;1276312;Chrome;112.0;macOS;10.15.7;undefined;undefined;2560 x 1440;2560 x 1440
H042;27;Mannelijk;Rechts;4;77;right;no;100;rightarrow;372;true;focus;yes;1277457;Chrome;112.0;macOS;10.15.7;undefined;undefined;2560 x 1440;2560 x 1440
H042;27;Mannelijk;Rechts;4;78;left;yes;100;leftarrow;306;false;focus;yes;1278537;Chrome;112.0;macOS;10.15.7;undefined;undefined;2560 x 1440;2560 x 1440
H042;27;Mannelijk;Rechts;4;79;left;no;50;leftarrow;428;true;focus;yes;1279729;Chrome;112.0;macOS;10.15.7;undefined;undefined;2560 x 1440;2560 x 1440
H042;27;Mannelijk;Rechts;4;80;right;no;50;rightarrow;399;true;focus;yes;1280899;Chrome;112.0;macOS;10.15.7;undefined;undefined;2560 x 1440;2560 x 1440
H042;27;Mannelijk;Rechts;4;81;right;no;50;rightarrow;391;true;focus;yes;1282070;Chrome;112.0;macOS;10.15.7;undefined;undefined;2560 x 1440;2560 x 1440
H042;27;Mannelijk;Rechts;4;82;left;no;50;leftarrow;381;true;focus;yes;1283217;Chrome;112.0;macOS;10.15.7;undefined;undefined;2560 x 1440;2560 x 1440
H042;27;Mannelijk;Rechts;4;83;right;yes;50;undefined;null;true;focus;yes;1285251;Chrome;112.0;macOS;10.15.7;undefined;undefined;2560 x 1440;2560 x 1440
H042;27;Mannelijk;Rechts;4;84;right;no;100;rightarrow;339;true;focus;yes;1286367;Chrome;112.0;macOS;10.15.7;undefined;undefined;2560 x 1440;2560 x 1440
H042;27;Mannelijk;Rechts;4;85;right;no;100;rightarrow;350;true;focus;yes;1287492;Chrome;112.0;macOS;10.15.7;undefined;undefined;2560 x 1440;2560 x 1440
H042;27;Mannelijk;Rechts;4;86;left;no;100;leftarrow;480;true;focus;yes;1288752;Chrome;112.0;macOS;10.15.7;undefined;undefined;2560 x 1440;2560 x 1440
H042;27;Mannelijk;Rechts;4;87;left;no;100;leftarrow;382;true;focus;yes;1289899;Chrome;112.0;macOS;10.15.7;undefined;undefined;2560 x 1440;2560 x 1440
H042;27;Mannelijk;Rechts;4;88;left;yes;100;leftarrow;379;false;focus;yes;1291047;Chrome;112.0;macOS;10.15.7;undefined;undefined;2560 x 1440;2560 x 1440
H042;27;Mannelijk;Rechts;4;89;left;no;50;leftarrow;349;true;focus;yes;1292172;Chrome;112.0;macOS;10.15.7;undefined;undefined;2560 x 1440;2560 x 1440
H042;27;Mannelijk;Rechts;4;90;left;no;50;leftarrow;356;true;focus;yes;1293297;Chrome;112.0;macOS;10.15.7;undefined;undefined;2560 x 1440;2560 x 1440
H042;27;Mannelijk;Rechts;4;91;right;yes;50;undefined;null;true;focus;yes;1295336;Chrome;112.0;macOS;10.15.7;undefined;undefined;2560 x 1440;2560 x 1440
H042;27;Mannelijk;Rechts;4;92;right;no;100;rightarrow;357;true;focus;yes;1296469;Chrome;112.0;macOS;10.15.7;undefined;undefined;2560 x 1440;2560 x 1440
H042;27;Mannelijk;Rechts;4;93;right;no;100;rightarrow;372;true;focus;yes;1297617;Chrome;112.0;macOS;10.15.7;undefined;undefined;2560 x 1440;2560 x 1440
H042;27;Mannelijk;Rechts;4;94;left;no;100;leftarrow;434;true;focus;yes;1298810;Chrome;112.0;macOS;10.15.7;undefined;undefined;2560 x 1440;2560 x 1440
H042;27;Mannelijk;Rechts;4;95;left;yes;100;leftarrow;390;false;focus;yes;1299979;Chrome;112.0;macOS;10.15.7;undefined;undefined;2560 x 1440;2560 x 1440
H042;27;Mannelijk;Rechts;4;96;right;no;50;rightarrow;379;true;focus;yes;1301127;Chrome;112.0;macOS;10.15.7;undefined;undefined;2560 x 1440;2560 x 1440
H042;27;Mannelijk;Rechts;4;97;left;no;50;leftarrow;407;true;focus;yes;1302298;Chrome;112.0;macOS;10.15.7;undefined;undefined;2560 x 1440;2560 x 1440
H042;27;Mannelijk;Rechts;4;98;right;no;50;rightarrow;441;true;focus;yes;1303511;Chrome;112.0;macOS;10.15.7;undefined;undefined;2560 x 1440;2560 x 1440
H042;27;Mannelijk;Rechts;4;99;right;no;50;rightarrow;450;true;focus;yes;1304727;Chrome;112.0;macOS;10.15.7;undefined;undefined;2560 x 1440;2560 x 1440
H042;27;Mannelijk;Rechts;4;100;right;yes;50;undefined;null;true;focus;yes;1306759;Chrome;112.0;macOS;10.15.7;undefined;undefined;2560 x 1440;2560 x 1440
H042;27;Mannelijk;Rechts;4;101;left;no;100;leftarrow;415;true;focus;yes;1307944;Chrome;112.0;macOS;10.15.7;undefined;undefined;2560 x 1440;2560 x 1440
H042;27;Mannelijk;Rechts;4;102;left;yes;100;leftarrow;375;false;focus;yes;1309092;Chrome;112.0;macOS;10.15.7;undefined;undefined;2560 x 1440;2560 x 1440
H042;27;Mannelijk;Rechts;4;103;left;no;50;leftarrow;325;true;focus;yes;1310195;Chrome;112.0;macOS;10.15.7;undefined;undefined;2560 x 1440;2560 x 1440
H042;27;Mannelijk;Rechts;4;104;right;no;50;rightarrow;511;true;focus;yes;1311476;Chrome;112.0;macOS;10.15.7;undefined;undefined;2560 x 1440;2560 x 1440
H042;27;Mannelijk;Rechts;4;105;left;no;50;leftarrow;358;true;focus;yes;1312602;Chrome;112.0;macOS;10.15.7;undefined;undefined;2560 x 1440;2560 x 1440
H042;27;Mannelijk;Rechts;4;106;right;yes;50;undefined;null;true;focus;yes;1314631;Chrome;112.0;macOS;10.15.7;undefined;undefined;2560 x 1440;2560 x 1440
H042;27;Mannelijk;Rechts;4;107;right;no;100;rightarrow;418;true;focus;yes;1315820;Chrome;112.0;macOS;10.15.7;undefined;undefined;2560 x 1440;2560 x 1440
H042;27;Mannelijk;Rechts;4;108;left;no;100;leftarrow;367;true;focus;yes;1316956;Chrome;112.0;macOS;10.15.7;undefined;undefined;2560 x 1440;2560 x 1440
H042;27;Mannelijk;Rechts;4;109;left;no;100;leftarrow;367;true;focus;yes;1318091;Chrome;112.0;macOS;10.15.7;undefined;undefined;2560 x 1440;2560 x 1440
H042;27;Mannelijk;Rechts;4;110;left;yes;100;undefined;null;true;focus;yes;1320127;Chrome;112.0;macOS;10.15.7;undefined;undefined;2560 x 1440;2560 x 1440
H042;27;Mannelijk;Rechts;4;111;right;no;150;rightarrow;234;true;focus;yes;1321129;Chrome;112.0;macOS;10.15.7;undefined;undefined;2560 x 1440;2560 x 1440
H042;27;Mannelijk;Rechts;4;112;right;no;150;rightarrow;353;true;focus;yes;1322255;Chrome;112.0;macOS;10.15.7;undefined;undefined;2560 x 1440;2560 x 1440
H042;27;Mannelijk;Rechts;4;113;left;no;150;leftarrow;724;true;focus;yes;1323740;Chrome;112.0;macOS;10.15.7;undefined;undefined;2560 x 1440;2560 x 1440
H042;27;Mannelijk;Rechts;4;114;left;yes;150;undefined;null;true;focus;yes;1325776;Chrome;112.0;macOS;10.15.7;undefined;undefined;2560 x 1440;2560 x 1440
H042;27;Mannelijk;Rechts;4;115;left;no;200;leftarrow;363;true;focus;yes;1326913;Chrome;112.0;macOS;10.15.7;undefined;undefined;2560 x 1440;2560 x 1440
H042;27;Mannelijk;Rechts;4;116;left;no;200;leftarrow;601;true;focus;yes;1328287;Chrome;112.0;macOS;10.15.7;undefined;undefined;2560 x 1440;2560 x 1440
H042;27;Mannelijk;Rechts;4;117;right;yes;200;rightarrow;494;false;focus;yes;1329545;Chrome;112.0;macOS;10.15.7;undefined;undefined;2560 x 1440;2560 x 1440
H042;27;Mannelijk;Rechts;4;118;right;no;150;rightarrow;643;true;focus;yes;1330962;Chrome;112.0;macOS;10.15.7;undefined;undefined;2560 x 1440;2560 x 1440
H042;27;Mannelijk;Rechts;4;119;right;no;150;rightarrow;503;true;focus;yes;1332245;Chrome;112.0;macOS;10.15.7;undefined;undefined;2560 x 1440;2560 x 1440
H042;27;Mannelijk;Rechts;4;120;right;no;150;rightarrow;428;true;focus;yes;1333437;Chrome;112.0;macOS;10.15.7;undefined;undefined;2560 x 1440;2560 x 1440
H042;27;Mannelijk;Rechts;4;121;left;no;150;leftarrow;528;true;focus;yes;1334742;Chrome;112.0;macOS;10.15.7;undefined;undefined;2560 x 1440;2560 x 1440
H042;27;Mannelijk;Rechts;4;122;right;yes;150;undefined;null;true;focus;yes;1336770;Chrome;112.0;macOS;10.15.7;undefined;undefined;2560 x 1440;2560 x 1440
H042;27;Mannelijk;Rechts;4;123;right;no;200;rightarrow;520;true;focus;yes;1338072;Chrome;112.0;macOS;10.15.7;undefined;undefined;2560 x 1440;2560 x 1440
H042;27;Mannelijk;Rechts;4;124;left;no;200;leftarrow;420;true;focus;yes;1339264;Chrome;112.0;macOS;10.15.7;undefined;undefined;2560 x 1440;2560 x 1440
H042;27;Mannelijk;Rechts;4;125;right;no;200;rightarrow;531;true;focus;yes;1340567;Chrome;112.0;macOS;10.15.7;undefined;undefined;2560 x 1440;2560 x 1440
H042;27;Mannelijk;Rechts;4;126;left;no;200;leftarrow;475;true;focus;yes;1341807;Chrome;112.0;macOS;10.15.7;undefined;undefined;2560 x 1440;2560 x 1440
H042;27;Mannelijk;Rechts;4;127;right;no;200;rightarrow;462;true;focus;yes;1343045;Chrome;112.0;macOS;10.15.7;undefined;undefined;2560 x 1440;2560 x 1440
H042;27;Mannelijk;Rechts;4;128;left;yes;200;leftarrow;335;false;focus;yes;1344148;Chrome;112.0;macOS;10.15.7;undefined;undefined;2560 x 1440;2560 x 1440
H042;27;Mannelijk;Rechts;5;1;left;no;150;leftarrow;381;true;focus;yes;1363610;Chrome;112.0;macOS;10.15.7;undefined;undefined;2560 x 1440;2560 x 1440
H042;27;Mannelijk;Rechts;5;2;right;no;150;rightarrow;388;true;focus;yes;1364779;Chrome;112.0;macOS;10.15.7;undefined;undefined;2560 x 1440;2560 x 1440
H042;27;Mannelijk;Rechts;5;3;left;no;150;leftarrow;337;true;focus;yes;1365881;Chrome;112.0;macOS;10.15.7;undefined;undefined;2560 x 1440;2560 x 1440
H042;27;Mannelijk;Rechts;5;4;right;no;150;rightarrow;286;true;focus;yes;1366939;Chrome;112.0;macOS;10.15.7;undefined;undefined;2560 x 1440;2560 x 1440
H042;27;Mannelijk;Rechts;5;5;left;yes;150;leftarrow;301;false;focus;yes;1368019;Chrome;112.0;macOS;10.15.7;undefined;undefined;2560 x 1440;2560 x 1440
H042;27;Mannelijk;Rechts;5;6;left;no;100;leftarrow;345;true;focus;yes;1369145;Chrome;112.0;macOS;10.15.7;undefined;undefined;2560 x 1440;2560 x 1440
H042;27;Mannelijk;Rechts;5;7;right;yes;100;rightarrow;374;false;focus;yes;1370292;Chrome;112.0;macOS;10.15.7;undefined;undefined;2560 x 1440;2560 x 1440
H042;27;Mannelijk;Rechts;5;8;right;no;50;rightarrow;310;true;focus;yes;1371372;Chrome;112.0;macOS;10.15.7;undefined;undefined;2560 x 1440;2560 x 1440
H042;27;Mannelijk;Rechts;5;9;right;no;50;rightarrow;415;true;focus;yes;1372564;Chrome;112.0;macOS;10.15.7;undefined;undefined;2560 x 1440;2560 x 1440
H042;27;Mannelijk;Rechts;5;10;left;no;50;leftarrow;381;true;focus;yes;1373714;Chrome;112.0;macOS;10.15.7;undefined;undefined;2560 x 1440;2560 x 1440
H042;27;Mannelijk;Rechts;5;11;right;yes;50;rightarrow;284;false;focus;yes;1374770;Chrome;112.0;macOS;10.15.7;undefined;undefined;2560 x 1440;2560 x 1440
H042;27;Mannelijk;Rechts;5;12;right;no;50;rightarrow;374;true;focus;yes;1375916;Chrome;112.0;macOS;10.15.7;undefined;undefined;2560 x 1440;2560 x 1440
H042;27;Mannelijk;Rechts;5;13;right;no;50;rightarrow;460;true;focus;yes;1377154;Chrome;112.0;macOS;10.15.7;undefined;undefined;2560 x 1440;2560 x 1440
H042;27;Mannelijk;Rechts;5;14;left;yes;50;undefined;null;true;focus;yes;1379188;Chrome;112.0;macOS;10.15.7;undefined;undefined;2560 x 1440;2560 x 1440
H042;27;Mannelijk;Rechts;5;15;left;no;100;leftarrow;450;true;focus;yes;1380418;Chrome;112.0;macOS;10.15.7;undefined;undefined;2560 x 1440;2560 x 1440
H042;27;Mannelijk;Rechts;5;16;left;no;100;leftarrow;390;true;focus;yes;1381586;Chrome;112.0;macOS;10.15.7;undefined;undefined;2560 x 1440;2560 x 1440
H042;27;Mannelijk;Rechts;5;17;left;yes;100;leftarrow;344;false;focus;yes;1382712;Chrome;112.0;macOS;10.15.7;undefined;undefined;2560 x 1440;2560 x 1440
H042;27;Mannelijk;Rechts;5;18;right;yes;50;undefined;null;true;focus;yes;1384737;Chrome;112.0;macOS;10.15.7;undefined;undefined;2560 x 1440;2560 x 1440
H042;27;Mannelijk;Rechts;5;19;right;no;100;rightarrow;373;true;focus;yes;1385886;Chrome;112.0;macOS;10.15.7;undefined;undefined;2560 x 1440;2560 x 1440
H042;27;Mannelijk;Rechts;5;20;right;no;100;rightarrow;518;true;focus;yes;1387167;Chrome;112.0;macOS;10.15.7;undefined;undefined;2560 x 1440;2560 x 1440
H042;27;Mannelijk;Rechts;5;21;left;no;100;leftarrow;439;true;focus;yes;1388381;Chrome;112.0;macOS;10.15.7;undefined;undefined;2560 x 1440;2560 x 1440
H042;27;Mannelijk;Rechts;5;22;left;no;100;leftarrow;407;true;focus;yes;1389552;Chrome;112.0;macOS;10.15.7;undefined;undefined;2560 x 1440;2560 x 1440
H042;27;Mannelijk;Rechts;5;23;right;no;100;rightarrow;565;true;focus;yes;1390882;Chrome;112.0;macOS;10.15.7;undefined;undefined;2560 x 1440;2560 x 1440
H042;27;Mannelijk;Rechts;5;24;left;no;100;leftarrow;376;true;focus;yes;1392027;Chrome;112.0;macOS;10.15.7;undefined;undefined;2560 x 1440;2560 x 1440
H042;27;Mannelijk;Rechts;5;25;right;no;100;rightarrow;444;true;focus;yes;1393242;Chrome;112.0;macOS;10.15.7;undefined;undefined;2560 x 1440;2560 x 1440
H042;27;Mannelijk;Rechts;5;26;right;yes;100;rightarrow;523;false;focus;yes;1394548;Chrome;112.0;macOS;10.15.7;undefined;undefined;2560 x 1440;2560 x 1440
H042;27;Mannelijk;Rechts;5;27;left;no;50;leftarrow;417;true;focus;yes;1395741;Chrome;112.0;macOS;10.15.7;undefined;undefined;2560 x 1440;2560 x 1440
H042;27;Mannelijk;Rechts;5;28;left;no;50;leftarrow;391;true;focus;yes;1396909;Chrome;112.0;macOS;10.15.7;undefined;undefined;2560 x 1440;2560 x 1440
H042;27;Mannelijk;Rechts;5;29;right;no;50;rightarrow;523;true;focus;yes;1398195;Chrome;112.0;macOS;10.15.7;undefined;undefined;2560 x 1440;2560 x 1440
H042;27;Mannelijk;Rechts;5;30;left;no;50;leftarrow;376;true;focus;yes;1399340;Chrome;112.0;macOS;10.15.7;undefined;undefined;2560 x 1440;2560 x 1440
H042;27;Mannelijk;Rechts;5;31;right;no;50;rightarrow;403;true;focus;yes;1400511;Chrome;112.0;macOS;10.15.7;undefined;undefined;2560 x 1440;2560 x 1440
H042;27;Mannelijk;Rechts;5;32;left;yes;50;leftarrow;382;false;focus;yes;1401658;Chrome;112.0;macOS;10.15.7;undefined;undefined;2560 x 1440;2560 x 1440
H042;27;Mannelijk;Rechts;5;33;right;yes;50;undefined;null;true;focus;yes;1403692;Chrome;112.0;macOS;10.15.7;undefined;undefined;2560 x 1440;2560 x 1440
H042;27;Mannelijk;Rechts;5;34;right;no;100;rightarrow;437;true;focus;yes;1404898;Chrome;112.0;macOS;10.15.7;undefined;undefined;2560 x 1440;2560 x 1440
H042;27;Mannelijk;Rechts;5;35;right;no;100;rightarrow;397;true;focus;yes;1406067;Chrome;112.0;macOS;10.15.7;undefined;undefined;2560 x 1440;2560 x 1440
H042;27;Mannelijk;Rechts;5;36;left;no;100;rightarrow;806;false;focus;yes;1407642;Chrome;112.0;macOS;10.15.7;undefined;undefined;2560 x 1440;2560 x 1440
H042;27;Mannelijk;Rechts;5;37;left;yes;100;undefined;null;true;focus;yes;1409682;Chrome;112.0;macOS;10.15.7;undefined;undefined;2560 x 1440;2560 x 1440
H042;27;Mannelijk;Rechts;5;38;left;no;150;leftarrow;463;true;focus;yes;1410927;Chrome;112.0;macOS;10.15.7;undefined;undefined;2560 x 1440;2560 x 1440
H042;27;Mannelijk;Rechts;5;39;right;no;150;rightarrow;427;true;focus;yes;1412120;Chrome;112.0;macOS;10.15.7;undefined;undefined;2560 x 1440;2560 x 1440
H042;27;Mannelijk;Rechts;5;40;left;no;150;leftarrow;383;true;focus;yes;1413267;Chrome;112.0;macOS;10.15.7;undefined;undefined;2560 x 1440;2560 x 1440
H042;27;Mannelijk;Rechts;5;41;left;no;150;leftarrow;355;true;focus;yes;1414391;Chrome;112.0;macOS;10.15.7;undefined;undefined;2560 x 1440;2560 x 1440
H042;27;Mannelijk;Rechts;5;42;right;no;150;rightarrow;417;true;focus;yes;1415583;Chrome;112.0;macOS;10.15.7;undefined;undefined;2560 x 1440;2560 x 1440
H042;27;Mannelijk;Rechts;5;43;right;no;150;rightarrow;407;true;focus;yes;1416755;Chrome;112.0;macOS;10.15.7;undefined;undefined;2560 x 1440;2560 x 1440
H042;27;Mannelijk;Rechts;5;44;left;no;150;leftarrow;359;true;focus;yes;1417882;Chrome;112.0;macOS;10.15.7;undefined;undefined;2560 x 1440;2560 x 1440
H042;27;Mannelijk;Rechts;5;45;left;no;150;leftarrow;372;true;focus;yes;1419027;Chrome;112.0;macOS;10.15.7;undefined;undefined;2560 x 1440;2560 x 1440
H042;27;Mannelijk;Rechts;5;46;right;yes;150;rightarrow;439;false;focus;yes;1420243;Chrome;112.0;macOS;10.15.7;undefined;undefined;2560 x 1440;2560 x 1440
H042;27;Mannelijk;Rechts;5;47;right;no;100;rightarrow;376;true;focus;yes;1421388;Chrome;112.0;macOS;10.15.7;undefined;undefined;2560 x 1440;2560 x 1440
H042;27;Mannelijk;Rechts;5;48;left;yes;100;undefined;null;true;focus;yes;1423428;Chrome;112.0;macOS;10.15.7;undefined;undefined;2560 x 1440;2560 x 1440
H042;27;Mannelijk;Rechts;5;49;right;no;150;rightarrow;467;true;focus;yes;1424676;Chrome;112.0;macOS;10.15.7;undefined;undefined;2560 x 1440;2560 x 1440
H042;27;Mannelijk;Rechts;5;50;right;no;150;rightarrow;377;true;focus;yes;1425823;Chrome;112.0;macOS;10.15.7;undefined;undefined;2560 x 1440;2560 x 1440
H042;27;Mannelijk;Rechts;5;51;right;yes;150;rightarrow;427;false;focus;yes;1427015;Chrome;112.0;macOS;10.15.7;undefined;undefined;2560 x 1440;2560 x 1440
H042;27;Mannelijk;Rechts;5;52;left;yes;100;leftarrow;383;false;focus;yes;1428164;Chrome;112.0;macOS;10.15.7;undefined;undefined;2560 x 1440;2560 x 1440
H042;27;Mannelijk;Rechts;5;53;right;no;50;rightarrow;782;true;focus;yes;1429715;Chrome;112.0;macOS;10.15.7;undefined;undefined;2560 x 1440;2560 x 1440
H042;27;Mannelijk;Rechts;5;54;left;no;50;leftarrow;593;true;focus;yes;1431086;Chrome;112.0;macOS;10.15.7;undefined;undefined;2560 x 1440;2560 x 1440
H042;27;Mannelijk;Rechts;5;55;left;no;50;leftarrow;439;true;focus;yes;1432301;Chrome;112.0;macOS;10.15.7;undefined;undefined;2560 x 1440;2560 x 1440
H042;27;Mannelijk;Rechts;5;56;left;no;50;leftarrow;426;true;focus;yes;1433495;Chrome;112.0;macOS;10.15.7;undefined;undefined;2560 x 1440;2560 x 1440
H042;27;Mannelijk;Rechts;5;57;left;no;50;leftarrow;381;true;focus;yes;1434642;Chrome;112.0;macOS;10.15.7;undefined;undefined;2560 x 1440;2560 x 1440
H042;27;Mannelijk;Rechts;5;58;right;no;50;rightarrow;378;true;focus;yes;1435790;Chrome;112.0;macOS;10.15.7;undefined;undefined;2560 x 1440;2560 x 1440
H042;27;Mannelijk;Rechts;5;59;right;no;50;rightarrow;521;true;focus;yes;1437073;Chrome;112.0;macOS;10.15.7;undefined;undefined;2560 x 1440;2560 x 1440
H042;27;Mannelijk;Rechts;5;60;left;no;50;leftarrow;384;true;focus;yes;1438221;Chrome;112.0;macOS;10.15.7;undefined;undefined;2560 x 1440;2560 x 1440
H042;27;Mannelijk;Rechts;5;61;left;no;50;leftarrow;391;true;focus;yes;1439389;Chrome;112.0;macOS;10.15.7;undefined;undefined;2560 x 1440;2560 x 1440
H042;27;Mannelijk;Rechts;5;62;left;yes;50;leftarrow;370;false;focus;yes;1440536;Chrome;112.0;macOS;10.15.7;undefined;undefined;2560 x 1440;2560 x 1440
H042;27;Mannelijk;Rechts;5;63;right;yes;50;undefined;null;true;focus;yes;1442563;Chrome;112.0;macOS;10.15.7;undefined;undefined;2560 x 1440;2560 x 1440
H042;27;Mannelijk;Rechts;5;64;right;no;100;rightarrow;433;true;focus;yes;1443778;Chrome;112.0;macOS;10.15.7;undefined;undefined;2560 x 1440;2560 x 1440
H042;27;Mannelijk;Rechts;5;65;right;yes;100;undefined;null;true;focus;yes;1445809;Chrome;112.0;macOS;10.15.7;undefined;undefined;2560 x 1440;2560 x 1440
H042;27;Mannelijk;Rechts;5;66;left;yes;150;leftarrow;386;false;focus;yes;1446975;Chrome;112.0;macOS;10.15.7;undefined;undefined;2560 x 1440;2560 x 1440
H042;27;Mannelijk;Rechts;5;67;left;no;100;leftarrow;1082;true;focus;yes;1448819;Chrome;112.0;macOS;10.15.7;undefined;undefined;2560 x 1440;2560 x 1440
H042;27;Mannelijk;Rechts;5;68;right;no;100;rightarrow;702;true;focus;yes;1450303;Chrome;112.0;macOS;10.15.7;undefined;undefined;2560 x 1440;2560 x 1440
H042;27;Mannelijk;Rechts;5;69;right;no;100;rightarrow;440;true;focus;yes;1451517;Chrome;112.0;macOS;10.15.7;undefined;undefined;2560 x 1440;2560 x 1440
H042;27;Mannelijk;Rechts;5;70;right;no;100;rightarrow;582;true;focus;yes;1452867;Chrome;112.0;macOS;10.15.7;undefined;undefined;2560 x 1440;2560 x 1440
H042;27;Mannelijk;Rechts;5;71;left;no;100;leftarrow;410;true;focus;yes;1454059;Chrome;112.0;macOS;10.15.7;undefined;undefined;2560 x 1440;2560 x 1440
H042;27;Mannelijk;Rechts;5;72;left;no;100;leftarrow;356;true;focus;yes;1455184;Chrome;112.0;macOS;10.15.7;undefined;undefined;2560 x 1440;2560 x 1440
H042;27;Mannelijk;Rechts;5;73;left;no;100;leftarrow;339;true;focus;yes;1456287;Chrome;112.0;macOS;10.15.7;undefined;undefined;2560 x 1440;2560 x 1440
H042;27;Mannelijk;Rechts;5;74;left;no;100;leftarrow;326;true;focus;yes;1457390;Chrome;112.0;macOS;10.15.7;undefined;undefined;2560 x 1440;2560 x 1440
H042;27;Mannelijk;Rechts;5;75;right;no;100;rightarrow;455;true;focus;yes;1458608;Chrome;112.0;macOS;10.15.7;undefined;undefined;2560 x 1440;2560 x 1440
H042;27;Mannelijk;Rechts;5;76;left;no;100;leftarrow;350;true;focus;yes;1459732;Chrome;112.0;macOS;10.15.7;undefined;undefined;2560 x 1440;2560 x 1440
H042;27;Mannelijk;Rechts;5;77;right;no;100;rightarrow;344;true;focus;yes;1460854;Chrome;112.0;macOS;10.15.7;undefined;undefined;2560 x 1440;2560 x 1440
H042;27;Mannelijk;Rechts;5;78;left;yes;100;leftarrow;291;false;focus;yes;1461912;Chrome;112.0;macOS;10.15.7;undefined;undefined;2560 x 1440;2560 x 1440
H042;27;Mannelijk;Rechts;5;79;right;yes;50;undefined;null;true;focus;yes;1463927;Chrome;112.0;macOS;10.15.7;undefined;undefined;2560 x 1440;2560 x 1440
H042;27;Mannelijk;Rechts;5;80;right;no;100;rightarrow;471;true;focus;yes;1465174;Chrome;112.0;macOS;10.15.7;undefined;undefined;2560 x 1440;2560 x 1440
H042;27;Mannelijk;Rechts;5;81;left;yes;100;undefined;null;true;focus;yes;1467196;Chrome;112.0;macOS;10.15.7;undefined;undefined;2560 x 1440;2560 x 1440
H042;27;Mannelijk;Rechts;5;82;right;yes;150;rightarrow;382;false;focus;yes;1468348;Chrome;112.0;macOS;10.15.7;undefined;undefined;2560 x 1440;2560 x 1440
H042;27;Mannelijk;Rechts;5;83;right;no;100;rightarrow;581;true;focus;yes;1469697;Chrome;112.0;macOS;10.15.7;undefined;undefined;2560 x 1440;2560 x 1440
H042;27;Mannelijk;Rechts;5;84;left;no;100;leftarrow;418;true;focus;yes;1470890;Chrome;112.0;macOS;10.15.7;undefined;undefined;2560 x 1440;2560 x 1440
H042;27;Mannelijk;Rechts;5;85;right;no;100;rightarrow;399;true;focus;yes;1472060;Chrome;112.0;macOS;10.15.7;undefined;undefined;2560 x 1440;2560 x 1440
H042;27;Mannelijk;Rechts;5;86;left;no;100;leftarrow;584;true;focus;yes;1473410;Chrome;112.0;macOS;10.15.7;undefined;undefined;2560 x 1440;2560 x 1440
H042;27;Mannelijk;Rechts;5;87;right;no;100;rightarrow;387;true;focus;yes;1474580;Chrome;112.0;macOS;10.15.7;undefined;undefined;2560 x 1440;2560 x 1440
H042;27;Mannelijk;Rechts;5;88;left;no;100;leftarrow;356;true;focus;yes;1475705;Chrome;112.0;macOS;10.15.7;undefined;undefined;2560 x 1440;2560 x 1440
H042;27;Mannelijk;Rechts;5;89;left;yes;100;leftarrow;361;false;focus;yes;1476830;Chrome;112.0;macOS;10.15.7;undefined;undefined;2560 x 1440;2560 x 1440
H042;27;Mannelijk;Rechts;5;90;right;no;50;rightarrow;425;true;focus;yes;1478023;Chrome;112.0;macOS;10.15.7;undefined;undefined;2560 x 1440;2560 x 1440
H042;27;Mannelijk;Rechts;5;91;left;no;50;leftarrow;439;true;focus;yes;1479238;Chrome;112.0;macOS;10.15.7;undefined;undefined;2560 x 1440;2560 x 1440
H042;27;Mannelijk;Rechts;5;92;right;yes;50;undefined;null;true;focus;yes;1481257;Chrome;112.0;macOS;10.15.7;undefined;undefined;2560 x 1440;2560 x 1440
H042;27;Mannelijk;Rechts;5;93;right;no;100;rightarrow;415;true;focus;yes;1482456;Chrome;112.0;macOS;10.15.7;undefined;undefined;2560 x 1440;2560 x 1440
H042;27;Mannelijk;Rechts;5;94;right;no;100;rightarrow;393;true;focus;yes;1483625;Chrome;112.0;macOS;10.15.7;undefined;undefined;2560 x 1440;2560 x 1440
H042;27;Mannelijk;Rechts;5;95;left;no;100;leftarrow;396;true;focus;yes;1484795;Chrome;112.0;macOS;10.15.7;undefined;undefined;2560 x 1440;2560 x 1440
H042;27;Mannelijk;Rechts;5;96;left;no;100;leftarrow;388;true;focus;yes;1485964;Chrome;112.0;macOS;10.15.7;undefined;undefined;2560 x 1440;2560 x 1440
H042;27;Mannelijk;Rechts;5;97;right;no;100;rightarrow;493;true;focus;yes;1487226;Chrome;112.0;macOS;10.15.7;undefined;undefined;2560 x 1440;2560 x 1440
H042;27;Mannelijk;Rechts;5;98;left;no;100;leftarrow;401;true;focus;yes;1488397;Chrome;112.0;macOS;10.15.7;undefined;undefined;2560 x 1440;2560 x 1440
H042;27;Mannelijk;Rechts;5;99;left;no;100;leftarrow;356;true;focus;yes;1489520;Chrome;112.0;macOS;10.15.7;undefined;undefined;2560 x 1440;2560 x 1440
H042;27;Mannelijk;Rechts;5;100;right;yes;100;undefined;null;true;focus;yes;1491536;Chrome;112.0;macOS;10.15.7;undefined;undefined;2560 x 1440;2560 x 1440
H042;27;Mannelijk;Rechts;5;101;left;no;150;leftarrow;370;true;focus;yes;1492671;Chrome;112.0;macOS;10.15.7;undefined;undefined;2560 x 1440;2560 x 1440
H042;27;Mannelijk;Rechts;5;102;right;no;150;rightarrow;372;true;focus;yes;1493818;Chrome;112.0;macOS;10.15.7;undefined;undefined;2560 x 1440;2560 x 1440
H042;27;Mannelijk;Rechts;5;103;right;no;150;rightarrow;452;true;focus;yes;1495033;Chrome;112.0;macOS;10.15.7;undefined;undefined;2560 x 1440;2560 x 1440
H042;27;Mannelijk;Rechts;5;104;left;yes;150;leftarrow;419;false;focus;yes;1496226;Chrome;112.0;macOS;10.15.7;undefined;undefined;2560 x 1440;2560 x 1440
H042;27;Mannelijk;Rechts;5;105;right;no;100;rightarrow;419;true;focus;yes;1497418;Chrome;112.0;macOS;10.15.7;undefined;undefined;2560 x 1440;2560 x 1440
H042;27;Mannelijk;Rechts;5;106;left;yes;100;leftarrow;412;false;focus;yes;1498609;Chrome;112.0;macOS;10.15.7;undefined;undefined;2560 x 1440;2560 x 1440
H042;27;Mannelijk;Rechts;5;107;left;no;50;leftarrow;374;true;focus;yes;1499757;Chrome;112.0;macOS;10.15.7;undefined;undefined;2560 x 1440;2560 x 1440
H042;27;Mannelijk;Rechts;5;108;left;no;50;leftarrow;403;true;focus;yes;1500927;Chrome;112.0;macOS;10.15.7;undefined;undefined;2560 x 1440;2560 x 1440
H042;27;Mannelijk;Rechts;5;109;right;no;50;rightarrow;485;true;focus;yes;1502187;Chrome;112.0;macOS;10.15.7;undefined;undefined;2560 x 1440;2560 x 1440
H042;27;Mannelijk;Rechts;5;110;left;no;50;leftarrow;379;true;focus;yes;1503337;Chrome;112.0;macOS;10.15.7;undefined;undefined;2560 x 1440;2560 x 1440
H042;27;Mannelijk;Rechts;5;111;right;no;50;rightarrow;318;true;focus;yes;1504437;Chrome;112.0;macOS;10.15.7;undefined;undefined;2560 x 1440;2560 x 1440
H042;27;Mannelijk;Rechts;5;112;right;yes;50;leftarrow;267;false;focus;yes;1505473;Chrome;112.0;macOS;10.15.7;undefined;undefined;2560 x 1440;2560 x 1440
H042;27;Mannelijk;Rechts;5;113;right;no;50;rightarrow;441;true;focus;yes;1506687;Chrome;112.0;macOS;10.15.7;undefined;undefined;2560 x 1440;2560 x 1440
H042;27;Mannelijk;Rechts;5;114;right;yes;50;undefined;null;true;focus;yes;1508724;Chrome;112.0;macOS;10.15.7;undefined;undefined;2560 x 1440;2560 x 1440
H042;27;Mannelijk;Rechts;5;115;left;no;100;leftarrow;400;true;focus;yes;1509905;Chrome;112.0;macOS;10.15.7;undefined;undefined;2560 x 1440;2560 x 1440
H042;27;Mannelijk;Rechts;5;116;right;no;100;rightarrow;362;true;focus;yes;1511050;Chrome;112.0;macOS;10.15.7;undefined;undefined;2560 x 1440;2560 x 1440
H042;27;Mannelijk;Rechts;5;117;left;yes;100;leftarrow;388;false;focus;yes;1512201;Chrome;112.0;macOS;10.15.7;undefined;undefined;2560 x 1440;2560 x 1440
H042;27;Mannelijk;Rechts;5;118;left;no;50;leftarrow;384;true;focus;yes;1513349;Chrome;112.0;macOS;10.15.7;undefined;undefined;2560 x 1440;2560 x 1440
H042;27;Mannelijk;Rechts;5;119;left;no;50;leftarrow;392;true;focus;yes;1514519;Chrome;112.0;macOS;10.15.7;undefined;undefined;2560 x 1440;2560 x 1440
H042;27;Mannelijk;Rechts;5;120;right;no;50;rightarrow;358;true;focus;yes;1515642;Chrome;112.0;macOS;10.15.7;undefined;undefined;2560 x 1440;2560 x 1440
H042;27;Mannelijk;Rechts;5;121;right;no;50;rightarrow;389;true;focus;yes;1516812;Chrome;112.0;macOS;10.15.7;undefined;undefined;2560 x 1440;2560 x 1440
H042;27;Mannelijk;Rechts;5;122;left;no;50;leftarrow;367;true;focus;yes;1517949;Chrome;112.0;macOS;10.15.7;undefined;undefined;2560 x 1440;2560 x 1440
H042;27;Mannelijk;Rechts;5;123;right;yes;50;undefined;null;true;focus;yes;1519980;Chrome;112.0;macOS;10.15.7;undefined;undefined;2560 x 1440;2560 x 1440
H042;27;Mannelijk;Rechts;5;124;left;no;100;leftarrow;335;true;focus;yes;1521088;Chrome;112.0;macOS;10.15.7;undefined;undefined;2560 x 1440;2560 x 1440
H042;27;Mannelijk;Rechts;5;125;left;no;100;leftarrow;336;true;focus;yes;1522190;Chrome;112.0;macOS;10.15.7;undefined;undefined;2560 x 1440;2560 x 1440
H042;27;Mannelijk;Rechts;5;126;right;no;100;rightarrow;312;true;focus;yes;1523270;Chrome;112.0;macOS;10.15.7;undefined;undefined;2560 x 1440;2560 x 1440
H042;27;Mannelijk;Rechts;5;127;right;no;100;rightarrow;395;true;focus;yes;1524442;Chrome;112.0;macOS;10.15.7;undefined;undefined;2560 x 1440;2560 x 1440
H042;27;Mannelijk;Rechts;5;128;left;yes;100;leftarrow;352;false;focus;yes;1525565;Chrome;112.0;macOS;10.15.7;undefined;undefined;2560 x 1440;2560 x 1440
H042;27;Mannelijk;Rechts;6;1;left;no;50;leftarrow;338;true;focus;yes;1546603;Chrome;112.0;macOS;10.15.7;undefined;undefined;2560 x 1440;2560 x 1440
H042;27;Mannelijk;Rechts;6;2;left;yes;50;undefined;null;true;focus;yes;1548641;Chrome;112.0;macOS;10.15.7;undefined;undefined;2560 x 1440;2560 x 1440
H042;27;Mannelijk;Rechts;6;3;left;no;100;leftarrow;374;true;focus;yes;1549799;Chrome;112.0;macOS;10.15.7;undefined;undefined;2560 x 1440;2560 x 1440
H042;27;Mannelijk;Rechts;6;4;right;yes;100;undefined;null;true;focus;yes;1551826;Chrome;112.0;macOS;10.15.7;undefined;undefined;2560 x 1440;2560 x 1440
H042;27;Mannelijk;Rechts;6;5;right;no;150;rightarrow;430;true;focus;yes;1553037;Chrome;112.0;macOS;10.15.7;undefined;undefined;2560 x 1440;2560 x 1440
H042;27;Mannelijk;Rechts;6;6;left;no;150;leftarrow;393;true;focus;yes;1554208;Chrome;112.0;macOS;10.15.7;undefined;undefined;2560 x 1440;2560 x 1440
H042;27;Mannelijk;Rechts;6;7;right;no;150;rightarrow;370;true;focus;yes;1555353;Chrome;112.0;macOS;10.15.7;undefined;undefined;2560 x 1440;2560 x 1440
H042;27;Mannelijk;Rechts;6;8;right;no;150;rightarrow;341;true;focus;yes;1556459;Chrome;112.0;macOS;10.15.7;undefined;undefined;2560 x 1440;2560 x 1440
