participantID;age;gender;handedness;block_i;trial_i;stim;signal;SSD;response;rt;correct;focus;Fullscreen;time_elapsed;browser_name;browser_version;os_name;os_version;tablet;mobile;screen_resolution;window_resolution
H029;22;Vrouwelijk;Rechts;0;1;right;no;200;rightarrow;519;true;focus;yes;88072;Chrome;112.0;Windows;10;undefined;undefined;1536 x 864;1536 x 864
H029;22;Vrouwelijk;Rechts;0;2;right;no;200;rightarrow;361;true;focus;yes;89962;Chrome;112.0;Windows;10;undefined;undefined;1536 x 864;1536 x 864
H029;22;Vrouwelijk;Rechts;0;3;right;yes;200;rightarrow;302;false;focus;yes;91793;Chrome;112.0;Windows;10;undefined;undefined;1536 x 864;1536 x 864
H029;22;Vrouwelijk;Rechts;0;4;right;no;150;rightarrow;301;true;focus;yes;93627;Chrome;112.0;Windows;10;undefined;undefined;1536 x 864;1536 x 864
H029;22;Vrouwelijk;Rechts;0;5;left;no;150;leftarrow;390;true;focus;yes;95554;Chrome;112.0;Windows;10;undefined;undefined;1536 x 864;1536 x 864
H029;22;Vrouwelijk;Rechts;0;6;left;no;150;leftarrow;355;true;focus;yes;97454;Chrome;112.0;Windows;10;undefined;undefined;1536 x 864;1536 x 864
H029;22;Vrouwelijk;Rechts;0;7;left;yes;150;undefined;null;true;focus;yes;100249;Chrome;112.0;Windows;10;undefined;undefined;1536 x 864;1536 x 864
H029;22;Vrouwelijk;Rechts;0;8;left;no;200;leftarrow;339;true;focus;yes;102125;Chrome;112.0;Windows;10;undefined;undefined;1536 x 864;1536 x 864
H029;22;Vrouwelijk;Rechts;1;1;right;no;200;rightarrow;364;true;focus;yes;122156;Chrome;112.0;Windows;10;undefined;undefined;1536 x 864;1536 x 864
H029;22;Vrouwelijk;Rechts;1;2;right;no;200;rightarrow;325;true;focus;yes;123264;Chrome;112.0;Windows;10;undefined;undefined;1536 x 864;1536 x 864
H029;22;Vrouwelijk;Rechts;1;3;left;no;200;leftarrow;359;true;focus;yes;124404;Chrome;112.0;Windows;10;undefined;undefined;1536 x 864;1536 x 864
H029;22;Vrouwelijk;Rechts;1;4;left;no;200;leftarrow;413;true;focus;yes;125600;Chrome;112.0;Windows;10;undefined;undefined;1536 x 864;1536 x 864
H029;22;Vrouwelijk;Rechts;1;5;right;no;200;rightarrow;349;true;focus;yes;126725;Chrome;112.0;Windows;10;undefined;undefined;1536 x 864;1536 x 864
H029;22;Vrouwelijk;Rechts;1;6;left;no;200;leftarrow;311;true;focus;yes;127801;Chrome;112.0;Windows;10;undefined;undefined;1536 x 864;1536 x 864
H029;22;Vrouwelijk;Rechts;1;7;left;yes;200;rightarrow;252;false;focus;yes;128815;Chrome;112.0;Windows;10;undefined;undefined;1536 x 864;1536 x 864
H029;22;Vrouwelijk;Rechts;1;8;right;yes;150;rightarrow;343;false;focus;yes;129927;Chrome;112.0;Windows;10;undefined;undefined;1536 x 864;1536 x 864
H029;22;Vrouwelijk;Rechts;1;9;left;no;100;leftarrow;363;true;focus;yes;131069;Chrome;112.0;Windows;10;undefined;undefined;1536 x 864;1536 x 864
H029;22;Vrouwelijk;Rechts;1;10;right;yes;100;undefined;null;true;focus;yes;133088;Chrome;112.0;Windows;10;undefined;undefined;1536 x 864;1536 x 864
H029;22;Vrouwelijk;Rechts;1;11;right;no;150;rightarrow;369;true;focus;yes;134237;Chrome;112.0;Windows;10;undefined;undefined;1536 x 864;1536 x 864
H029;22;Vrouwelijk;Rechts;1;12;left;yes;150;leftarrow;363;false;focus;yes;135366;Chrome;112.0;Windows;10;undefined;undefined;1536 x 864;1536 x 864
H029;22;Vrouwelijk;Rechts;1;13;left;no;100;leftarrow;489;true;focus;yes;136638;Chrome;112.0;Windows;10;undefined;undefined;1536 x 864;1536 x 864
H029;22;Vrouwelijk;Rechts;1;14;right;no;100;rightarrow;349;true;focus;yes;137769;Chrome;112.0;Windows;10;undefined;undefined;1536 x 864;1536 x 864
H029;22;Vrouwelijk;Rechts;1;15;left;no;100;leftarrow;287;true;focus;yes;138828;Chrome;112.0;Windows;10;undefined;undefined;1536 x 864;1536 x 864
H029;22;Vrouwelijk;Rechts;1;16;right;no;100;rightarrow;379;true;focus;yes;139990;Chrome;112.0;Windows;10;undefined;undefined;1536 x 864;1536 x 864
H029;22;Vrouwelijk;Rechts;1;17;left;no;100;leftarrow;388;true;focus;yes;141158;Chrome;112.0;Windows;10;undefined;undefined;1536 x 864;1536 x 864
H029;22;Vrouwelijk;Rechts;1;18;left;no;100;leftarrow;407;true;focus;yes;142331;Chrome;112.0;Windows;10;undefined;undefined;1536 x 864;1536 x 864
H029;22;Vrouwelijk;Rechts;1;19;right;yes;100;undefined;null;true;focus;yes;144378;Chrome;112.0;Windows;10;undefined;undefined;1536 x 864;1536 x 864
H029;22;Vrouwelijk;Rechts;1;20;right;no;150;rightarrow;413;true;focus;yes;145547;Chrome;112.0;Windows;10;undefined;undefined;1536 x 864;1536 x 864
H029;22;Vrouwelijk;Rechts;1;21;right;no;150;rightarrow;378;true;focus;yes;146690;Chrome;112.0;Windows;10;undefined;undefined;1536 x 864;1536 x 864
H029;22;Vrouwelijk;Rechts;1;22;left;yes;150;leftarrow;354;false;focus;yes;147818;Chrome;112.0;Windows;10;undefined;undefined;1536 x 864;1536 x 864
H029;22;Vrouwelijk;Rechts;1;23;left;no;100;leftarrow;345;true;focus;yes;148944;Chrome;112.0;Windows;10;undefined;undefined;1536 x 864;1536 x 864
H029;22;Vrouwelijk;Rechts;1;24;right;no;100;rightarrow;640;true;focus;yes;150360;Chrome;112.0;Windows;10;undefined;undefined;1536 x 864;1536 x 864
H029;22;Vrouwelijk;Rechts;1;25;left;no;100;leftarrow;438;true;focus;yes;151581;Chrome;112.0;Windows;10;undefined;undefined;1536 x 864;1536 x 864
H029;22;Vrouwelijk;Rechts;1;26;left;yes;100;undefined;null;true;focus;yes;153605;Chrome;112.0;Windows;10;undefined;undefined;1536 x 864;1536 x 864
H029;22;Vrouwelijk;Rechts;1;27;right;no;150;rightarrow;299;true;focus;yes;154687;Chrome;112.0;Windows;10;undefined;undefined;1536 x 864;1536 x 864
H029;22;Vrouwelijk;Rechts;1;28;right;no;150;leftarrow;275;false;focus;yes;155728;Chrome;112.0;Windows;10;undefined;undefined;1536 x 864;1536 x 864
H029;22;Vrouwelijk;Rechts;1;29;right;yes;150;undefined;null;true;focus;yes;157750;Chrome;112.0;Windows;10;undefined;undefined;1536 x 864;1536 x 864
H029;22;Vrouwelijk;Rechts;1;30;left;no;200;leftarrow;321;true;focus;yes;158837;Chrome;112.0;Windows;10;undefined;undefined;1536 x 864;1536 x 864
H029;22;Vrouwelijk;Rechts;1;31;left;no;200;leftarrow;376;true;focus;yes;159972;Chrome;112.0;Windows;10;undefined;undefined;1536 x 864;1536 x 864
H029;22;Vrouwelijk;Rechts;1;32;right;no;200;rightarrow;416;true;focus;yes;161151;Chrome;112.0;Windows;10;undefined;undefined;1536 x 864;1536 x 864
H029;22;Vrouwelijk;Rechts;1;33;left;no;200;leftarrow;341;true;focus;yes;162263;Chrome;112.0;Windows;10;undefined;undefined;1536 x 864;1536 x 864
H029;22;Vrouwelijk;Rechts;1;34;right;yes;200;rightarrow;366;false;focus;yes;163391;Chrome;112.0;Windows;10;undefined;undefined;1536 x 864;1536 x 864
H029;22;Vrouwelijk;Rechts;1;35;left;yes;150;leftarrow;425;false;focus;yes;164600;Chrome;112.0;Windows;10;undefined;undefined;1536 x 864;1536 x 864
H029;22;Vrouwelijk;Rechts;1;36;right;no;100;rightarrow;645;true;focus;yes;166021;Chrome;112.0;Windows;10;undefined;undefined;1536 x 864;1536 x 864
H029;22;Vrouwelijk;Rechts;1;37;right;no;100;rightarrow;456;true;focus;yes;167243;Chrome;112.0;Windows;10;undefined;undefined;1536 x 864;1536 x 864
H029;22;Vrouwelijk;Rechts;1;38;left;no;100;leftarrow;534;true;focus;yes;168555;Chrome;112.0;Windows;10;undefined;undefined;1536 x 864;1536 x 864
H029;22;Vrouwelijk;Rechts;1;39;right;no;100;rightarrow;527;true;focus;yes;169853;Chrome;112.0;Windows;10;undefined;undefined;1536 x 864;1536 x 864
H029;22;Vrouwelijk;Rechts;1;40;left;no;100;leftarrow;470;true;focus;yes;171099;Chrome;112.0;Windows;10;undefined;undefined;1536 x 864;1536 x 864
H029;22;Vrouwelijk;Rechts;1;41;left;no;100;leftarrow;391;true;focus;yes;172248;Chrome;112.0;Windows;10;undefined;undefined;1536 x 864;1536 x 864
H029;22;Vrouwelijk;Rechts;1;42;left;no;100;leftarrow;401;true;focus;yes;173429;Chrome;112.0;Windows;10;undefined;undefined;1536 x 864;1536 x 864
H029;22;Vrouwelijk;Rechts;1;43;right;no;100;rightarrow;438;true;focus;yes;174623;Chrome;112.0;Windows;10;undefined;undefined;1536 x 864;1536 x 864
H029;22;Vrouwelijk;Rechts;1;44;right;yes;100;undefined;null;true;focus;yes;176657;Chrome;112.0;Windows;10;undefined;undefined;1536 x 864;1536 x 864
H029;22;Vrouwelijk;Rechts;1;45;right;no;150;rightarrow;360;true;focus;yes;177794;Chrome;112.0;Windows;10;undefined;undefined;1536 x 864;1536 x 864
H029;22;Vrouwelijk;Rechts;1;46;left;no;150;leftarrow;386;true;focus;yes;178942;Chrome;112.0;Windows;10;undefined;undefined;1536 x 864;1536 x 864
H029;22;Vrouwelijk;Rechts;1;47;right;no;150;rightarrow;419;true;focus;yes;180129;Chrome;112.0;Windows;10;undefined;undefined;1536 x 864;1536 x 864
H029;22;Vrouwelijk;Rechts;1;48;left;yes;150;undefined;null;true;focus;yes;182169;Chrome;112.0;Windows;10;undefined;undefined;1536 x 864;1536 x 864
H029;22;Vrouwelijk;Rechts;1;49;right;no;200;rightarrow;301;true;focus;yes;183250;Chrome;112.0;Windows;10;undefined;undefined;1536 x 864;1536 x 864
H029;22;Vrouwelijk;Rechts;1;50;left;no;200;leftarrow;470;true;focus;yes;184497;Chrome;112.0;Windows;10;undefined;undefined;1536 x 864;1536 x 864
H029;22;Vrouwelijk;Rechts;1;51;right;no;200;rightarrow;390;true;focus;yes;185649;Chrome;112.0;Windows;10;undefined;undefined;1536 x 864;1536 x 864
H029;22;Vrouwelijk;Rechts;1;52;right;yes;200;undefined;null;true;focus;yes;187686;Chrome;112.0;Windows;10;undefined;undefined;1536 x 864;1536 x 864
H029;22;Vrouwelijk;Rechts;1;53;left;no;250;leftarrow;327;true;focus;yes;188781;Chrome;112.0;Windows;10;undefined;undefined;1536 x 864;1536 x 864
H029;22;Vrouwelijk;Rechts;1;54;right;no;250;rightarrow;357;true;focus;yes;189918;Chrome;112.0;Windows;10;undefined;undefined;1536 x 864;1536 x 864
H029;22;Vrouwelijk;Rechts;1;55;left;no;250;leftarrow;389;true;focus;yes;191077;Chrome;112.0;Windows;10;undefined;undefined;1536 x 864;1536 x 864
H029;22;Vrouwelijk;Rechts;1;56;left;yes;250;leftarrow;371;false;focus;yes;192228;Chrome;112.0;Windows;10;undefined;undefined;1536 x 864;1536 x 864
H029;22;Vrouwelijk;Rechts;1;57;left;no;200;leftarrow;394;true;focus;yes;193401;Chrome;112.0;Windows;10;undefined;undefined;1536 x 864;1536 x 864
H029;22;Vrouwelijk;Rechts;1;58;left;no;200;leftarrow;482;true;focus;yes;194649;Chrome;112.0;Windows;10;undefined;undefined;1536 x 864;1536 x 864
H029;22;Vrouwelijk;Rechts;1;59;left;yes;200;undefined;null;true;focus;yes;196668;Chrome;112.0;Windows;10;undefined;undefined;1536 x 864;1536 x 864
H029;22;Vrouwelijk;Rechts;1;60;right;no;250;rightarrow;382;true;focus;yes;197830;Chrome;112.0;Windows;10;undefined;undefined;1536 x 864;1536 x 864
H029;22;Vrouwelijk;Rechts;1;61;right;no;250;rightarrow;427;true;focus;yes;199032;Chrome;112.0;Windows;10;undefined;undefined;1536 x 864;1536 x 864
H029;22;Vrouwelijk;Rechts;1;62;left;no;250;leftarrow;398;true;focus;yes;200206;Chrome;112.0;Windows;10;undefined;undefined;1536 x 864;1536 x 864
H029;22;Vrouwelijk;Rechts;1;63;right;yes;250;rightarrow;395;false;focus;yes;201373;Chrome;112.0;Windows;10;undefined;undefined;1536 x 864;1536 x 864
H029;22;Vrouwelijk;Rechts;1;64;right;no;200;rightarrow;503;true;focus;yes;202643;Chrome;112.0;Windows;10;undefined;undefined;1536 x 864;1536 x 864
H029;22;Vrouwelijk;Rechts;1;65;left;no;200;leftarrow;496;true;focus;yes;203909;Chrome;112.0;Windows;10;undefined;undefined;1536 x 864;1536 x 864
H029;22;Vrouwelijk;Rechts;1;66;left;no;200;leftarrow;603;true;focus;yes;205287;Chrome;112.0;Windows;10;undefined;undefined;1536 x 864;1536 x 864
H029;22;Vrouwelijk;Rechts;1;67;right;no;200;rightarrow;609;true;focus;yes;206660;Chrome;112.0;Windows;10;undefined;undefined;1536 x 864;1536 x 864
H029;22;Vrouwelijk;Rechts;1;68;left;yes;200;undefined;null;true;focus;yes;208698;Chrome;112.0;Windows;10;undefined;undefined;1536 x 864;1536 x 864
H029;22;Vrouwelijk;Rechts;1;69;right;no;250;rightarrow;490;true;focus;yes;209964;Chrome;112.0;Windows;10;undefined;undefined;1536 x 864;1536 x 864
H029;22;Vrouwelijk;Rechts;1;70;right;no;250;rightarrow;471;true;focus;yes;211203;Chrome;112.0;Windows;10;undefined;undefined;1536 x 864;1536 x 864
H029;22;Vrouwelijk;Rechts;1;71;right;yes;250;rightarrow;456;false;focus;yes;212426;Chrome;112.0;Windows;10;undefined;undefined;1536 x 864;1536 x 864
H029;22;Vrouwelijk;Rechts;1;72;left;no;200;leftarrow;533;true;focus;yes;213732;Chrome;112.0;Windows;10;undefined;undefined;1536 x 864;1536 x 864
H029;22;Vrouwelijk;Rechts;1;73;right;yes;200;undefined;null;true;focus;yes;215756;Chrome;112.0;Windows;10;undefined;undefined;1536 x 864;1536 x 864
H029;22;Vrouwelijk;Rechts;1;74;left;no;250;leftarrow;459;true;focus;yes;216993;Chrome;112.0;Windows;10;undefined;undefined;1536 x 864;1536 x 864
H029;22;Vrouwelijk;Rechts;1;75;right;no;250;rightarrow;509;true;focus;yes;218284;Chrome;112.0;Windows;10;undefined;undefined;1536 x 864;1536 x 864
H029;22;Vrouwelijk;Rechts;1;76;left;no;250;leftarrow;570;true;focus;yes;219626;Chrome;112.0;Windows;10;undefined;undefined;1536 x 864;1536 x 864
H029;22;Vrouwelijk;Rechts;1;77;left;no;250;leftarrow;619;true;focus;yes;221025;Chrome;112.0;Windows;10;undefined;undefined;1536 x 864;1536 x 864
H029;22;Vrouwelijk;Rechts;1;78;left;yes;250;undefined;null;true;focus;yes;223061;Chrome;112.0;Windows;10;undefined;undefined;1536 x 864;1536 x 864
H029;22;Vrouwelijk;Rechts;1;79;right;no;300;rightarrow;503;true;focus;yes;224338;Chrome;112.0;Windows;10;undefined;undefined;1536 x 864;1536 x 864
H029;22;Vrouwelijk;Rechts;1;80;right;no;300;rightarrow;470;true;focus;yes;225580;Chrome;112.0;Windows;10;undefined;undefined;1536 x 864;1536 x 864
H029;22;Vrouwelijk;Rechts;1;81;right;no;300;rightarrow;533;true;focus;yes;226890;Chrome;112.0;Windows;10;undefined;undefined;1536 x 864;1536 x 864
H029;22;Vrouwelijk;Rechts;1;82;left;yes;300;undefined;null;true;focus;yes;228914;Chrome;112.0;Windows;10;undefined;undefined;1536 x 864;1536 x 864
H029;22;Vrouwelijk;Rechts;1;83;left;no;350;leftarrow;547;true;focus;yes;230239;Chrome;112.0;Windows;10;undefined;undefined;1536 x 864;1536 x 864
H029;22;Vrouwelijk;Rechts;1;84;right;no;350;rightarrow;480;true;focus;yes;231494;Chrome;112.0;Windows;10;undefined;undefined;1536 x 864;1536 x 864
H029;22;Vrouwelijk;Rechts;1;85;right;no;350;rightarrow;500;true;focus;yes;232763;Chrome;112.0;Windows;10;undefined;undefined;1536 x 864;1536 x 864
H029;22;Vrouwelijk;Rechts;1;86;left;no;350;leftarrow;506;true;focus;yes;234044;Chrome;112.0;Windows;10;undefined;undefined;1536 x 864;1536 x 864
H029;22;Vrouwelijk;Rechts;1;87;left;no;350;leftarrow;525;true;focus;yes;235346;Chrome;112.0;Windows;10;undefined;undefined;1536 x 864;1536 x 864
H029;22;Vrouwelijk;Rechts;1;88;right;yes;350;undefined;null;true;focus;yes;237360;Chrome;112.0;Windows;10;undefined;undefined;1536 x 864;1536 x 864
H029;22;Vrouwelijk;Rechts;1;89;left;no;400;leftarrow;432;true;focus;yes;238572;Chrome;112.0;Windows;10;undefined;undefined;1536 x 864;1536 x 864
H029;22;Vrouwelijk;Rechts;1;90;right;no;400;rightarrow;520;true;focus;yes;239864;Chrome;112.0;Windows;10;undefined;undefined;1536 x 864;1536 x 864
H029;22;Vrouwelijk;Rechts;1;91;left;no;400;leftarrow;489;true;focus;yes;241136;Chrome;112.0;Windows;10;undefined;undefined;1536 x 864;1536 x 864
H029;22;Vrouwelijk;Rechts;1;92;right;no;400;rightarrow;485;true;focus;yes;242400;Chrome;112.0;Windows;10;undefined;undefined;1536 x 864;1536 x 864
H029;22;Vrouwelijk;Rechts;1;93;right;no;400;rightarrow;518;true;focus;yes;243690;Chrome;112.0;Windows;10;undefined;undefined;1536 x 864;1536 x 864
H029;22;Vrouwelijk;Rechts;1;94;right;yes;400;rightarrow;598;false;focus;yes;245059;Chrome;112.0;Windows;10;undefined;undefined;1536 x 864;1536 x 864
H029;22;Vrouwelijk;Rechts;1;95;left;yes;350;leftarrow;516;false;focus;yes;246342;Chrome;112.0;Windows;10;undefined;undefined;1536 x 864;1536 x 864
H029;22;Vrouwelijk;Rechts;1;96;left;no;300;leftarrow;644;true;focus;yes;247753;Chrome;112.0;Windows;10;undefined;undefined;1536 x 864;1536 x 864
H029;22;Vrouwelijk;Rechts;1;97;right;no;300;rightarrow;530;true;focus;yes;249052;Chrome;112.0;Windows;10;undefined;undefined;1536 x 864;1536 x 864
H029;22;Vrouwelijk;Rechts;1;98;left;no;300;leftarrow;612;true;focus;yes;250425;Chrome;112.0;Windows;10;undefined;undefined;1536 x 864;1536 x 864
H029;22;Vrouwelijk;Rechts;1;99;right;no;300;rightarrow;642;true;focus;yes;251835;Chrome;112.0;Windows;10;undefined;undefined;1536 x 864;1536 x 864
H029;22;Vrouwelijk;Rechts;1;100;right;no;300;rightarrow;718;true;focus;yes;253320;Chrome;112.0;Windows;10;undefined;undefined;1536 x 864;1536 x 864
H029;22;Vrouwelijk;Rechts;1;101;left;yes;300;undefined;null;true;focus;yes;255357;Chrome;112.0;Windows;10;undefined;undefined;1536 x 864;1536 x 864
H029;22;Vrouwelijk;Rechts;1;102;left;no;350;leftarrow;604;true;focus;yes;256745;Chrome;112.0;Windows;10;undefined;undefined;1536 x 864;1536 x 864
H029;22;Vrouwelijk;Rechts;1;103;right;yes;350;undefined;null;true;focus;yes;258778;Chrome;112.0;Windows;10;undefined;undefined;1536 x 864;1536 x 864
H029;22;Vrouwelijk;Rechts;1;104;left;no;400;leftarrow;465;true;focus;yes;260021;Chrome;112.0;Windows;10;undefined;undefined;1536 x 864;1536 x 864
H029;22;Vrouwelijk;Rechts;1;105;right;no;400;rightarrow;574;true;focus;yes;261351;Chrome;112.0;Windows;10;undefined;undefined;1536 x 864;1536 x 864
H029;22;Vrouwelijk;Rechts;1;106;left;no;400;leftarrow;607;true;focus;yes;262742;Chrome;112.0;Windows;10;undefined;undefined;1536 x 864;1536 x 864
H029;22;Vrouwelijk;Rechts;1;107;right;no;400;rightarrow;601;true;focus;yes;264121;Chrome;112.0;Windows;10;undefined;undefined;1536 x 864;1536 x 864
H029;22;Vrouwelijk;Rechts;1;108;left;no;400;leftarrow;737;true;focus;yes;265627;Chrome;112.0;Windows;10;undefined;undefined;1536 x 864;1536 x 864
H029;22;Vrouwelijk;Rechts;1;109;left;yes;400;undefined;null;true;focus;yes;267666;Chrome;112.0;Windows;10;undefined;undefined;1536 x 864;1536 x 864
H029;22;Vrouwelijk;Rechts;1;110;left;no;450;leftarrow;524;true;focus;yes;268969;Chrome;112.0;Windows;10;undefined;undefined;1536 x 864;1536 x 864
H029;22;Vrouwelijk;Rechts;1;111;right;yes;450;rightarrow;546;false;focus;yes;270293;Chrome;112.0;Windows;10;undefined;undefined;1536 x 864;1536 x 864
H029;22;Vrouwelijk;Rechts;1;112;right;no;400;rightarrow;722;true;focus;yes;271784;Chrome;112.0;Windows;10;undefined;undefined;1536 x 864;1536 x 864
H029;22;Vrouwelijk;Rechts;1;113;left;no;400;leftarrow;697;true;focus;yes;273250;Chrome;112.0;Windows;10;undefined;undefined;1536 x 864;1536 x 864
H029;22;Vrouwelijk;Rechts;1;114;left;no;400;leftarrow;743;true;focus;yes;274769;Chrome;112.0;Windows;10;undefined;undefined;1536 x 864;1536 x 864
H029;22;Vrouwelijk;Rechts;1;115;left;no;400;leftarrow;813;true;focus;yes;276341;Chrome;112.0;Windows;10;undefined;undefined;1536 x 864;1536 x 864
H029;22;Vrouwelijk;Rechts;1;116;right;yes;400;undefined;null;true;focus;yes;278359;Chrome;112.0;Windows;10;undefined;undefined;1536 x 864;1536 x 864
H029;22;Vrouwelijk;Rechts;1;117;left;yes;450;leftarrow;537;false;focus;yes;279666;Chrome;112.0;Windows;10;undefined;undefined;1536 x 864;1536 x 864
H029;22;Vrouwelijk;Rechts;1;118;right;no;400;rightarrow;498;true;focus;yes;280920;Chrome;112.0;Windows;10;undefined;undefined;1536 x 864;1536 x 864
H029;22;Vrouwelijk;Rechts;1;119;right;no;400;rightarrow;581;true;focus;yes;282266;Chrome;112.0;Windows;10;undefined;undefined;1536 x 864;1536 x 864
H029;22;Vrouwelijk;Rechts;1;120;right;no;400;rightarrow;670;true;focus;yes;283699;Chrome;112.0;Windows;10;undefined;undefined;1536 x 864;1536 x 864
H029;22;Vrouwelijk;Rechts;1;121;right;no;400;rightarrow;722;true;focus;yes;285189;Chrome;112.0;Windows;10;undefined;undefined;1536 x 864;1536 x 864
H029;22;Vrouwelijk;Rechts;1;122;right;no;400;rightarrow;847;true;focus;yes;286801;Chrome;112.0;Windows;10;undefined;undefined;1536 x 864;1536 x 864
H029;22;Vrouwelijk;Rechts;1;123;left;yes;400;undefined;null;true;focus;yes;288834;Chrome;112.0;Windows;10;undefined;undefined;1536 x 864;1536 x 864
H029;22;Vrouwelijk;Rechts;1;124;left;no;450;leftarrow;606;true;focus;yes;290217;Chrome;112.0;Windows;10;undefined;undefined;1536 x 864;1536 x 864
H029;22;Vrouwelijk;Rechts;1;125;left;no;450;leftarrow;636;true;focus;yes;291634;Chrome;112.0;Windows;10;undefined;undefined;1536 x 864;1536 x 864
H029;22;Vrouwelijk;Rechts;1;126;right;yes;450;undefined;null;true;focus;yes;293670;Chrome;112.0;Windows;10;undefined;undefined;1536 x 864;1536 x 864
H029;22;Vrouwelijk;Rechts;1;127;left;no;500;leftarrow;601;true;focus;yes;295039;Chrome;112.0;Windows;10;undefined;undefined;1536 x 864;1536 x 864
H029;22;Vrouwelijk;Rechts;1;128;right;no;500;rightarrow;592;true;focus;yes;296405;Chrome;112.0;Windows;10;undefined;undefined;1536 x 864;1536 x 864
H029;22;Vrouwelijk;Rechts;2;1;left;no;500;leftarrow;416;true;focus;yes;315786;Chrome;112.0;Windows;10;undefined;undefined;1536 x 864;1536 x 864
H029;22;Vrouwelijk;Rechts;2;2;right;no;500;rightarrow;488;true;focus;yes;317045;Chrome;112.0;Windows;10;undefined;undefined;1536 x 864;1536 x 864
H029;22;Vrouwelijk;Rechts;2;3;left;no;500;leftarrow;525;true;focus;yes;318334;Chrome;112.0;Windows;10;undefined;undefined;1536 x 864;1536 x 864
H029;22;Vrouwelijk;Rechts;2;4;right;no;500;rightarrow;556;true;focus;yes;319660;Chrome;112.0;Windows;10;undefined;undefined;1536 x 864;1536 x 864
H029;22;Vrouwelijk;Rechts;2;5;left;no;500;leftarrow;535;true;focus;yes;320964;Chrome;112.0;Windows;10;undefined;undefined;1536 x 864;1536 x 864
H029;22;Vrouwelijk;Rechts;2;6;right;no;500;rightarrow;568;true;focus;yes;322297;Chrome;112.0;Windows;10;undefined;undefined;1536 x 864;1536 x 864
H029;22;Vrouwelijk;Rechts;2;7;right;yes;500;rightarrow;584;false;focus;yes;323638;Chrome;112.0;Windows;10;undefined;undefined;1536 x 864;1536 x 864
H029;22;Vrouwelijk;Rechts;2;8;left;yes;450;undefined;null;true;focus;yes;325659;Chrome;112.0;Windows;10;undefined;undefined;1536 x 864;1536 x 864
H029;22;Vrouwelijk;Rechts;2;9;right;no;500;rightarrow;547;true;focus;yes;326986;Chrome;112.0;Windows;10;undefined;undefined;1536 x 864;1536 x 864
H029;22;Vrouwelijk;Rechts;2;10;right;no;500;rightarrow;678;true;focus;yes;328438;Chrome;112.0;Windows;10;undefined;undefined;1536 x 864;1536 x 864
H029;22;Vrouwelijk;Rechts;2;11;right;yes;500;rightarrow;634;false;focus;yes;329845;Chrome;112.0;Windows;10;undefined;undefined;1536 x 864;1536 x 864
H029;22;Vrouwelijk;Rechts;2;12;left;yes;450;undefined;null;true;focus;yes;331873;Chrome;112.0;Windows;10;undefined;undefined;1536 x 864;1536 x 864
H029;22;Vrouwelijk;Rechts;2;13;right;no;500;rightarrow;613;true;focus;yes;333263;Chrome;112.0;Windows;10;undefined;undefined;1536 x 864;1536 x 864
H029;22;Vrouwelijk;Rechts;2;14;left;no;500;leftarrow;747;true;focus;yes;334784;Chrome;112.0;Windows;10;undefined;undefined;1536 x 864;1536 x 864
H029;22;Vrouwelijk;Rechts;2;15;left;no;500;leftarrow;859;true;focus;yes;336410;Chrome;112.0;Windows;10;undefined;undefined;1536 x 864;1536 x 864
H029;22;Vrouwelijk;Rechts;2;16;left;no;500;leftarrow;718;true;focus;yes;337909;Chrome;112.0;Windows;10;undefined;undefined;1536 x 864;1536 x 864
H029;22;Vrouwelijk;Rechts;2;17;left;yes;500;leftarrow;703;false;focus;yes;339394;Chrome;112.0;Windows;10;undefined;undefined;1536 x 864;1536 x 864
H029;22;Vrouwelijk;Rechts;2;18;right;no;450;rightarrow;792;true;focus;yes;340967;Chrome;112.0;Windows;10;undefined;undefined;1536 x 864;1536 x 864
H029;22;Vrouwelijk;Rechts;2;19;right;no;450;rightarrow;792;true;focus;yes;342538;Chrome;112.0;Windows;10;undefined;undefined;1536 x 864;1536 x 864
H029;22;Vrouwelijk;Rechts;2;20;left;no;450;leftarrow;766;true;focus;yes;344070;Chrome;112.0;Windows;10;undefined;undefined;1536 x 864;1536 x 864
H029;22;Vrouwelijk;Rechts;2;21;right;yes;450;undefined;null;true;focus;yes;346101;Chrome;112.0;Windows;10;undefined;undefined;1536 x 864;1536 x 864
H029;22;Vrouwelijk;Rechts;2;22;left;no;500;leftarrow;512;true;focus;yes;347388;Chrome;112.0;Windows;10;undefined;undefined;1536 x 864;1536 x 864
H029;22;Vrouwelijk;Rechts;2;23;left;no;500;leftarrow;530;true;focus;yes;348686;Chrome;112.0;Windows;10;undefined;undefined;1536 x 864;1536 x 864
H029;22;Vrouwelijk;Rechts;2;24;right;no;500;rightarrow;562;true;focus;yes;350016;Chrome;112.0;Windows;10;undefined;undefined;1536 x 864;1536 x 864
H029;22;Vrouwelijk;Rechts;2;25;right;no;500;rightarrow;645;true;focus;yes;351428;Chrome;112.0;Windows;10;undefined;undefined;1536 x 864;1536 x 864
H029;22;Vrouwelijk;Rechts;2;26;left;yes;500;undefined;null;true;focus;yes;353463;Chrome;112.0;Windows;10;undefined;undefined;1536 x 864;1536 x 864
H029;22;Vrouwelijk;Rechts;2;27;right;yes;550;rightarrow;487;false;focus;yes;354726;Chrome;112.0;Windows;10;undefined;undefined;1536 x 864;1536 x 864
H029;22;Vrouwelijk;Rechts;2;28;right;no;500;rightarrow;473;true;focus;yes;355978;Chrome;112.0;Windows;10;undefined;undefined;1536 x 864;1536 x 864
H029;22;Vrouwelijk;Rechts;2;29;left;no;500;leftarrow;343;true;focus;yes;357101;Chrome;112.0;Windows;10;undefined;undefined;1536 x 864;1536 x 864
H029;22;Vrouwelijk;Rechts;2;30;left;no;500;leftarrow;367;true;focus;yes;358234;Chrome;112.0;Windows;10;undefined;undefined;1536 x 864;1536 x 864
H029;22;Vrouwelijk;Rechts;2;31;left;no;500;leftarrow;476;true;focus;yes;359485;Chrome;112.0;Windows;10;undefined;undefined;1536 x 864;1536 x 864
H029;22;Vrouwelijk;Rechts;2;32;right;no;500;rightarrow;453;true;focus;yes;360709;Chrome;112.0;Windows;10;undefined;undefined;1536 x 864;1536 x 864
H029;22;Vrouwelijk;Rechts;2;33;left;no;500;leftarrow;339;true;focus;yes;361817;Chrome;112.0;Windows;10;undefined;undefined;1536 x 864;1536 x 864
H029;22;Vrouwelijk;Rechts;2;34;right;no;500;rightarrow;364;true;focus;yes;362953;Chrome;112.0;Windows;10;undefined;undefined;1536 x 864;1536 x 864
H029;22;Vrouwelijk;Rechts;2;35;left;no;500;leftarrow;347;true;focus;yes;364079;Chrome;112.0;Windows;10;undefined;undefined;1536 x 864;1536 x 864
H029;22;Vrouwelijk;Rechts;2;36;right;yes;500;rightarrow;319;false;focus;yes;365163;Chrome;112.0;Windows;10;undefined;undefined;1536 x 864;1536 x 864
H029;22;Vrouwelijk;Rechts;2;37;left;yes;450;leftarrow;307;false;focus;yes;366246;Chrome;112.0;Windows;10;undefined;undefined;1536 x 864;1536 x 864
H029;22;Vrouwelijk;Rechts;2;38;left;no;400;leftarrow;372;true;focus;yes;367390;Chrome;112.0;Windows;10;undefined;undefined;1536 x 864;1536 x 864
H029;22;Vrouwelijk;Rechts;2;39;right;no;400;rightarrow;312;true;focus;yes;368471;Chrome;112.0;Windows;10;undefined;undefined;1536 x 864;1536 x 864
H029;22;Vrouwelijk;Rechts;2;40;right;no;400;leftarrow;280;false;focus;yes;369518;Chrome;112.0;Windows;10;undefined;undefined;1536 x 864;1536 x 864
H029;22;Vrouwelijk;Rechts;2;41;right;no;400;rightarrow;346;true;focus;yes;370634;Chrome;112.0;Windows;10;undefined;undefined;1536 x 864;1536 x 864
H029;22;Vrouwelijk;Rechts;2;42;left;no;400;leftarrow;309;true;focus;yes;371724;Chrome;112.0;Windows;10;undefined;undefined;1536 x 864;1536 x 864
H029;22;Vrouwelijk;Rechts;2;43;left;no;400;rightarrow;352;false;focus;yes;372853;Chrome;112.0;Windows;10;undefined;undefined;1536 x 864;1536 x 864
H029;22;Vrouwelijk;Rechts;2;44;right;no;400;rightarrow;394;true;focus;yes;374017;Chrome;112.0;Windows;10;undefined;undefined;1536 x 864;1536 x 864
H029;22;Vrouwelijk;Rechts;2;45;left;yes;400;leftarrow;295;false;focus;yes;375093;Chrome;112.0;Windows;10;undefined;undefined;1536 x 864;1536 x 864
H029;22;Vrouwelijk;Rechts;2;46;left;no;350;leftarrow;333;true;focus;yes;376192;Chrome;112.0;Windows;10;undefined;undefined;1536 x 864;1536 x 864
H029;22;Vrouwelijk;Rechts;2;47;right;no;350;rightarrow;383;true;focus;yes;377354;Chrome;112.0;Windows;10;undefined;undefined;1536 x 864;1536 x 864
H029;22;Vrouwelijk;Rechts;2;48;right;yes;350;leftarrow;373;false;focus;yes;378505;Chrome;112.0;Windows;10;undefined;undefined;1536 x 864;1536 x 864
H029;22;Vrouwelijk;Rechts;2;49;right;yes;300;rightarrow;386;false;focus;yes;379660;Chrome;112.0;Windows;10;undefined;undefined;1536 x 864;1536 x 864
H029;22;Vrouwelijk;Rechts;2;50;left;no;250;leftarrow;578;true;focus;yes;381013;Chrome;112.0;Windows;10;undefined;undefined;1536 x 864;1536 x 864
H029;22;Vrouwelijk;Rechts;2;51;left;no;250;leftarrow;412;true;focus;yes;382202;Chrome;112.0;Windows;10;undefined;undefined;1536 x 864;1536 x 864
H029;22;Vrouwelijk;Rechts;2;52;right;no;250;rightarrow;455;true;focus;yes;383436;Chrome;112.0;Windows;10;undefined;undefined;1536 x 864;1536 x 864
H029;22;Vrouwelijk;Rechts;2;53;left;yes;250;leftarrow;372;false;focus;yes;384590;Chrome;112.0;Windows;10;undefined;undefined;1536 x 864;1536 x 864
H029;22;Vrouwelijk;Rechts;2;54;left;no;200;leftarrow;360;true;focus;yes;385731;Chrome;112.0;Windows;10;undefined;undefined;1536 x 864;1536 x 864
H029;22;Vrouwelijk;Rechts;2;55;right;no;200;rightarrow;511;true;focus;yes;387010;Chrome;112.0;Windows;10;undefined;undefined;1536 x 864;1536 x 864
H029;22;Vrouwelijk;Rechts;2;56;right;no;200;rightarrow;398;true;focus;yes;388178;Chrome;112.0;Windows;10;undefined;undefined;1536 x 864;1536 x 864
H029;22;Vrouwelijk;Rechts;2;57;right;no;200;rightarrow;546;true;focus;yes;389504;Chrome;112.0;Windows;10;undefined;undefined;1536 x 864;1536 x 864
H029;22;Vrouwelijk;Rechts;2;58;right;no;200;rightarrow;364;true;focus;yes;390650;Chrome;112.0;Windows;10;undefined;undefined;1536 x 864;1536 x 864
H029;22;Vrouwelijk;Rechts;2;59;right;yes;200;rightarrow;354;false;focus;yes;391785;Chrome;112.0;Windows;10;undefined;undefined;1536 x 864;1536 x 864
H029;22;Vrouwelijk;Rechts;2;60;left;yes;150;undefined;null;true;focus;yes;393816;Chrome;112.0;Windows;10;undefined;undefined;1536 x 864;1536 x 864
H029;22;Vrouwelijk;Rechts;2;61;left;no;200;leftarrow;420;true;focus;yes;395010;Chrome;112.0;Windows;10;undefined;undefined;1536 x 864;1536 x 864
H029;22;Vrouwelijk;Rechts;2;62;right;no;200;rightarrow;528;true;focus;yes;396306;Chrome;112.0;Windows;10;undefined;undefined;1536 x 864;1536 x 864
H029;22;Vrouwelijk;Rechts;2;63;left;no;200;leftarrow;375;true;focus;yes;397451;Chrome;112.0;Windows;10;undefined;undefined;1536 x 864;1536 x 864
H029;22;Vrouwelijk;Rechts;2;64;left;no;200;leftarrow;521;true;focus;yes;398740;Chrome;112.0;Windows;10;undefined;undefined;1536 x 864;1536 x 864
H029;22;Vrouwelijk;Rechts;2;65;left;no;200;leftarrow;450;true;focus;yes;399968;Chrome;112.0;Windows;10;undefined;undefined;1536 x 864;1536 x 864
H029;22;Vrouwelijk;Rechts;2;66;right;yes;200;undefined;null;true;focus;yes;401990;Chrome;112.0;Windows;10;undefined;undefined;1536 x 864;1536 x 864
H029;22;Vrouwelijk;Rechts;2;67;left;no;250;leftarrow;349;true;focus;yes;403113;Chrome;112.0;Windows;10;undefined;undefined;1536 x 864;1536 x 864
H029;22;Vrouwelijk;Rechts;2;68;right;no;250;rightarrow;408;true;focus;yes;404293;Chrome;112.0;Windows;10;undefined;undefined;1536 x 864;1536 x 864
H029;22;Vrouwelijk;Rechts;2;69;left;yes;250;undefined;null;true;focus;yes;406338;Chrome;112.0;Windows;10;undefined;undefined;1536 x 864;1536 x 864
H029;22;Vrouwelijk;Rechts;2;70;left;no;300;leftarrow;331;true;focus;yes;407448;Chrome;112.0;Windows;10;undefined;undefined;1536 x 864;1536 x 864
H029;22;Vrouwelijk;Rechts;2;71;right;no;300;rightarrow;357;true;focus;yes;408575;Chrome;112.0;Windows;10;undefined;undefined;1536 x 864;1536 x 864
H029;22;Vrouwelijk;Rechts;2;72;right;no;300;rightarrow;409;true;focus;yes;409755;Chrome;112.0;Windows;10;undefined;undefined;1536 x 864;1536 x 864
H029;22;Vrouwelijk;Rechts;2;73;left;yes;300;leftarrow;428;false;focus;yes;410948;Chrome;112.0;Windows;10;undefined;undefined;1536 x 864;1536 x 864
H029;22;Vrouwelijk;Rechts;2;74;right;yes;250;undefined;null;true;focus;yes;412983;Chrome;112.0;Windows;10;undefined;undefined;1536 x 864;1536 x 864
H029;22;Vrouwelijk;Rechts;2;75;left;no;300;leftarrow;341;true;focus;yes;414097;Chrome;112.0;Windows;10;undefined;undefined;1536 x 864;1536 x 864
H029;22;Vrouwelijk;Rechts;2;76;left;no;300;leftarrow;436;true;focus;yes;415301;Chrome;112.0;Windows;10;undefined;undefined;1536 x 864;1536 x 864
H029;22;Vrouwelijk;Rechts;2;77;left;no;300;leftarrow;492;true;focus;yes;416568;Chrome;112.0;Windows;10;undefined;undefined;1536 x 864;1536 x 864
H029;22;Vrouwelijk;Rechts;2;78;right;no;300;rightarrow;494;true;focus;yes;417837;Chrome;112.0;Windows;10;undefined;undefined;1536 x 864;1536 x 864
H029;22;Vrouwelijk;Rechts;2;79;right;no;300;rightarrow;508;true;focus;yes;419110;Chrome;112.0;Windows;10;undefined;undefined;1536 x 864;1536 x 864
H029;22;Vrouwelijk;Rechts;2;80;right;no;300;rightarrow;586;true;focus;yes;420467;Chrome;112.0;Windows;10;undefined;undefined;1536 x 864;1536 x 864
H029;22;Vrouwelijk;Rechts;2;81;left;no;300;leftarrow;594;true;focus;yes;421832;Chrome;112.0;Windows;10;undefined;undefined;1536 x 864;1536 x 864
H029;22;Vrouwelijk;Rechts;2;82;right;no;300;rightarrow;516;true;focus;yes;423127;Chrome;112.0;Windows;10;undefined;undefined;1536 x 864;1536 x 864
H029;22;Vrouwelijk;Rechts;2;83;right;yes;300;undefined;null;true;focus;yes;425158;Chrome;112.0;Windows;10;undefined;undefined;1536 x 864;1536 x 864
H029;22;Vrouwelijk;Rechts;2;84;left;yes;350;leftarrow;342;false;focus;yes;426276;Chrome;112.0;Windows;10;undefined;undefined;1536 x 864;1536 x 864
H029;22;Vrouwelijk;Rechts;2;85;left;no;300;leftarrow;487;true;focus;yes;427533;Chrome;112.0;Windows;10;undefined;undefined;1536 x 864;1536 x 864
H029;22;Vrouwelijk;Rechts;2;86;left;no;300;leftarrow;511;true;focus;yes;428810;Chrome;112.0;Windows;10;undefined;undefined;1536 x 864;1536 x 864
H029;22;Vrouwelijk;Rechts;2;87;right;no;300;rightarrow;509;true;focus;yes;430086;Chrome;112.0;Windows;10;undefined;undefined;1536 x 864;1536 x 864
H029;22;Vrouwelijk;Rechts;2;88;right;no;300;rightarrow;523;true;focus;yes;431385;Chrome;112.0;Windows;10;undefined;undefined;1536 x 864;1536 x 864
H029;22;Vrouwelijk;Rechts;2;89;left;no;300;leftarrow;608;true;focus;yes;432766;Chrome;112.0;Windows;10;undefined;undefined;1536 x 864;1536 x 864
H029;22;Vrouwelijk;Rechts;2;90;right;no;300;rightarrow;491;true;focus;yes;434038;Chrome;112.0;Windows;10;undefined;undefined;1536 x 864;1536 x 864
H029;22;Vrouwelijk;Rechts;2;91;left;no;300;leftarrow;531;true;focus;yes;435343;Chrome;112.0;Windows;10;undefined;undefined;1536 x 864;1536 x 864
H029;22;Vrouwelijk;Rechts;2;92;left;yes;300;leftarrow;389;false;focus;yes;436503;Chrome;112.0;Windows;10;undefined;undefined;1536 x 864;1536 x 864
H029;22;Vrouwelijk;Rechts;2;93;right;no;250;rightarrow;617;true;focus;yes;437889;Chrome;112.0;Windows;10;undefined;undefined;1536 x 864;1536 x 864
H029;22;Vrouwelijk;Rechts;2;94;left;no;250;leftarrow;541;true;focus;yes;439202;Chrome;112.0;Windows;10;undefined;undefined;1536 x 864;1536 x 864
H029;22;Vrouwelijk;Rechts;2;95;right;yes;250;rightarrow;375;false;focus;yes;440346;Chrome;112.0;Windows;10;undefined;undefined;1536 x 864;1536 x 864
H029;22;Vrouwelijk;Rechts;2;96;right;no;200;rightarrow;508;true;focus;yes;441620;Chrome;112.0;Windows;10;undefined;undefined;1536 x 864;1536 x 864
H029;22;Vrouwelijk;Rechts;2;97;right;no;200;rightarrow;358;true;focus;yes;442750;Chrome;112.0;Windows;10;undefined;undefined;1536 x 864;1536 x 864
H029;22;Vrouwelijk;Rechts;2;98;right;no;200;rightarrow;373;true;focus;yes;443890;Chrome;112.0;Windows;10;undefined;undefined;1536 x 864;1536 x 864
H029;22;Vrouwelijk;Rechts;2;99;left;no;200;leftarrow;643;true;focus;yes;445304;Chrome;112.0;Windows;10;undefined;undefined;1536 x 864;1536 x 864
H029;22;Vrouwelijk;Rechts;2;100;right;no;200;rightarrow;584;true;focus;yes;446667;Chrome;112.0;Windows;10;undefined;undefined;1536 x 864;1536 x 864
H029;22;Vrouwelijk;Rechts;2;101;left;no;200;leftarrow;462;true;focus;yes;447900;Chrome;112.0;Windows;10;undefined;undefined;1536 x 864;1536 x 864
H029;22;Vrouwelijk;Rechts;2;102;right;yes;200;undefined;null;true;focus;yes;449932;Chrome;112.0;Windows;10;undefined;undefined;1536 x 864;1536 x 864
H029;22;Vrouwelijk;Rechts;2;103;left;no;250;leftarrow;389;true;focus;yes;451095;Chrome;112.0;Windows;10;undefined;undefined;1536 x 864;1536 x 864
H029;22;Vrouwelijk;Rechts;2;104;left;yes;250;leftarrow;401;false;focus;yes;452277;Chrome;112.0;Windows;10;undefined;undefined;1536 x 864;1536 x 864
H029;22;Vrouwelijk;Rechts;2;105;right;no;200;rightarrow;510;true;focus;yes;453557;Chrome;112.0;Windows;10;undefined;undefined;1536 x 864;1536 x 864
H029;22;Vrouwelijk;Rechts;2;106;left;no;200;leftarrow;591;true;focus;yes;454930;Chrome;112.0;Windows;10;undefined;undefined;1536 x 864;1536 x 864
H029;22;Vrouwelijk;Rechts;2;107;left;yes;200;undefined;null;true;focus;yes;456967;Chrome;112.0;Windows;10;undefined;undefined;1536 x 864;1536 x 864
H029;22;Vrouwelijk;Rechts;2;108;left;no;250;leftarrow;453;true;focus;yes;458201;Chrome;112.0;Windows;10;undefined;undefined;1536 x 864;1536 x 864
H029;22;Vrouwelijk;Rechts;2;109;right;no;250;rightarrow;368;true;focus;yes;459337;Chrome;112.0;Windows;10;undefined;undefined;1536 x 864;1536 x 864
H029;22;Vrouwelijk;Rechts;2;110;left;no;250;leftarrow;392;true;focus;yes;460500;Chrome;112.0;Windows;10;undefined;undefined;1536 x 864;1536 x 864
H029;22;Vrouwelijk;Rechts;2;111;right;yes;250;rightarrow;365;false;focus;yes;461635;Chrome;112.0;Windows;10;undefined;undefined;1536 x 864;1536 x 864
H029;22;Vrouwelijk;Rechts;2;112;right;no;200;rightarrow;431;true;focus;yes;462846;Chrome;112.0;Windows;10;undefined;undefined;1536 x 864;1536 x 864
H029;22;Vrouwelijk;Rechts;2;113;left;no;200;leftarrow;646;true;focus;yes;464260;Chrome;112.0;Windows;10;undefined;undefined;1536 x 864;1536 x 864
H029;22;Vrouwelijk;Rechts;2;114;left;no;200;leftarrow;505;true;focus;yes;465539;Chrome;112.0;Windows;10;undefined;undefined;1536 x 864;1536 x 864
H029;22;Vrouwelijk;Rechts;2;115;right;no;200;rightarrow;512;true;focus;yes;466825;Chrome;112.0;Windows;10;undefined;undefined;1536 x 864;1536 x 864
H029;22;Vrouwelijk;Rechts;2;116;left;yes;200;undefined;null;true;focus;yes;468856;Chrome;112.0;Windows;10;undefined;undefined;1536 x 864;1536 x 864
H029;22;Vrouwelijk;Rechts;2;117;right;no;250;rightarrow;339;true;focus;yes;469970;Chrome;112.0;Windows;10;undefined;undefined;1536 x 864;1536 x 864
H029;22;Vrouwelijk;Rechts;2;118;left;no;250;leftarrow;416;true;focus;yes;471155;Chrome;112.0;Windows;10;undefined;undefined;1536 x 864;1536 x 864
H029;22;Vrouwelijk;Rechts;2;119;right;no;250;rightarrow;495;true;focus;yes;472422;Chrome;112.0;Windows;10;undefined;undefined;1536 x 864;1536 x 864
H029;22;Vrouwelijk;Rechts;2;120;right;yes;250;undefined;null;true;focus;yes;474452;Chrome;112.0;Windows;10;undefined;undefined;1536 x 864;1536 x 864
H029;22;Vrouwelijk;Rechts;2;121;left;no;300;leftarrow;381;true;focus;yes;475607;Chrome;112.0;Windows;10;undefined;undefined;1536 x 864;1536 x 864
H029;22;Vrouwelijk;Rechts;2;122;right;no;300;rightarrow;402;true;focus;yes;476787;Chrome;112.0;Windows;10;undefined;undefined;1536 x 864;1536 x 864
H029;22;Vrouwelijk;Rechts;2;123;left;no;300;leftarrow;424;true;focus;yes;477985;Chrome;112.0;Windows;10;undefined;undefined;1536 x 864;1536 x 864
H029;22;Vrouwelijk;Rechts;2;124;right;no;300;rightarrow;452;true;focus;yes;479216;Chrome;112.0;Windows;10;undefined;undefined;1536 x 864;1536 x 864
H029;22;Vrouwelijk;Rechts;2;125;right;yes;300;rightarrow;445;false;focus;yes;480429;Chrome;112.0;Windows;10;undefined;undefined;1536 x 864;1536 x 864
H029;22;Vrouwelijk;Rechts;2;126;left;yes;250;leftarrow;395;false;focus;yes;481601;Chrome;112.0;Windows;10;undefined;undefined;1536 x 864;1536 x 864
H029;22;Vrouwelijk;Rechts;2;127;right;no;200;rightarrow;483;true;focus;yes;482859;Chrome;112.0;Windows;10;undefined;undefined;1536 x 864;1536 x 864
H029;22;Vrouwelijk;Rechts;2;128;left;no;200;leftarrow;487;true;focus;yes;484114;Chrome;112.0;Windows;10;undefined;undefined;1536 x 864;1536 x 864
H029;22;Vrouwelijk;Rechts;3;1;right;yes;200;rightarrow;492;false;focus;yes;503540;Chrome;112.0;Windows;10;undefined;undefined;1536 x 864;1536 x 864
H029;22;Vrouwelijk;Rechts;3;2;right;no;150;rightarrow;441;true;focus;yes;504751;Chrome;112.0;Windows;10;undefined;undefined;1536 x 864;1536 x 864
H029;22;Vrouwelijk;Rechts;3;3;right;no;150;rightarrow;379;true;focus;yes;505905;Chrome;112.0;Windows;10;undefined;undefined;1536 x 864;1536 x 864
H029;22;Vrouwelijk;Rechts;3;4;left;yes;150;undefined;null;true;focus;yes;507940;Chrome;112.0;Windows;10;undefined;undefined;1536 x 864;1536 x 864
H029;22;Vrouwelijk;Rechts;3;5;left;no;200;leftarrow;421;true;focus;yes;509136;Chrome;112.0;Windows;10;undefined;undefined;1536 x 864;1536 x 864
H029;22;Vrouwelijk;Rechts;3;6;left;no;200;leftarrow;443;true;focus;yes;510349;Chrome;112.0;Windows;10;undefined;undefined;1536 x 864;1536 x 864
H029;22;Vrouwelijk;Rechts;3;7;left;no;200;leftarrow;369;true;focus;yes;511494;Chrome;112.0;Windows;10;undefined;undefined;1536 x 864;1536 x 864
H029;22;Vrouwelijk;Rechts;3;8;right;no;200;rightarrow;496;true;focus;yes;512764;Chrome;112.0;Windows;10;undefined;undefined;1536 x 864;1536 x 864
H029;22;Vrouwelijk;Rechts;3;9;left;no;200;leftarrow;519;true;focus;yes;514053;Chrome;112.0;Windows;10;undefined;undefined;1536 x 864;1536 x 864
H029;22;Vrouwelijk;Rechts;3;10;right;no;200;rightarrow;491;true;focus;yes;515319;Chrome;112.0;Windows;10;undefined;undefined;1536 x 864;1536 x 864
H029;22;Vrouwelijk;Rechts;3;11;right;no;200;rightarrow;478;true;focus;yes;516574;Chrome;112.0;Windows;10;undefined;undefined;1536 x 864;1536 x 864
H029;22;Vrouwelijk;Rechts;3;12;right;no;200;rightarrow;446;true;focus;yes;517792;Chrome;112.0;Windows;10;undefined;undefined;1536 x 864;1536 x 864
H029;22;Vrouwelijk;Rechts;3;13;right;yes;200;undefined;null;true;focus;yes;519824;Chrome;112.0;Windows;10;undefined;undefined;1536 x 864;1536 x 864
H029;22;Vrouwelijk;Rechts;3;14;left;yes;250;undefined;null;true;focus;yes;521862;Chrome;112.0;Windows;10;undefined;undefined;1536 x 864;1536 x 864
H029;22;Vrouwelijk;Rechts;3;15;left;no;300;leftarrow;497;true;focus;yes;523136;Chrome;112.0;Windows;10;undefined;undefined;1536 x 864;1536 x 864
H029;22;Vrouwelijk;Rechts;3;16;left;no;300;leftarrow;492;true;focus;yes;524398;Chrome;112.0;Windows;10;undefined;undefined;1536 x 864;1536 x 864
H029;22;Vrouwelijk;Rechts;3;17;right;no;300;rightarrow;556;true;focus;yes;525731;Chrome;112.0;Windows;10;undefined;undefined;1536 x 864;1536 x 864
H029;22;Vrouwelijk;Rechts;3;18;right;no;300;rightarrow;589;true;focus;yes;527099;Chrome;112.0;Windows;10;undefined;undefined;1536 x 864;1536 x 864
H029;22;Vrouwelijk;Rechts;3;19;left;no;300;leftarrow;589;true;focus;yes;528462;Chrome;112.0;Windows;10;undefined;undefined;1536 x 864;1536 x 864
H029;22;Vrouwelijk;Rechts;3;20;left;no;300;leftarrow;632;true;focus;yes;529874;Chrome;112.0;Windows;10;undefined;undefined;1536 x 864;1536 x 864
H029;22;Vrouwelijk;Rechts;3;21;right;yes;300;undefined;null;true;focus;yes;531912;Chrome;112.0;Windows;10;undefined;undefined;1536 x 864;1536 x 864
H029;22;Vrouwelijk;Rechts;3;22;left;yes;350;leftarrow;560;false;focus;yes;533246;Chrome;112.0;Windows;10;undefined;undefined;1536 x 864;1536 x 864
H029;22;Vrouwelijk;Rechts;3;23;left;no;300;leftarrow;535;true;focus;yes;534562;Chrome;112.0;Windows;10;undefined;undefined;1536 x 864;1536 x 864
H029;22;Vrouwelijk;Rechts;3;24;right;no;300;rightarrow;492;true;focus;yes;535832;Chrome;112.0;Windows;10;undefined;undefined;1536 x 864;1536 x 864
H029;22;Vrouwelijk;Rechts;3;25;right;no;300;rightarrow;492;true;focus;yes;537101;Chrome;112.0;Windows;10;undefined;undefined;1536 x 864;1536 x 864
H029;22;Vrouwelijk;Rechts;3;26;left;no;300;leftarrow;569;true;focus;yes;538440;Chrome;112.0;Windows;10;undefined;undefined;1536 x 864;1536 x 864
H029;22;Vrouwelijk;Rechts;3;27;left;no;300;leftarrow;512;true;focus;yes;539723;Chrome;112.0;Windows;10;undefined;undefined;1536 x 864;1536 x 864
H029;22;Vrouwelijk;Rechts;3;28;right;no;300;rightarrow;590;true;focus;yes;541094;Chrome;112.0;Windows;10;undefined;undefined;1536 x 864;1536 x 864
H029;22;Vrouwelijk;Rechts;3;29;right;yes;300;undefined;null;true;focus;yes;543124;Chrome;112.0;Windows;10;undefined;undefined;1536 x 864;1536 x 864
H029;22;Vrouwelijk;Rechts;3;30;left;yes;350;leftarrow;476;false;focus;yes;544374;Chrome;112.0;Windows;10;undefined;undefined;1536 x 864;1536 x 864
H029;22;Vrouwelijk;Rechts;3;31;right;no;300;rightarrow;448;true;focus;yes;545598;Chrome;112.0;Windows;10;undefined;undefined;1536 x 864;1536 x 864
H029;22;Vrouwelijk;Rechts;3;32;left;no;300;leftarrow;560;true;focus;yes;546934;Chrome;112.0;Windows;10;undefined;undefined;1536 x 864;1536 x 864
H029;22;Vrouwelijk;Rechts;3;33;left;no;300;leftarrow;557;true;focus;yes;548263;Chrome;112.0;Windows;10;undefined;undefined;1536 x 864;1536 x 864
H029;22;Vrouwelijk;Rechts;3;34;left;no;300;leftarrow;599;true;focus;yes;549631;Chrome;112.0;Windows;10;undefined;undefined;1536 x 864;1536 x 864
H029;22;Vrouwelijk;Rechts;3;35;right;yes;300;undefined;null;true;focus;yes;551668;Chrome;112.0;Windows;10;undefined;undefined;1536 x 864;1536 x 864
H029;22;Vrouwelijk;Rechts;3;36;right;no;350;rightarrow;702;true;focus;yes;553147;Chrome;112.0;Windows;10;undefined;undefined;1536 x 864;1536 x 864
H029;22;Vrouwelijk;Rechts;3;37;left;yes;350;undefined;null;true;focus;yes;555172;Chrome;112.0;Windows;10;undefined;undefined;1536 x 864;1536 x 864
H029;22;Vrouwelijk;Rechts;3;38;right;no;400;rightarrow;751;true;focus;yes;556700;Chrome;112.0;Windows;10;undefined;undefined;1536 x 864;1536 x 864
H029;22;Vrouwelijk;Rechts;3;39;right;no;400;rightarrow;542;true;focus;yes;558019;Chrome;112.0;Windows;10;undefined;undefined;1536 x 864;1536 x 864
H029;22;Vrouwelijk;Rechts;3;40;left;no;400;leftarrow;552;true;focus;yes;559342;Chrome;112.0;Windows;10;undefined;undefined;1536 x 864;1536 x 864
H029;22;Vrouwelijk;Rechts;3;41;right;yes;400;undefined;null;true;focus;yes;561382;Chrome;112.0;Windows;10;undefined;undefined;1536 x 864;1536 x 864
H029;22;Vrouwelijk;Rechts;3;42;right;no;450;rightarrow;506;true;focus;yes;562662;Chrome;112.0;Windows;10;undefined;undefined;1536 x 864;1536 x 864
H029;22;Vrouwelijk;Rechts;3;43;left;no;450;leftarrow;604;true;focus;yes;564037;Chrome;112.0;Windows;10;undefined;undefined;1536 x 864;1536 x 864
H029;22;Vrouwelijk;Rechts;3;44;left;yes;450;leftarrow;627;false;focus;yes;565434;Chrome;112.0;Windows;10;undefined;undefined;1536 x 864;1536 x 864
H029;22;Vrouwelijk;Rechts;3;45;left;no;400;leftarrow;593;true;focus;yes;566811;Chrome;112.0;Windows;10;undefined;undefined;1536 x 864;1536 x 864
H029;22;Vrouwelijk;Rechts;3;46;right;no;400;rightarrow;673;true;focus;yes;568267;Chrome;112.0;Windows;10;undefined;undefined;1536 x 864;1536 x 864
H029;22;Vrouwelijk;Rechts;3;47;right;no;400;rightarrow;804;true;focus;yes;569845;Chrome;112.0;Windows;10;undefined;undefined;1536 x 864;1536 x 864
H029;22;Vrouwelijk;Rechts;3;48;left;no;400;leftarrow;718;true;focus;yes;571334;Chrome;112.0;Windows;10;undefined;undefined;1536 x 864;1536 x 864
H029;22;Vrouwelijk;Rechts;3;49;left;no;400;leftarrow;793;true;focus;yes;572906;Chrome;112.0;Windows;10;undefined;undefined;1536 x 864;1536 x 864
H029;22;Vrouwelijk;Rechts;3;50;right;yes;400;rightarrow;577;false;focus;yes;574259;Chrome;112.0;Windows;10;undefined;undefined;1536 x 864;1536 x 864
H029;22;Vrouwelijk;Rechts;3;51;right;no;350;rightarrow;722;true;focus;yes;575760;Chrome;112.0;Windows;10;undefined;undefined;1536 x 864;1536 x 864
H029;22;Vrouwelijk;Rechts;3;52;left;no;350;leftarrow;659;true;focus;yes;577192;Chrome;112.0;Windows;10;undefined;undefined;1536 x 864;1536 x 864
H029;22;Vrouwelijk;Rechts;3;53;right;no;350;rightarrow;569;true;focus;yes;578539;Chrome;112.0;Windows;10;undefined;undefined;1536 x 864;1536 x 864
H029;22;Vrouwelijk;Rechts;3;54;left;no;350;leftarrow;538;true;focus;yes;579853;Chrome;112.0;Windows;10;undefined;undefined;1536 x 864;1536 x 864
H029;22;Vrouwelijk;Rechts;3;55;right;no;350;rightarrow;476;true;focus;yes;581103;Chrome;112.0;Windows;10;undefined;undefined;1536 x 864;1536 x 864
H029;22;Vrouwelijk;Rechts;3;56;left;yes;350;leftarrow;412;false;focus;yes;582287;Chrome;112.0;Windows;10;undefined;undefined;1536 x 864;1536 x 864
H029;22;Vrouwelijk;Rechts;3;57;right;no;300;rightarrow;356;true;focus;yes;583418;Chrome;112.0;Windows;10;undefined;undefined;1536 x 864;1536 x 864
H029;22;Vrouwelijk;Rechts;3;58;right;no;300;rightarrow;382;true;focus;yes;584569;Chrome;112.0;Windows;10;undefined;undefined;1536 x 864;1536 x 864
H029;22;Vrouwelijk;Rechts;3;59;left;no;300;leftarrow;407;true;focus;yes;585753;Chrome;112.0;Windows;10;undefined;undefined;1536 x 864;1536 x 864
H029;22;Vrouwelijk;Rechts;3;60;left;yes;300;leftarrow;399;false;focus;yes;586919;Chrome;112.0;Windows;10;undefined;undefined;1536 x 864;1536 x 864
H029;22;Vrouwelijk;Rechts;3;61;left;no;250;leftarrow;406;true;focus;yes;588103;Chrome;112.0;Windows;10;undefined;undefined;1536 x 864;1536 x 864
H029;22;Vrouwelijk;Rechts;3;62;right;no;250;rightarrow;513;true;focus;yes;589383;Chrome;112.0;Windows;10;undefined;undefined;1536 x 864;1536 x 864
H029;22;Vrouwelijk;Rechts;3;63;right;yes;250;undefined;null;true;focus;yes;591419;Chrome;112.0;Windows;10;undefined;undefined;1536 x 864;1536 x 864
H029;22;Vrouwelijk;Rechts;3;64;left;no;300;leftarrow;399;true;focus;yes;592595;Chrome;112.0;Windows;10;undefined;undefined;1536 x 864;1536 x 864
H029;22;Vrouwelijk;Rechts;3;65;left;no;300;leftarrow;507;true;focus;yes;593874;Chrome;112.0;Windows;10;undefined;undefined;1536 x 864;1536 x 864
H029;22;Vrouwelijk;Rechts;3;66;left;no;300;leftarrow;562;true;focus;yes;595210;Chrome;112.0;Windows;10;undefined;undefined;1536 x 864;1536 x 864
H029;22;Vrouwelijk;Rechts;3;67;left;no;300;leftarrow;544;true;focus;yes;596533;Chrome;112.0;Windows;10;undefined;undefined;1536 x 864;1536 x 864
H029;22;Vrouwelijk;Rechts;3;68;right;no;300;rightarrow;379;true;focus;yes;597689;Chrome;112.0;Windows;10;undefined;undefined;1536 x 864;1536 x 864
H029;22;Vrouwelijk;Rechts;3;69;left;yes;300;leftarrow;504;false;focus;yes;598971;Chrome;112.0;Windows;10;undefined;undefined;1536 x 864;1536 x 864
H029;22;Vrouwelijk;Rechts;3;70;right;yes;250;undefined;null;true;focus;yes;600999;Chrome;112.0;Windows;10;undefined;undefined;1536 x 864;1536 x 864
H029;22;Vrouwelijk;Rechts;3;71;right;no;300;rightarrow;543;true;focus;yes;602314;Chrome;112.0;Windows;10;undefined;undefined;1536 x 864;1536 x 864
H029;22;Vrouwelijk;Rechts;3;72;right;no;300;rightarrow;390;true;focus;yes;603478;Chrome;112.0;Windows;10;undefined;undefined;1536 x 864;1536 x 864
H029;22;Vrouwelijk;Rechts;3;73;right;no;300;rightarrow;571;true;focus;yes;604826;Chrome;112.0;Windows;10;undefined;undefined;1536 x 864;1536 x 864
H029;22;Vrouwelijk;Rechts;3;74;right;no;300;rightarrow;545;true;focus;yes;606151;Chrome;112.0;Windows;10;undefined;undefined;1536 x 864;1536 x 864
H029;22;Vrouwelijk;Rechts;3;75;right;no;300;rightarrow;634;true;focus;yes;607563;Chrome;112.0;Windows;10;undefined;undefined;1536 x 864;1536 x 864
H029;22;Vrouwelijk;Rechts;3;76;left;no;300;leftarrow;719;true;focus;yes;609048;Chrome;112.0;Windows;10;undefined;undefined;1536 x 864;1536 x 864
H029;22;Vrouwelijk;Rechts;3;77;left;no;300;leftarrow;652;true;focus;yes;610472;Chrome;112.0;Windows;10;undefined;undefined;1536 x 864;1536 x 864
H029;22;Vrouwelijk;Rechts;3;78;right;yes;300;undefined;null;true;focus;yes;612501;Chrome;112.0;Windows;10;undefined;undefined;1536 x 864;1536 x 864
H029;22;Vrouwelijk;Rechts;3;79;left;yes;350;leftarrow;388;false;focus;yes;613665;Chrome;112.0;Windows;10;undefined;undefined;1536 x 864;1536 x 864
H029;22;Vrouwelijk;Rechts;3;80;left;no;300;leftarrow;585;true;focus;yes;615016;Chrome;112.0;Windows;10;undefined;undefined;1536 x 864;1536 x 864
H029;22;Vrouwelijk;Rechts;3;81;right;no;300;rightarrow;483;true;focus;yes;616278;Chrome;112.0;Windows;10;undefined;undefined;1536 x 864;1536 x 864
H029;22;Vrouwelijk;Rechts;3;82;left;no;300;leftarrow;485;true;focus;yes;617543;Chrome;112.0;Windows;10;undefined;undefined;1536 x 864;1536 x 864
H029;22;Vrouwelijk;Rechts;3;83;left;no;300;leftarrow;384;true;focus;yes;618709;Chrome;112.0;Windows;10;undefined;undefined;1536 x 864;1536 x 864
H029;22;Vrouwelijk;Rechts;3;84;right;no;300;rightarrow;445;true;focus;yes;619930;Chrome;112.0;Windows;10;undefined;undefined;1536 x 864;1536 x 864
H029;22;Vrouwelijk;Rechts;3;85;right;no;300;rightarrow;406;true;focus;yes;621114;Chrome;112.0;Windows;10;undefined;undefined;1536 x 864;1536 x 864
H029;22;Vrouwelijk;Rechts;3;86;right;yes;300;rightarrow;449;false;focus;yes;622343;Chrome;112.0;Windows;10;undefined;undefined;1536 x 864;1536 x 864
H029;22;Vrouwelijk;Rechts;3;87;left;yes;250;leftarrow;340;false;focus;yes;623452;Chrome;112.0;Windows;10;undefined;undefined;1536 x 864;1536 x 864
H029;22;Vrouwelijk;Rechts;3;88;left;no;200;leftarrow;490;true;focus;yes;624712;Chrome;112.0;Windows;10;undefined;undefined;1536 x 864;1536 x 864
H029;22;Vrouwelijk;Rechts;3;89;left;no;200;leftarrow;532;true;focus;yes;626017;Chrome;112.0;Windows;10;undefined;undefined;1536 x 864;1536 x 864
H029;22;Vrouwelijk;Rechts;3;90;right;no;200;rightarrow;605;true;focus;yes;627402;Chrome;112.0;Windows;10;undefined;undefined;1536 x 864;1536 x 864
H029;22;Vrouwelijk;Rechts;3;91;right;no;200;rightarrow;612;true;focus;yes;628789;Chrome;112.0;Windows;10;undefined;undefined;1536 x 864;1536 x 864
H029;22;Vrouwelijk;Rechts;3;92;right;yes;200;undefined;null;true;focus;yes;630831;Chrome;112.0;Windows;10;undefined;undefined;1536 x 864;1536 x 864
H029;22;Vrouwelijk;Rechts;3;93;left;no;250;leftarrow;477;true;focus;yes;632081;Chrome;112.0;Windows;10;undefined;undefined;1536 x 864;1536 x 864
H029;22;Vrouwelijk;Rechts;3;94;left;no;250;leftarrow;535;true;focus;yes;633389;Chrome;112.0;Windows;10;undefined;undefined;1536 x 864;1536 x 864
H029;22;Vrouwelijk;Rechts;3;95;left;yes;250;undefined;null;true;focus;yes;635426;Chrome;112.0;Windows;10;undefined;undefined;1536 x 864;1536 x 864
H029;22;Vrouwelijk;Rechts;3;96;right;no;300;rightarrow;413;true;focus;yes;636616;Chrome;112.0;Windows;10;undefined;undefined;1536 x 864;1536 x 864
H029;22;Vrouwelijk;Rechts;3;97;right;no;300;rightarrow;485;true;focus;yes;637877;Chrome;112.0;Windows;10;undefined;undefined;1536 x 864;1536 x 864
H029;22;Vrouwelijk;Rechts;3;98;left;no;300;leftarrow;453;true;focus;yes;639110;Chrome;112.0;Windows;10;undefined;undefined;1536 x 864;1536 x 864
H029;22;Vrouwelijk;Rechts;3;99;left;no;300;leftarrow;576;true;focus;yes;640466;Chrome;112.0;Windows;10;undefined;undefined;1536 x 864;1536 x 864
H029;22;Vrouwelijk;Rechts;3;100;left;no;300;leftarrow;496;true;focus;yes;641745;Chrome;112.0;Windows;10;undefined;undefined;1536 x 864;1536 x 864
H029;22;Vrouwelijk;Rechts;3;101;right;yes;300;undefined;null;true;focus;yes;643786;Chrome;112.0;Windows;10;undefined;undefined;1536 x 864;1536 x 864
H029;22;Vrouwelijk;Rechts;3;102;right;no;350;rightarrow;478;true;focus;yes;645030;Chrome;112.0;Windows;10;undefined;undefined;1536 x 864;1536 x 864
H029;22;Vrouwelijk;Rechts;3;103;right;no;350;rightarrow;508;true;focus;yes;646306;Chrome;112.0;Windows;10;undefined;undefined;1536 x 864;1536 x 864
H029;22;Vrouwelijk;Rechts;3;104;left;yes;350;leftarrow;512;false;focus;yes;647590;Chrome;112.0;Windows;10;undefined;undefined;1536 x 864;1536 x 864
H029;22;Vrouwelijk;Rechts;3;105;right;yes;300;undefined;null;true;focus;yes;649637;Chrome;112.0;Windows;10;undefined;undefined;1536 x 864;1536 x 864
H029;22;Vrouwelijk;Rechts;3;106;left;no;350;leftarrow;382;true;focus;yes;650797;Chrome;112.0;Windows;10;undefined;undefined;1536 x 864;1536 x 864
H029;22;Vrouwelijk;Rechts;3;107;left;yes;350;undefined;null;true;focus;yes;652833;Chrome;112.0;Windows;10;undefined;undefined;1536 x 864;1536 x 864
H029;22;Vrouwelijk;Rechts;3;108;left;no;400;leftarrow;455;true;focus;yes;654066;Chrome;112.0;Windows;10;undefined;undefined;1536 x 864;1536 x 864
H029;22;Vrouwelijk;Rechts;3;109;left;no;400;leftarrow;481;true;focus;yes;655326;Chrome;112.0;Windows;10;undefined;undefined;1536 x 864;1536 x 864
H029;22;Vrouwelijk;Rechts;3;110;right;no;400;rightarrow;699;true;focus;yes;656795;Chrome;112.0;Windows;10;undefined;undefined;1536 x 864;1536 x 864
H029;22;Vrouwelijk;Rechts;3;111;right;no;400;rightarrow;587;true;focus;yes;658163;Chrome;112.0;Windows;10;undefined;undefined;1536 x 864;1536 x 864
H029;22;Vrouwelijk;Rechts;3;112;right;no;400;rightarrow;608;true;focus;yes;659547;Chrome;112.0;Windows;10;undefined;undefined;1536 x 864;1536 x 864
H029;22;Vrouwelijk;Rechts;3;113;left;no;400;leftarrow;659;true;focus;yes;660989;Chrome;112.0;Windows;10;undefined;undefined;1536 x 864;1536 x 864
H029;22;Vrouwelijk;Rechts;3;114;left;no;400;leftarrow;574;true;focus;yes;662341;Chrome;112.0;Windows;10;undefined;undefined;1536 x 864;1536 x 864
H029;22;Vrouwelijk;Rechts;3;115;left;yes;400;undefined;null;true;focus;yes;664372;Chrome;112.0;Windows;10;undefined;undefined;1536 x 864;1536 x 864
H029;22;Vrouwelijk;Rechts;3;116;right;no;450;rightarrow;504;true;focus;yes;665650;Chrome;112.0;Windows;10;undefined;undefined;1536 x 864;1536 x 864
H029;22;Vrouwelijk;Rechts;3;117;right;no;450;rightarrow;519;true;focus;yes;666943;Chrome;112.0;Windows;10;undefined;undefined;1536 x 864;1536 x 864
H029;22;Vrouwelijk;Rechts;3;118;left;no;450;leftarrow;604;true;focus;yes;668323;Chrome;112.0;Windows;10;undefined;undefined;1536 x 864;1536 x 864
H029;22;Vrouwelijk;Rechts;3;119;right;no;450;rightarrow;520;true;focus;yes;669612;Chrome;112.0;Windows;10;undefined;undefined;1536 x 864;1536 x 864
H029;22;Vrouwelijk;Rechts;3;120;right;yes;450;rightarrow;543;false;focus;yes;670933;Chrome;112.0;Windows;10;undefined;undefined;1536 x 864;1536 x 864
H029;22;Vrouwelijk;Rechts;3;121;left;no;400;leftarrow;783;true;focus;yes;672483;Chrome;112.0;Windows;10;undefined;undefined;1536 x 864;1536 x 864
H029;22;Vrouwelijk;Rechts;3;122;right;no;400;rightarrow;555;true;focus;yes;673813;Chrome;112.0;Windows;10;undefined;undefined;1536 x 864;1536 x 864
H029;22;Vrouwelijk;Rechts;3;123;right;no;400;rightarrow;772;true;focus;yes;675360;Chrome;112.0;Windows;10;undefined;undefined;1536 x 864;1536 x 864
H029;22;Vrouwelijk;Rechts;3;124;left;yes;400;undefined;null;true;focus;yes;677390;Chrome;112.0;Windows;10;undefined;undefined;1536 x 864;1536 x 864
H029;22;Vrouwelijk;Rechts;3;125;right;no;450;rightarrow;522;true;focus;yes;678687;Chrome;112.0;Windows;10;undefined;undefined;1536 x 864;1536 x 864
H029;22;Vrouwelijk;Rechts;3;126;right;yes;450;rightarrow;458;false;focus;yes;679916;Chrome;112.0;Windows;10;undefined;undefined;1536 x 864;1536 x 864
H029;22;Vrouwelijk;Rechts;3;127;left;no;400;leftarrow;594;true;focus;yes;681287;Chrome;112.0;Windows;10;undefined;undefined;1536 x 864;1536 x 864
H029;22;Vrouwelijk;Rechts;3;128;left;no;400;leftarrow;588;true;focus;yes;682655;Chrome;112.0;Windows;10;undefined;undefined;1536 x 864;1536 x 864
H029;22;Vrouwelijk;Rechts;4;1;right;yes;400;rightarrow;549;false;focus;yes;710346;Chrome;112.0;Windows;10;undefined;undefined;1536 x 864;1536 x 864
H029;22;Vrouwelijk;Rechts;4;2;right;no;350;rightarrow;502;true;focus;yes;711626;Chrome;112.0;Windows;10;undefined;undefined;1536 x 864;1536 x 864
H029;22;Vrouwelijk;Rechts;4;3;left;yes;350;leftarrow;444;false;focus;yes;712849;Chrome;112.0;Windows;10;undefined;undefined;1536 x 864;1536 x 864
H029;22;Vrouwelijk;Rechts;4;4;left;no;300;leftarrow;348;true;focus;yes;713970;Chrome;112.0;Windows;10;undefined;undefined;1536 x 864;1536 x 864
H029;22;Vrouwelijk;Rechts;4;5;left;no;300;rightarrow;286;false;focus;yes;715023;Chrome;112.0;Windows;10;undefined;undefined;1536 x 864;1536 x 864
H029;22;Vrouwelijk;Rechts;4;6;right;no;300;rightarrow;398;true;focus;yes;716202;Chrome;112.0;Windows;10;undefined;undefined;1536 x 864;1536 x 864
H029;22;Vrouwelijk;Rechts;4;7;right;no;300;rightarrow;414;true;focus;yes;717392;Chrome;112.0;Windows;10;undefined;undefined;1536 x 864;1536 x 864
H029;22;Vrouwelijk;Rechts;4;8;left;no;300;leftarrow;386;true;focus;yes;718550;Chrome;112.0;Windows;10;undefined;undefined;1536 x 864;1536 x 864
H029;22;Vrouwelijk;Rechts;4;9;left;no;300;leftarrow;373;true;focus;yes;719700;Chrome;112.0;Windows;10;undefined;undefined;1536 x 864;1536 x 864
H029;22;Vrouwelijk;Rechts;4;10;right;no;300;rightarrow;372;true;focus;yes;720841;Chrome;112.0;Windows;10;undefined;undefined;1536 x 864;1536 x 864
H029;22;Vrouwelijk;Rechts;4;11;left;no;300;leftarrow;416;true;focus;yes;722031;Chrome;112.0;Windows;10;undefined;undefined;1536 x 864;1536 x 864
H029;22;Vrouwelijk;Rechts;4;12;left;yes;300;leftarrow;392;false;focus;yes;723198;Chrome;112.0;Windows;10;undefined;undefined;1536 x 864;1536 x 864
H029;22;Vrouwelijk;Rechts;4;13;right;no;250;rightarrow;347;true;focus;yes;724325;Chrome;112.0;Windows;10;undefined;undefined;1536 x 864;1536 x 864
H029;22;Vrouwelijk;Rechts;4;14;right;yes;250;rightarrow;377;false;focus;yes;725483;Chrome;112.0;Windows;10;undefined;undefined;1536 x 864;1536 x 864
H029;22;Vrouwelijk;Rechts;4;15;left;no;200;leftarrow;381;true;focus;yes;726642;Chrome;112.0;Windows;10;undefined;undefined;1536 x 864;1536 x 864
H029;22;Vrouwelijk;Rechts;4;16;right;no;200;rightarrow;575;true;focus;yes;727994;Chrome;112.0;Windows;10;undefined;undefined;1536 x 864;1536 x 864
H029;22;Vrouwelijk;Rechts;4;17;right;no;200;rightarrow;635;true;focus;yes;729406;Chrome;112.0;Windows;10;undefined;undefined;1536 x 864;1536 x 864
H029;22;Vrouwelijk;Rechts;4;18;left;no;200;leftarrow;723;true;focus;yes;730900;Chrome;112.0;Windows;10;undefined;undefined;1536 x 864;1536 x 864
H029;22;Vrouwelijk;Rechts;4;19;right;no;200;rightarrow;696;true;focus;yes;732368;Chrome;112.0;Windows;10;undefined;undefined;1536 x 864;1536 x 864
H029;22;Vrouwelijk;Rechts;4;20;left;no;200;leftarrow;703;true;focus;yes;733840;Chrome;112.0;Windows;10;undefined;undefined;1536 x 864;1536 x 864
H029;22;Vrouwelijk;Rechts;4;21;right;yes;200;undefined;null;true;focus;yes;735884;Chrome;112.0;Windows;10;undefined;undefined;1536 x 864;1536 x 864
H029;22;Vrouwelijk;Rechts;4;22;right;no;250;rightarrow;454;true;focus;yes;737113;Chrome;112.0;Windows;10;undefined;undefined;1536 x 864;1536 x 864
H029;22;Vrouwelijk;Rechts;4;23;left;no;250;leftarrow;476;true;focus;yes;738358;Chrome;112.0;Windows;10;undefined;undefined;1536 x 864;1536 x 864
H029;22;Vrouwelijk;Rechts;4;24;left;yes;250;undefined;null;true;focus;yes;740387;Chrome;112.0;Windows;10;undefined;undefined;1536 x 864;1536 x 864
H029;22;Vrouwelijk;Rechts;4;25;left;no;300;leftarrow;398;true;focus;yes;741563;Chrome;112.0;Windows;10;undefined;undefined;1536 x 864;1536 x 864
H029;22;Vrouwelijk;Rechts;4;26;left;no;300;leftarrow;721;true;focus;yes;743061;Chrome;112.0;Windows;10;undefined;undefined;1536 x 864;1536 x 864
H029;22;Vrouwelijk;Rechts;4;27;right;no;300;rightarrow;587;true;focus;yes;744421;Chrome;112.0;Windows;10;undefined;undefined;1536 x 864;1536 x 864
H029;22;Vrouwelijk;Rechts;4;28;right;no;300;rightarrow;571;true;focus;yes;745764;Chrome;112.0;Windows;10;undefined;undefined;1536 x 864;1536 x 864
H029;22;Vrouwelijk;Rechts;4;29;right;no;300;rightarrow;632;true;focus;yes;747167;Chrome;112.0;Windows;10;undefined;undefined;1536 x 864;1536 x 864
H029;22;Vrouwelijk;Rechts;4;30;right;yes;300;undefined;null;true;focus;yes;749197;Chrome;112.0;Windows;10;undefined;undefined;1536 x 864;1536 x 864
H029;22;Vrouwelijk;Rechts;4;31;left;yes;350;leftarrow;402;false;focus;yes;750376;Chrome;112.0;Windows;10;undefined;undefined;1536 x 864;1536 x 864
H029;22;Vrouwelijk;Rechts;4;32;left;no;300;leftarrow;579;true;focus;yes;751730;Chrome;112.0;Windows;10;undefined;undefined;1536 x 864;1536 x 864
H029;22;Vrouwelijk;Rechts;4;33;right;no;300;rightarrow;581;true;focus;yes;753089;Chrome;112.0;Windows;10;undefined;undefined;1536 x 864;1536 x 864
H029;22;Vrouwelijk;Rechts;4;34;right;no;300;rightarrow;523;true;focus;yes;754392;Chrome;112.0;Windows;10;undefined;undefined;1536 x 864;1536 x 864
H029;22;Vrouwelijk;Rechts;4;35;right;no;300;rightarrow;478;true;focus;yes;755647;Chrome;112.0;Windows;10;undefined;undefined;1536 x 864;1536 x 864
H029;22;Vrouwelijk;Rechts;4;36;left;yes;300;undefined;null;true;focus;yes;757677;Chrome;112.0;Windows;10;undefined;undefined;1536 x 864;1536 x 864
H029;22;Vrouwelijk;Rechts;4;37;right;yes;350;rightarrow;543;false;focus;yes;758995;Chrome;112.0;Windows;10;undefined;undefined;1536 x 864;1536 x 864
H029;22;Vrouwelijk;Rechts;4;38;left;no;300;leftarrow;672;true;focus;yes;760439;Chrome;112.0;Windows;10;undefined;undefined;1536 x 864;1536 x 864
H029;22;Vrouwelijk;Rechts;4;39;left;no;300;leftarrow;519;true;focus;yes;761738;Chrome;112.0;Windows;10;undefined;undefined;1536 x 864;1536 x 864
H029;22;Vrouwelijk;Rechts;4;40;left;no;300;leftarrow;546;true;focus;yes;763062;Chrome;112.0;Windows;10;undefined;undefined;1536 x 864;1536 x 864
H029;22;Vrouwelijk;Rechts;4;41;right;no;300;rightarrow;607;true;focus;yes;764445;Chrome;112.0;Windows;10;undefined;undefined;1536 x 864;1536 x 864
H029;22;Vrouwelijk;Rechts;4;42;left;no;300;leftarrow;581;true;focus;yes;765803;Chrome;112.0;Windows;10;undefined;undefined;1536 x 864;1536 x 864
H029;22;Vrouwelijk;Rechts;4;43;left;no;300;leftarrow;574;true;focus;yes;767154;Chrome;112.0;Windows;10;undefined;undefined;1536 x 864;1536 x 864
H029;22;Vrouwelijk;Rechts;4;44;left;yes;300;undefined;null;true;focus;yes;769184;Chrome;112.0;Windows;10;undefined;undefined;1536 x 864;1536 x 864
H029;22;Vrouwelijk;Rechts;4;45;left;no;350;leftarrow;376;true;focus;yes;770335;Chrome;112.0;Windows;10;undefined;undefined;1536 x 864;1536 x 864
H029;22;Vrouwelijk;Rechts;4;46;right;no;350;rightarrow;600;true;focus;yes;771702;Chrome;112.0;Windows;10;undefined;undefined;1536 x 864;1536 x 864
H029;22;Vrouwelijk;Rechts;4;47;right;yes;350;undefined;null;true;focus;yes;773734;Chrome;112.0;Windows;10;undefined;undefined;1536 x 864;1536 x 864
H029;22;Vrouwelijk;Rechts;4;48;right;no;400;rightarrow;420;true;focus;yes;774930;Chrome;112.0;Windows;10;undefined;undefined;1536 x 864;1536 x 864
H029;22;Vrouwelijk;Rechts;4;49;left;no;400;leftarrow;461;true;focus;yes;776172;Chrome;112.0;Windows;10;undefined;undefined;1536 x 864;1536 x 864
H029;22;Vrouwelijk;Rechts;4;50;left;no;400;leftarrow;567;true;focus;yes;777512;Chrome;112.0;Windows;10;undefined;undefined;1536 x 864;1536 x 864
H029;22;Vrouwelijk;Rechts;4;51;right;yes;400;rightarrow;553;false;focus;yes;778839;Chrome;112.0;Windows;10;undefined;undefined;1536 x 864;1536 x 864
H029;22;Vrouwelijk;Rechts;4;52;left;yes;350;undefined;null;true;focus;yes;780879;Chrome;112.0;Windows;10;undefined;undefined;1536 x 864;1536 x 864
H029;22;Vrouwelijk;Rechts;4;53;right;no;400;rightarrow;533;true;focus;yes;782187;Chrome;112.0;Windows;10;undefined;undefined;1536 x 864;1536 x 864
H029;22;Vrouwelijk;Rechts;4;54;right;no;400;rightarrow;577;true;focus;yes;783544;Chrome;112.0;Windows;10;undefined;undefined;1536 x 864;1536 x 864
H029;22;Vrouwelijk;Rechts;4;55;left;no;400;leftarrow;708;true;focus;yes;785032;Chrome;112.0;Windows;10;undefined;undefined;1536 x 864;1536 x 864
H029;22;Vrouwelijk;Rechts;4;56;right;no;400;rightarrow;403;true;focus;yes;786208;Chrome;112.0;Windows;10;undefined;undefined;1536 x 864;1536 x 864
H029;22;Vrouwelijk;Rechts;4;57;right;yes;400;rightarrow;439;false;focus;yes;787429;Chrome;112.0;Windows;10;undefined;undefined;1536 x 864;1536 x 864
H029;22;Vrouwelijk;Rechts;4;58;left;no;350;leftarrow;333;true;focus;yes;788536;Chrome;112.0;Windows;10;undefined;undefined;1536 x 864;1536 x 864
H029;22;Vrouwelijk;Rechts;4;59;left;no;350;leftarrow;380;true;focus;yes;789694;Chrome;112.0;Windows;10;undefined;undefined;1536 x 864;1536 x 864
H029;22;Vrouwelijk;Rechts;4;60;left;no;350;leftarrow;319;true;focus;yes;790790;Chrome;112.0;Windows;10;undefined;undefined;1536 x 864;1536 x 864
H029;22;Vrouwelijk;Rechts;4;61;left;yes;350;leftarrow;364;false;focus;yes;791935;Chrome;112.0;Windows;10;undefined;undefined;1536 x 864;1536 x 864
H029;22;Vrouwelijk;Rechts;4;62;right;no;300;leftarrow;279;false;focus;yes;792989;Chrome;112.0;Windows;10;undefined;undefined;1536 x 864;1536 x 864
H029;22;Vrouwelijk;Rechts;4;63;right;no;300;rightarrow;386;true;focus;yes;794141;Chrome;112.0;Windows;10;undefined;undefined;1536 x 864;1536 x 864
H029;22;Vrouwelijk;Rechts;4;64;right;no;300;rightarrow;374;true;focus;yes;795284;Chrome;112.0;Windows;10;undefined;undefined;1536 x 864;1536 x 864
H029;22;Vrouwelijk;Rechts;4;65;left;no;300;leftarrow;378;true;focus;yes;796422;Chrome;112.0;Windows;10;undefined;undefined;1536 x 864;1536 x 864
H029;22;Vrouwelijk;Rechts;4;67;left;yes;300;leftarrow;303;false;focus;yes;798606;Chrome;112.0;Windows;10;undefined;undefined;1536 x 864;1536 x 864
H029;22;Vrouwelijk;Rechts;4;66;left;no;300;leftarrow;337;true;focus;yes;797527;Chrome;112.0;Windows;10;undefined;undefined;1536 x 864;1536 x 864
H029;22;Vrouwelijk;Rechts;4;68;left;no;250;leftarrow;310;true;focus;yes;799693;Chrome;112.0;Windows;10;undefined;undefined;1536 x 864;1536 x 864
H029;22;Vrouwelijk;Rechts;4;69;right;yes;250;rightarrow;356;false;focus;yes;800819;Chrome;112.0;Windows;10;undefined;undefined;1536 x 864;1536 x 864
H029;22;Vrouwelijk;Rechts;4;70;right;no;200;rightarrow;383;true;focus;yes;801973;Chrome;112.0;Windows;10;undefined;undefined;1536 x 864;1536 x 864
H029;22;Vrouwelijk;Rechts;4;71;right;no;200;rightarrow;402;true;focus;yes;803150;Chrome;112.0;Windows;10;undefined;undefined;1536 x 864;1536 x 864
H029;22;Vrouwelijk;Rechts;4;72;right;no;200;rightarrow;397;true;focus;yes;804318;Chrome;112.0;Windows;10;undefined;undefined;1536 x 864;1536 x 864
H029;22;Vrouwelijk;Rechts;4;73;left;no;200;leftarrow;358;true;focus;yes;805455;Chrome;112.0;Windows;10;undefined;undefined;1536 x 864;1536 x 864
H029;22;Vrouwelijk;Rechts;4;74;right;yes;200;rightarrow;361;false;focus;yes;806583;Chrome;112.0;Windows;10;undefined;undefined;1536 x 864;1536 x 864
H029;22;Vrouwelijk;Rechts;4;75;right;no;150;rightarrow;377;true;focus;yes;807739;Chrome;112.0;Windows;10;undefined;undefined;1536 x 864;1536 x 864
H029;22;Vrouwelijk;Rechts;4;76;left;no;150;leftarrow;392;true;focus;yes;808906;Chrome;112.0;Windows;10;undefined;undefined;1536 x 864;1536 x 864
H029;22;Vrouwelijk;Rechts;4;77;left;yes;150;undefined;null;true;focus;yes;810931;Chrome;112.0;Windows;10;undefined;undefined;1536 x 864;1536 x 864
H029;22;Vrouwelijk;Rechts;4;78;right;no;200;rightarrow;473;true;focus;yes;812173;Chrome;112.0;Windows;10;undefined;undefined;1536 x 864;1536 x 864
H029;22;Vrouwelijk;Rechts;4;79;right;no;200;rightarrow;405;true;focus;yes;813348;Chrome;112.0;Windows;10;undefined;undefined;1536 x 864;1536 x 864
H029;22;Vrouwelijk;Rechts;4;80;left;no;200;leftarrow;409;true;focus;yes;814526;Chrome;112.0;Windows;10;undefined;undefined;1536 x 864;1536 x 864
H029;22;Vrouwelijk;Rechts;4;81;right;no;200;rightarrow;458;true;focus;yes;815754;Chrome;112.0;Windows;10;undefined;undefined;1536 x 864;1536 x 864
H029;22;Vrouwelijk;Rechts;4;82;left;no;200;leftarrow;383;true;focus;yes;816915;Chrome;112.0;Windows;10;undefined;undefined;1536 x 864;1536 x 864
H029;22;Vrouwelijk;Rechts;4;83;right;no;200;rightarrow;481;true;focus;yes;818170;Chrome;112.0;Windows;10;undefined;undefined;1536 x 864;1536 x 864
H029;22;Vrouwelijk;Rechts;4;84;left;no;200;leftarrow;443;true;focus;yes;819382;Chrome;112.0;Windows;10;undefined;undefined;1536 x 864;1536 x 864
H029;22;Vrouwelijk;Rechts;4;85;left;yes;200;leftarrow;418;false;focus;yes;820580;Chrome;112.0;Windows;10;undefined;undefined;1536 x 864;1536 x 864
H029;22;Vrouwelijk;Rechts;4;86;left;no;150;leftarrow;519;true;focus;yes;821881;Chrome;112.0;Windows;10;undefined;undefined;1536 x 864;1536 x 864
H029;22;Vrouwelijk;Rechts;4;87;right;yes;150;undefined;null;true;focus;yes;823919;Chrome;112.0;Windows;10;undefined;undefined;1536 x 864;1536 x 864
H029;22;Vrouwelijk;Rechts;4;88;right;no;200;rightarrow;405;true;focus;yes;825107;Chrome;112.0;Windows;10;undefined;undefined;1536 x 864;1536 x 864
H029;22;Vrouwelijk;Rechts;4;89;right;no;200;leftarrow;317;false;focus;yes;826198;Chrome;112.0;Windows;10;undefined;undefined;1536 x 864;1536 x 864
H029;22;Vrouwelijk;Rechts;4;90;right;yes;200;undefined;null;true;focus;yes;828229;Chrome;112.0;Windows;10;undefined;undefined;1536 x 864;1536 x 864
H029;22;Vrouwelijk;Rechts;4;91;left;no;250;leftarrow;550;true;focus;yes;829556;Chrome;112.0;Windows;10;undefined;undefined;1536 x 864;1536 x 864
H029;22;Vrouwelijk;Rechts;4;92;left;yes;250;leftarrow;436;false;focus;yes;830775;Chrome;112.0;Windows;10;undefined;undefined;1536 x 864;1536 x 864
H029;22;Vrouwelijk;Rechts;4;93;right;no;200;rightarrow;536;true;focus;yes;832085;Chrome;112.0;Windows;10;undefined;undefined;1536 x 864;1536 x 864
H029;22;Vrouwelijk;Rechts;4;94;right;no;200;rightarrow;572;true;focus;yes;833429;Chrome;112.0;Windows;10;undefined;undefined;1536 x 864;1536 x 864
H029;22;Vrouwelijk;Rechts;4;95;left;no;200;leftarrow;521;true;focus;yes;834719;Chrome;112.0;Windows;10;undefined;undefined;1536 x 864;1536 x 864
H029;22;Vrouwelijk;Rechts;4;96;left;no;200;leftarrow;650;true;focus;yes;836144;Chrome;112.0;Windows;10;undefined;undefined;1536 x 864;1536 x 864
H029;22;Vrouwelijk;Rechts;4;97;left;yes;200;undefined;null;true;focus;yes;838178;Chrome;112.0;Windows;10;undefined;undefined;1536 x 864;1536 x 864
H029;22;Vrouwelijk;Rechts;4;98;right;no;250;rightarrow;390;true;focus;yes;839345;Chrome;112.0;Windows;10;undefined;undefined;1536 x 864;1536 x 864
H029;22;Vrouwelijk;Rechts;4;99;right;yes;250;rightarrow;371;false;focus;yes;840485;Chrome;112.0;Windows;10;undefined;undefined;1536 x 864;1536 x 864
H029;22;Vrouwelijk;Rechts;4;101;left;no;200;leftarrow;486;true;focus;yes;843013;Chrome;112.0;Windows;10;undefined;undefined;1536 x 864;1536 x 864
H029;22;Vrouwelijk;Rechts;4;100;left;no;200;leftarrow;498;true;focus;yes;841755;Chrome;112.0;Windows;10;undefined;undefined;1536 x 864;1536 x 864
H029;22;Vrouwelijk;Rechts;4;102;right;no;200;rightarrow;618;true;focus;yes;844411;Chrome;112.0;Windows;10;undefined;undefined;1536 x 864;1536 x 864
H029;22;Vrouwelijk;Rechts;4;103;left;no;200;leftarrow;780;true;focus;yes;845975;Chrome;112.0;Windows;10;undefined;undefined;1536 x 864;1536 x 864
H029;22;Vrouwelijk;Rechts;4;104;right;no;200;rightarrow;476;true;focus;yes;847233;Chrome;112.0;Windows;10;undefined;undefined;1536 x 864;1536 x 864
H029;22;Vrouwelijk;Rechts;4;105;right;no;200;rightarrow;503;true;focus;yes;848513;Chrome;112.0;Windows;10;undefined;undefined;1536 x 864;1536 x 864
H029;22;Vrouwelijk;Rechts;4;106;left;yes;200;undefined;null;true;focus;yes;850548;Chrome;112.0;Windows;10;undefined;undefined;1536 x 864;1536 x 864
H029;22;Vrouwelijk;Rechts;4;107;left;no;250;leftarrow;416;true;focus;yes;851742;Chrome;112.0;Windows;10;undefined;undefined;1536 x 864;1536 x 864
H029;22;Vrouwelijk;Rechts;4;108;left;no;250;leftarrow;362;true;focus;yes;852878;Chrome;112.0;Windows;10;undefined;undefined;1536 x 864;1536 x 864
H029;22;Vrouwelijk;Rechts;4;109;right;yes;250;rightarrow;315;false;focus;yes;853972;Chrome;112.0;Windows;10;undefined;undefined;1536 x 864;1536 x 864
H029;22;Vrouwelijk;Rechts;4;110;left;no;200;leftarrow;352;true;focus;yes;855094;Chrome;112.0;Windows;10;undefined;undefined;1536 x 864;1536 x 864
H029;22;Vrouwelijk;Rechts;4;111;right;no;200;rightarrow;673;true;focus;yes;856536;Chrome;112.0;Windows;10;undefined;undefined;1536 x 864;1536 x 864
H029;22;Vrouwelijk;Rechts;4;112;right;no;200;rightarrow;500;true;focus;yes;857809;Chrome;112.0;Windows;10;undefined;undefined;1536 x 864;1536 x 864
H029;22;Vrouwelijk;Rechts;4;113;left;no;200;leftarrow;450;true;focus;yes;859038;Chrome;112.0;Windows;10;undefined;undefined;1536 x 864;1536 x 864
H029;22;Vrouwelijk;Rechts;4;114;right;no;200;rightarrow;396;true;focus;yes;860191;Chrome;112.0;Windows;10;undefined;undefined;1536 x 864;1536 x 864
H029;22;Vrouwelijk;Rechts;4;115;left;no;200;leftarrow;420;true;focus;yes;861391;Chrome;112.0;Windows;10;undefined;undefined;1536 x 864;1536 x 864
H029;22;Vrouwelijk;Rechts;4;116;left;no;200;leftarrow;480;true;focus;yes;862642;Chrome;112.0;Windows;10;undefined;undefined;1536 x 864;1536 x 864
H029;22;Vrouwelijk;Rechts;4;117;right;no;200;rightarrow;410;true;focus;yes;863820;Chrome;112.0;Windows;10;undefined;undefined;1536 x 864;1536 x 864
H029;22;Vrouwelijk;Rechts;4;118;right;no;200;rightarrow;452;true;focus;yes;865049;Chrome;112.0;Windows;10;undefined;undefined;1536 x 864;1536 x 864
H029;22;Vrouwelijk;Rechts;4;119;right;yes;200;undefined;null;true;focus;yes;867072;Chrome;112.0;Windows;10;undefined;undefined;1536 x 864;1536 x 864
H029;22;Vrouwelijk;Rechts;4;120;left;yes;250;undefined;null;true;focus;yes;869100;Chrome;112.0;Windows;10;undefined;undefined;1536 x 864;1536 x 864
H029;22;Vrouwelijk;Rechts;4;121;left;no;300;leftarrow;506;true;focus;yes;870390;Chrome;112.0;Windows;10;undefined;undefined;1536 x 864;1536 x 864
H029;22;Vrouwelijk;Rechts;4;122;left;yes;300;leftarrow;452;false;focus;yes;871603;Chrome;112.0;Windows;10;undefined;undefined;1536 x 864;1536 x 864
H029;22;Vrouwelijk;Rechts;4;123;right;no;250;rightarrow;535;true;focus;yes;872910;Chrome;112.0;Windows;10;undefined;undefined;1536 x 864;1536 x 864
H029;22;Vrouwelijk;Rechts;4;124;right;no;250;rightarrow;520;true;focus;yes;874196;Chrome;112.0;Windows;10;undefined;undefined;1536 x 864;1536 x 864
H029;22;Vrouwelijk;Rechts;4;125;left;no;250;leftarrow;526;true;focus;yes;875496;Chrome;112.0;Windows;10;undefined;undefined;1536 x 864;1536 x 864
H029;22;Vrouwelijk;Rechts;4;126;right;yes;250;undefined;null;true;focus;yes;877526;Chrome;112.0;Windows;10;undefined;undefined;1536 x 864;1536 x 864
H029;22;Vrouwelijk;Rechts;4;127;left;no;300;leftarrow;398;true;focus;yes;878699;Chrome;112.0;Windows;10;undefined;undefined;1536 x 864;1536 x 864
H029;22;Vrouwelijk;Rechts;4;128;right;no;300;rightarrow;516;true;focus;yes;879988;Chrome;112.0;Windows;10;undefined;undefined;1536 x 864;1536 x 864
H029;22;Vrouwelijk;Rechts;5;1;left;no;300;leftarrow;491;true;focus;yes;905093;Chrome;112.0;Windows;10;undefined;undefined;1536 x 864;1536 x 864
H029;22;Vrouwelijk;Rechts;5;2;left;no;300;leftarrow;444;true;focus;yes;906314;Chrome;112.0;Windows;10;undefined;undefined;1536 x 864;1536 x 864
H029;22;Vrouwelijk;Rechts;5;3;right;no;300;rightarrow;462;true;focus;yes;907551;Chrome;112.0;Windows;10;undefined;undefined;1536 x 864;1536 x 864
H029;22;Vrouwelijk;Rechts;5;4;left;no;300;leftarrow;392;true;focus;yes;908711;Chrome;112.0;Windows;10;undefined;undefined;1536 x 864;1536 x 864
H029;22;Vrouwelijk;Rechts;5;5;left;yes;300;leftarrow;386;false;focus;yes;909868;Chrome;112.0;Windows;10;undefined;undefined;1536 x 864;1536 x 864
H029;22;Vrouwelijk;Rechts;5;6;right;yes;250;rightarrow;354;false;focus;yes;910998;Chrome;112.0;Windows;10;undefined;undefined;1536 x 864;1536 x 864
H029;22;Vrouwelijk;Rechts;5;7;right;no;200;rightarrow;496;true;focus;yes;912266;Chrome;112.0;Windows;10;undefined;undefined;1536 x 864;1536 x 864
H029;22;Vrouwelijk;Rechts;5;8;right;no;200;rightarrow;537;true;focus;yes;913576;Chrome;112.0;Windows;10;undefined;undefined;1536 x 864;1536 x 864
H029;22;Vrouwelijk;Rechts;5;9;left;no;200;leftarrow;517;true;focus;yes;914869;Chrome;112.0;Windows;10;undefined;undefined;1536 x 864;1536 x 864
H029;22;Vrouwelijk;Rechts;5;10;right;yes;200;undefined;null;true;focus;yes;916902;Chrome;112.0;Windows;10;undefined;undefined;1536 x 864;1536 x 864
H029;22;Vrouwelijk;Rechts;5;11;left;no;250;leftarrow;527;true;focus;yes;918206;Chrome;112.0;Windows;10;undefined;undefined;1536 x 864;1536 x 864
H029;22;Vrouwelijk;Rechts;5;12;right;no;250;rightarrow;554;true;focus;yes;919542;Chrome;112.0;Windows;10;undefined;undefined;1536 x 864;1536 x 864
H029;22;Vrouwelijk;Rechts;5;13;left;yes;250;undefined;null;true;focus;yes;921576;Chrome;112.0;Windows;10;undefined;undefined;1536 x 864;1536 x 864
H029;22;Vrouwelijk;Rechts;5;14;left;no;300;leftarrow;403;true;focus;yes;922743;Chrome;112.0;Windows;10;undefined;undefined;1536 x 864;1536 x 864
H029;22;Vrouwelijk;Rechts;5;15;right;no;300;rightarrow;445;true;focus;yes;923967;Chrome;112.0;Windows;10;undefined;undefined;1536 x 864;1536 x 864
H029;22;Vrouwelijk;Rechts;5;16;right;no;300;rightarrow;446;true;focus;yes;925186;Chrome;112.0;Windows;10;undefined;undefined;1536 x 864;1536 x 864
H029;22;Vrouwelijk;Rechts;5;17;left;no;300;leftarrow;503;true;focus;yes;926460;Chrome;112.0;Windows;10;undefined;undefined;1536 x 864;1536 x 864
H029;22;Vrouwelijk;Rechts;5;18;right;yes;300;rightarrow;456;false;focus;yes;927699;Chrome;112.0;Windows;10;undefined;undefined;1536 x 864;1536 x 864
H029;22;Vrouwelijk;Rechts;5;19;left;no;250;leftarrow;697;true;focus;yes;929175;Chrome;112.0;Windows;10;undefined;undefined;1536 x 864;1536 x 864
H029;22;Vrouwelijk;Rechts;5;20;right;no;250;rightarrow;689;true;focus;yes;930632;Chrome;112.0;Windows;10;undefined;undefined;1536 x 864;1536 x 864
H029;22;Vrouwelijk;Rechts;5;21;left;no;250;leftarrow;561;true;focus;yes;931960;Chrome;112.0;Windows;10;undefined;undefined;1536 x 864;1536 x 864
H029;22;Vrouwelijk;Rechts;5;22;right;no;250;rightarrow;845;true;focus;yes;933583;Chrome;112.0;Windows;10;undefined;undefined;1536 x 864;1536 x 864
H029;22;Vrouwelijk;Rechts;5;23;left;yes;250;undefined;null;true;focus;yes;935618;Chrome;112.0;Windows;10;undefined;undefined;1536 x 864;1536 x 864
H029;22;Vrouwelijk;Rechts;5;24;right;no;300;rightarrow;481;true;focus;yes;936879;Chrome;112.0;Windows;10;undefined;undefined;1536 x 864;1536 x 864
H029;22;Vrouwelijk;Rechts;5;25;right;yes;300;rightarrow;460;false;focus;yes;938121;Chrome;112.0;Windows;10;undefined;undefined;1536 x 864;1536 x 864
H029;22;Vrouwelijk;Rechts;5;26;left;no;250;leftarrow;631;true;focus;yes;939526;Chrome;112.0;Windows;10;undefined;undefined;1536 x 864;1536 x 864
H029;22;Vrouwelijk;Rechts;5;27;left;yes;250;undefined;null;true;focus;yes;941563;Chrome;112.0;Windows;10;undefined;undefined;1536 x 864;1536 x 864
H029;22;Vrouwelijk;Rechts;5;28;left;no;300;leftarrow;482;true;focus;yes;942822;Chrome;112.0;Windows;10;undefined;undefined;1536 x 864;1536 x 864
H029;22;Vrouwelijk;Rechts;5;29;right;no;300;rightarrow;635;true;focus;yes;944223;Chrome;112.0;Windows;10;undefined;undefined;1536 x 864;1536 x 864
H029;22;Vrouwelijk;Rechts;5;30;right;no;300;rightarrow;420;true;focus;yes;945411;Chrome;112.0;Windows;10;undefined;undefined;1536 x 864;1536 x 864
H029;22;Vrouwelijk;Rechts;5;31;right;no;300;rightarrow;432;true;focus;yes;946612;Chrome;112.0;Windows;10;undefined;undefined;1536 x 864;1536 x 864
H029;22;Vrouwelijk;Rechts;5;32;left;no;300;leftarrow;416;true;focus;yes;947803;Chrome;112.0;Windows;10;undefined;undefined;1536 x 864;1536 x 864
H029;22;Vrouwelijk;Rechts;5;33;right;no;300;rightarrow;421;true;focus;yes;948996;Chrome;112.0;Windows;10;undefined;undefined;1536 x 864;1536 x 864
H029;22;Vrouwelijk;Rechts;5;34;left;yes;300;leftarrow;485;false;focus;yes;950253;Chrome;112.0;Windows;10;undefined;undefined;1536 x 864;1536 x 864
H029;22;Vrouwelijk;Rechts;5;35;left;no;250;leftarrow;494;true;focus;yes;951531;Chrome;112.0;Windows;10;undefined;undefined;1536 x 864;1536 x 864
H029;22;Vrouwelijk;Rechts;5;36;left;no;250;leftarrow;457;true;focus;yes;952760;Chrome;112.0;Windows;10;undefined;undefined;1536 x 864;1536 x 864
H029;22;Vrouwelijk;Rechts;5;37;right;yes;250;undefined;null;true;focus;yes;954796;Chrome;112.0;Windows;10;undefined;undefined;1536 x 864;1536 x 864
H029;22;Vrouwelijk;Rechts;5;38;right;no;300;rightarrow;439;true;focus;yes;956011;Chrome;112.0;Windows;10;undefined;undefined;1536 x 864;1536 x 864
H029;22;Vrouwelijk;Rechts;5;39;left;no;300;leftarrow;422;true;focus;yes;957214;Chrome;112.0;Windows;10;undefined;undefined;1536 x 864;1536 x 864
H029;22;Vrouwelijk;Rechts;5;40;right;no;300;rightarrow;475;true;focus;yes;958472;Chrome;112.0;Windows;10;undefined;undefined;1536 x 864;1536 x 864
H029;22;Vrouwelijk;Rechts;5;41;right;yes;300;rightarrow;460;false;focus;yes;959702;Chrome;112.0;Windows;10;undefined;undefined;1536 x 864;1536 x 864
H029;22;Vrouwelijk;Rechts;5;42;left;no;250;leftarrow;589;true;focus;yes;961065;Chrome;112.0;Windows;10;undefined;undefined;1536 x 864;1536 x 864
H029;22;Vrouwelijk;Rechts;5;43;left;no;250;leftarrow;482;true;focus;yes;962315;Chrome;112.0;Windows;10;undefined;undefined;1536 x 864;1536 x 864
H029;22;Vrouwelijk;Rechts;5;44;right;no;250;rightarrow;476;true;focus;yes;963561;Chrome;112.0;Windows;10;undefined;undefined;1536 x 864;1536 x 864
H029;22;Vrouwelijk;Rechts;5;45;left;no;250;leftarrow;478;true;focus;yes;964813;Chrome;112.0;Windows;10;undefined;undefined;1536 x 864;1536 x 864
H029;22;Vrouwelijk;Rechts;5;46;right;no;250;rightarrow;518;true;focus;yes;966105;Chrome;112.0;Windows;10;undefined;undefined;1536 x 864;1536 x 864
H029;22;Vrouwelijk;Rechts;5;47;left;yes;250;undefined;null;true;focus;yes;968145;Chrome;112.0;Windows;10;undefined;undefined;1536 x 864;1536 x 864
H029;22;Vrouwelijk;Rechts;5;48;right;no;300;rightarrow;415;true;focus;yes;969336;Chrome;112.0;Windows;10;undefined;undefined;1536 x 864;1536 x 864
H029;22;Vrouwelijk;Rechts;5;49;right;no;300;rightarrow;418;true;focus;yes;970523;Chrome;112.0;Windows;10;undefined;undefined;1536 x 864;1536 x 864
H029;22;Vrouwelijk;Rechts;5;50;left;no;300;leftarrow;372;true;focus;yes;971676;Chrome;112.0;Windows;10;undefined;undefined;1536 x 864;1536 x 864
H029;22;Vrouwelijk;Rechts;5;51;left;no;300;leftarrow;396;true;focus;yes;972845;Chrome;112.0;Windows;10;undefined;undefined;1536 x 864;1536 x 864
H029;22;Vrouwelijk;Rechts;5;52;right;no;300;rightarrow;360;true;focus;yes;973979;Chrome;112.0;Windows;10;undefined;undefined;1536 x 864;1536 x 864
H029;22;Vrouwelijk;Rechts;5;53;left;no;300;leftarrow;394;true;focus;yes;975142;Chrome;112.0;Windows;10;undefined;undefined;1536 x 864;1536 x 864
H029;22;Vrouwelijk;Rechts;5;54;right;yes;300;undefined;null;true;focus;yes;977183;Chrome;112.0;Windows;10;undefined;undefined;1536 x 864;1536 x 864
H029;22;Vrouwelijk;Rechts;5;55;left;yes;350;leftarrow;396;false;focus;yes;978354;Chrome;112.0;Windows;10;undefined;undefined;1536 x 864;1536 x 864
H029;22;Vrouwelijk;Rechts;5;56;right;no;300;rightarrow;502;true;focus;yes;979631;Chrome;112.0;Windows;10;undefined;undefined;1536 x 864;1536 x 864
H029;22;Vrouwelijk;Rechts;5;57;left;no;300;leftarrow;543;true;focus;yes;980952;Chrome;112.0;Windows;10;undefined;undefined;1536 x 864;1536 x 864
H029;22;Vrouwelijk;Rechts;5;58;left;yes;300;undefined;null;true;focus;yes;982990;Chrome;112.0;Windows;10;undefined;undefined;1536 x 864;1536 x 864
H029;22;Vrouwelijk;Rechts;5;59;left;no;350;leftarrow;392;true;focus;yes;984158;Chrome;112.0;Windows;10;undefined;undefined;1536 x 864;1536 x 864
H029;22;Vrouwelijk;Rechts;5;60;right;no;350;rightarrow;303;true;focus;yes;985226;Chrome;112.0;Windows;10;undefined;undefined;1536 x 864;1536 x 864
H029;22;Vrouwelijk;Rechts;5;61;right;yes;350;rightarrow;362;false;focus;yes;986368;Chrome;112.0;Windows;10;undefined;undefined;1536 x 864;1536 x 864
H029;22;Vrouwelijk;Rechts;5;62;right;no;300;rightarrow;397;true;focus;yes;987544;Chrome;112.0;Windows;10;undefined;undefined;1536 x 864;1536 x 864
H029;22;Vrouwelijk;Rechts;5;63;left;no;300;leftarrow;360;true;focus;yes;988677;Chrome;112.0;Windows;10;undefined;undefined;1536 x 864;1536 x 864
H029;22;Vrouwelijk;Rechts;5;64;right;no;300;rightarrow;310;true;focus;yes;989768;Chrome;112.0;Windows;10;undefined;undefined;1536 x 864;1536 x 864
H029;22;Vrouwelijk;Rechts;5;65;right;yes;300;rightarrow;375;false;focus;yes;990912;Chrome;112.0;Windows;10;undefined;undefined;1536 x 864;1536 x 864
H029;22;Vrouwelijk;Rechts;5;66;right;no;250;rightarrow;355;true;focus;yes;992039;Chrome;112.0;Windows;10;undefined;undefined;1536 x 864;1536 x 864
H029;22;Vrouwelijk;Rechts;5;67;left;no;250;leftarrow;385;true;focus;yes;993197;Chrome;112.0;Windows;10;undefined;undefined;1536 x 864;1536 x 864
H029;22;Vrouwelijk;Rechts;5;68;left;no;250;leftarrow;369;true;focus;yes;994336;Chrome;112.0;Windows;10;undefined;undefined;1536 x 864;1536 x 864
H029;22;Vrouwelijk;Rechts;5;69;right;no;250;rightarrow;373;true;focus;yes;995486;Chrome;112.0;Windows;10;undefined;undefined;1536 x 864;1536 x 864
H029;22;Vrouwelijk;Rechts;5;70;right;no;250;rightarrow;343;true;focus;yes;996612;Chrome;112.0;Windows;10;undefined;undefined;1536 x 864;1536 x 864
H029;22;Vrouwelijk;Rechts;5;71;left;yes;250;leftarrow;338;false;focus;yes;997719;Chrome;112.0;Windows;10;undefined;undefined;1536 x 864;1536 x 864
H029;22;Vrouwelijk;Rechts;5;72;left;no;200;leftarrow;411;true;focus;yes;998902;Chrome;112.0;Windows;10;undefined;undefined;1536 x 864;1536 x 864
H029;22;Vrouwelijk;Rechts;5;73;right;no;200;rightarrow;575;true;focus;yes;1000252;Chrome;112.0;Windows;10;undefined;undefined;1536 x 864;1536 x 864
H029;22;Vrouwelijk;Rechts;5;74;right;yes;200;undefined;null;true;focus;yes;1002279;Chrome;112.0;Windows;10;undefined;undefined;1536 x 864;1536 x 864
H029;22;Vrouwelijk;Rechts;5;75;left;yes;250;leftarrow;425;false;focus;yes;1003480;Chrome;112.0;Windows;10;undefined;undefined;1536 x 864;1536 x 864
H029;22;Vrouwelijk;Rechts;5;76;right;no;200;rightarrow;652;true;focus;yes;1004909;Chrome;112.0;Windows;10;undefined;undefined;1536 x 864;1536 x 864
H029;22;Vrouwelijk;Rechts;5;77;right;no;200;rightarrow;438;true;focus;yes;1006126;Chrome;112.0;Windows;10;undefined;undefined;1536 x 864;1536 x 864
H029;22;Vrouwelijk;Rechts;5;78;left;no;200;leftarrow;552;true;focus;yes;1007456;Chrome;112.0;Windows;10;undefined;undefined;1536 x 864;1536 x 864
H029;22;Vrouwelijk;Rechts;5;79;left;no;200;leftarrow;464;true;focus;yes;1008700;Chrome;112.0;Windows;10;undefined;undefined;1536 x 864;1536 x 864
H029;22;Vrouwelijk;Rechts;5;80;left;no;200;leftarrow;385;true;focus;yes;1009854;Chrome;112.0;Windows;10;undefined;undefined;1536 x 864;1536 x 864
H029;22;Vrouwelijk;Rechts;5;81;right;no;200;rightarrow;458;true;focus;yes;1011085;Chrome;112.0;Windows;10;undefined;undefined;1536 x 864;1536 x 864
H029;22;Vrouwelijk;Rechts;5;82;left;yes;200;leftarrow;426;false;focus;yes;1012285;Chrome;112.0;Windows;10;undefined;undefined;1536 x 864;1536 x 864
H029;22;Vrouwelijk;Rechts;5;83;left;no;150;leftarrow;560;true;focus;yes;1013621;Chrome;112.0;Windows;10;undefined;undefined;1536 x 864;1536 x 864
H029;22;Vrouwelijk;Rechts;5;84;left;no;150;leftarrow;538;true;focus;yes;1014930;Chrome;112.0;Windows;10;undefined;undefined;1536 x 864;1536 x 864
H029;22;Vrouwelijk;Rechts;5;85;left;no;150;leftarrow;561;true;focus;yes;1016261;Chrome;112.0;Windows;10;undefined;undefined;1536 x 864;1536 x 864
H029;22;Vrouwelijk;Rechts;5;86;right;no;150;rightarrow;717;true;focus;yes;1017762;Chrome;112.0;Windows;10;undefined;undefined;1536 x 864;1536 x 864
H029;22;Vrouwelijk;Rechts;5;87;right;no;150;rightarrow;538;true;focus;yes;1019070;Chrome;112.0;Windows;10;undefined;undefined;1536 x 864;1536 x 864
H029;22;Vrouwelijk;Rechts;5;88;right;yes;150;undefined;null;true;focus;yes;1021097;Chrome;112.0;Windows;10;undefined;undefined;1536 x 864;1536 x 864
H029;22;Vrouwelijk;Rechts;5;89;left;no;200;leftarrow;426;true;focus;yes;1022290;Chrome;112.0;Windows;10;undefined;undefined;1536 x 864;1536 x 864
H029;22;Vrouwelijk;Rechts;5;90;right;no;200;rightarrow;543;true;focus;yes;1023607;Chrome;112.0;Windows;10;undefined;undefined;1536 x 864;1536 x 864
H029;22;Vrouwelijk;Rechts;5;91;right;yes;200;undefined;null;true;focus;yes;1025638;Chrome;112.0;Windows;10;undefined;undefined;1536 x 864;1536 x 864
H029;22;Vrouwelijk;Rechts;5;92;right;no;250;rightarrow;455;true;focus;yes;1026858;Chrome;112.0;Windows;10;undefined;undefined;1536 x 864;1536 x 864
H029;22;Vrouwelijk;Rechts;5;93;left;no;250;leftarrow;488;true;focus;yes;1028119;Chrome;112.0;Windows;10;undefined;undefined;1536 x 864;1536 x 864
H029;22;Vrouwelijk;Rechts;5;94;left;yes;250;undefined;null;true;focus;yes;1030156;Chrome;112.0;Windows;10;undefined;undefined;1536 x 864;1536 x 864
H029;22;Vrouwelijk;Rechts;5;95;left;no;300;leftarrow;396;true;focus;yes;1031328;Chrome;112.0;Windows;10;undefined;undefined;1536 x 864;1536 x 864
H029;22;Vrouwelijk;Rechts;5;96;right;no;300;rightarrow;590;true;focus;yes;1032693;Chrome;112.0;Windows;10;undefined;undefined;1536 x 864;1536 x 864
H029;22;Vrouwelijk;Rechts;5;97;right;yes;300;undefined;null;true;focus;yes;1034741;Chrome;112.0;Windows;10;undefined;undefined;1536 x 864;1536 x 864
H029;22;Vrouwelijk;Rechts;5;98;left;yes;350;leftarrow;450;false;focus;yes;1035970;Chrome;112.0;Windows;10;undefined;undefined;1536 x 864;1536 x 864
H029;22;Vrouwelijk;Rechts;5;99;right;no;300;rightarrow;467;true;focus;yes;1037218;Chrome;112.0;Windows;10;undefined;undefined;1536 x 864;1536 x 864
H029;22;Vrouwelijk;Rechts;5;100;left;no;300;leftarrow;505;true;focus;yes;1038504;Chrome;112.0;Windows;10;undefined;undefined;1536 x 864;1536 x 864
H029;22;Vrouwelijk;Rechts;5;101;right;no;300;rightarrow;489;true;focus;yes;1039769;Chrome;112.0;Windows;10;undefined;undefined;1536 x 864;1536 x 864
H029;22;Vrouwelijk;Rechts;5;102;right;no;300;rightarrow;472;true;focus;yes;1041022;Chrome;112.0;Windows;10;undefined;undefined;1536 x 864;1536 x 864
H029;22;Vrouwelijk;Rechts;5;103;left;no;300;leftarrow;564;true;focus;yes;1042361;Chrome;112.0;Windows;10;undefined;undefined;1536 x 864;1536 x 864
H029;22;Vrouwelijk;Rechts;5;104;left;no;300;leftarrow;464;true;focus;yes;1043603;Chrome;112.0;Windows;10;undefined;undefined;1536 x 864;1536 x 864
H029;22;Vrouwelijk;Rechts;5;105;left;no;300;leftarrow;461;true;focus;yes;1044846;Chrome;112.0;Windows;10;undefined;undefined;1536 x 864;1536 x 864
H029;22;Vrouwelijk;Rechts;5;106;right;yes;300;undefined;null;true;focus;yes;1046882;Chrome;112.0;Windows;10;undefined;undefined;1536 x 864;1536 x 864
H029;22;Vrouwelijk;Rechts;5;107;right;no;350;leftarrow;459;false;focus;yes;1048118;Chrome;112.0;Windows;10;undefined;undefined;1536 x 864;1536 x 864
H029;22;Vrouwelijk;Rechts;5;108;right;no;350;rightarrow;438;true;focus;yes;1049332;Chrome;112.0;Windows;10;undefined;undefined;1536 x 864;1536 x 864
H029;22;Vrouwelijk;Rechts;5;109;left;no;350;leftarrow;425;true;focus;yes;1050525;Chrome;112.0;Windows;10;undefined;undefined;1536 x 864;1536 x 864
H029;22;Vrouwelijk;Rechts;5;110;left;no;350;leftarrow;410;true;focus;yes;1051702;Chrome;112.0;Windows;10;undefined;undefined;1536 x 864;1536 x 864
H029;22;Vrouwelijk;Rechts;5;111;right;no;350;rightarrow;451;true;focus;yes;1052933;Chrome;112.0;Windows;10;undefined;undefined;1536 x 864;1536 x 864
H029;22;Vrouwelijk;Rechts;5;112;left;yes;350;leftarrow;370;false;focus;yes;1054080;Chrome;112.0;Windows;10;undefined;undefined;1536 x 864;1536 x 864
H029;22;Vrouwelijk;Rechts;5;113;right;no;300;rightarrow;524;true;focus;yes;1055374;Chrome;112.0;Windows;10;undefined;undefined;1536 x 864;1536 x 864
H029;22;Vrouwelijk;Rechts;5;114;right;no;300;rightarrow;509;true;focus;yes;1056659;Chrome;112.0;Windows;10;undefined;undefined;1536 x 864;1536 x 864
H029;22;Vrouwelijk;Rechts;5;115;right;yes;300;undefined;null;true;focus;yes;1058691;Chrome;112.0;Windows;10;undefined;undefined;1536 x 864;1536 x 864
H029;22;Vrouwelijk;Rechts;5;116;left;no;350;leftarrow;439;true;focus;yes;1059905;Chrome;112.0;Windows;10;undefined;undefined;1536 x 864;1536 x 864
H029;22;Vrouwelijk;Rechts;5;117;left;yes;350;leftarrow;514;false;focus;yes;1061198;Chrome;112.0;Windows;10;undefined;undefined;1536 x 864;1536 x 864
H029;22;Vrouwelijk;Rechts;5;118;left;no;300;leftarrow;535;true;focus;yes;1062514;Chrome;112.0;Windows;10;undefined;undefined;1536 x 864;1536 x 864
H029;22;Vrouwelijk;Rechts;5;119;left;no;300;leftarrow;553;true;focus;yes;1063841;Chrome;112.0;Windows;10;undefined;undefined;1536 x 864;1536 x 864
H029;22;Vrouwelijk;Rechts;5;120;right;no;300;rightarrow;490;true;focus;yes;1065109;Chrome;112.0;Windows;10;undefined;undefined;1536 x 864;1536 x 864
H029;22;Vrouwelijk;Rechts;5;121;left;yes;300;undefined;null;true;focus;yes;1067146;Chrome;112.0;Windows;10;undefined;undefined;1536 x 864;1536 x 864
H029;22;Vrouwelijk;Rechts;5;122;left;no;350;leftarrow;532;true;focus;yes;1068455;Chrome;112.0;Windows;10;undefined;undefined;1536 x 864;1536 x 864
H029;22;Vrouwelijk;Rechts;5;123;right;no;350;rightarrow;483;true;focus;yes;1069720;Chrome;112.0;Windows;10;undefined;undefined;1536 x 864;1536 x 864
H029;22;Vrouwelijk;Rechts;5;124;right;no;350;rightarrow;523;true;focus;yes;1071013;Chrome;112.0;Windows;10;undefined;undefined;1536 x 864;1536 x 864
H029;22;Vrouwelijk;Rechts;5;125;left;no;350;leftarrow;562;true;focus;yes;1072347;Chrome;112.0;Windows;10;undefined;undefined;1536 x 864;1536 x 864
H029;22;Vrouwelijk;Rechts;5;126;right;no;350;rightarrow;473;true;focus;yes;1073599;Chrome;112.0;Windows;10;undefined;undefined;1536 x 864;1536 x 864
H029;22;Vrouwelijk;Rechts;5;127;left;no;350;leftarrow;532;true;focus;yes;1074906;Chrome;112.0;Windows;10;undefined;undefined;1536 x 864;1536 x 864
H029;22;Vrouwelijk;Rechts;5;128;right;yes;350;rightarrow;395;false;focus;yes;1076082;Chrome;112.0;Windows;10;undefined;undefined;1536 x 864;1536 x 864
H029;22;Vrouwelijk;Rechts;6;1;left;no;300;leftarrow;398;true;focus;yes;1098358;Chrome;112.0;Windows;10;undefined;undefined;1536 x 864;1536 x 864
H029;22;Vrouwelijk;Rechts;6;2;right;no;300;rightarrow;372;true;focus;yes;1099509;Chrome;112.0;Windows;10;undefined;undefined;1536 x 864;1536 x 864
H029;22;Vrouwelijk;Rechts;6;3;right;no;300;rightarrow;412;true;focus;yes;1100701;Chrome;112.0;Windows;10;undefined;undefined;1536 x 864;1536 x 864
H029;22;Vrouwelijk;Rechts;6;4;right;yes;300;rightarrow;489;false;focus;yes;1101964;Chrome;112.0;Windows;10;undefined;undefined;1536 x 864;1536 x 864
H029;22;Vrouwelijk;Rechts;6;5;right;no;250;rightarrow;446;true;focus;yes;1103182;Chrome;112.0;Windows;10;undefined;undefined;1536 x 864;1536 x 864
H029;22;Vrouwelijk;Rechts;6;6;left;no;250;leftarrow;442;true;focus;yes;1104395;Chrome;112.0;Windows;10;undefined;undefined;1536 x 864;1536 x 864
H029;22;Vrouwelijk;Rechts;6;7;left;no;250;leftarrow;430;true;focus;yes;1105603;Chrome;112.0;Windows;10;undefined;undefined;1536 x 864;1536 x 864
H029;22;Vrouwelijk;Rechts;6;8;left;yes;250;leftarrow;388;false;focus;yes;1106765;Chrome;112.0;Windows;10;undefined;undefined;1536 x 864;1536 x 864
H029;22;Vrouwelijk;Rechts;6;9;right;no;200;rightarrow;445;true;focus;yes;1107990;Chrome;112.0;Windows;10;undefined;undefined;1536 x 864;1536 x 864
H029;22;Vrouwelijk;Rechts;6;10;right;no;200;rightarrow;487;true;focus;yes;1109253;Chrome;112.0;Windows;10;undefined;undefined;1536 x 864;1536 x 864
H029;22;Vrouwelijk;Rechts;6;11;left;no;200;leftarrow;435;true;focus;yes;1110464;Chrome;112.0;Windows;10;undefined;undefined;1536 x 864;1536 x 864
H029;22;Vrouwelijk;Rechts;6;12;left;no;200;leftarrow;420;true;focus;yes;1111654;Chrome;112.0;Windows;10;undefined;undefined;1536 x 864;1536 x 864
H029;22;Vrouwelijk;Rechts;6;13;left;no;200;leftarrow;476;true;focus;yes;1112910;Chrome;112.0;Windows;10;undefined;undefined;1536 x 864;1536 x 864
H029;22;Vrouwelijk;Rechts;6;14;right;yes;200;undefined;null;true;focus;yes;1114941;Chrome;112.0;Windows;10;undefined;undefined;1536 x 864;1536 x 864
H029;22;Vrouwelijk;Rechts;6;15;right;no;250;rightarrow;451;true;focus;yes;1116168;Chrome;112.0;Windows;10;undefined;undefined;1536 x 864;1536 x 864
H029;22;Vrouwelijk;Rechts;6;16;left;yes;250;leftarrow;429;false;focus;yes;1117378;Chrome;112.0;Windows;10;undefined;undefined;1536 x 864;1536 x 864
H029;22;Vrouwelijk;Rechts;6;17;left;no;200;leftarrow;464;true;focus;yes;1118617;Chrome;112.0;Windows;10;undefined;undefined;1536 x 864;1536 x 864
H029;22;Vrouwelijk;Rechts;6;18;right;yes;200;undefined;null;true;focus;yes;1120644;Chrome;112.0;Windows;10;undefined;undefined;1536 x 864;1536 x 864
H029;22;Vrouwelijk;Rechts;6;19;right;no;250;rightarrow;422;true;focus;yes;1121841;Chrome;112.0;Windows;10;undefined;undefined;1536 x 864;1536 x 864
H029;22;Vrouwelijk;Rechts;6;20;left;yes;250;leftarrow;455;false;focus;yes;1123079;Chrome;112.0;Windows;10;undefined;undefined;1536 x 864;1536 x 864
H029;22;Vrouwelijk;Rechts;6;21;right;no;200;rightarrow;425;true;focus;yes;1124283;Chrome;112.0;Windows;10;undefined;undefined;1536 x 864;1536 x 864
H029;22;Vrouwelijk;Rechts;6;22;left;no;200;leftarrow;400;true;focus;yes;1125463;Chrome;112.0;Windows;10;undefined;undefined;1536 x 864;1536 x 864
H029;22;Vrouwelijk;Rechts;6;23;right;no;200;rightarrow;550;true;focus;yes;1126791;Chrome;112.0;Windows;10;undefined;undefined;1536 x 864;1536 x 864
H029;22;Vrouwelijk;Rechts;6;24;left;no;200;leftarrow;455;true;focus;yes;1128022;Chrome;112.0;Windows;10;undefined;undefined;1536 x 864;1536 x 864
H029;22;Vrouwelijk;Rechts;6;25;right;yes;200;undefined;null;true;focus;yes;1130060;Chrome;112.0;Windows;10;undefined;undefined;1536 x 864;1536 x 864
H029;22;Vrouwelijk;Rechts;6;26;left;yes;250;leftarrow;402;false;focus;yes;1131242;Chrome;112.0;Windows;10;undefined;undefined;1536 x 864;1536 x 864
H029;22;Vrouwelijk;Rechts;6;27;right;no;200;rightarrow;483;true;focus;yes;1132494;Chrome;112.0;Windows;10;undefined;undefined;1536 x 864;1536 x 864
