participantID;age;gender;handedness;block_i;trial_i;stim;signal;SSD;response;rt;correct;focus;Fullscreen;time_elapsed;browser_name;browser_version;os_name;os_version;tablet;mobile;screen_resolution;window_resolution
H008;62;Mannelijk;Ambidexter;0;1;right;no;200;rightarrow;381;true;focus;yes;88549;Chrome;112.0;Windows;10;undefined;undefined;1920 x 1080;1920 x 1080
H008;62;Mannelijk;Ambidexter;0;2;right;no;200;rightarrow;479;true;focus;yes;90533;Chrome;112.0;Windows;10;undefined;undefined;1920 x 1080;1920 x 1080
H008;62;Mannelijk;Ambidexter;0;3;left;yes;200;undefined;null;true;focus;yes;93289;Chrome;112.0;Windows;10;undefined;undefined;1920 x 1080;1920 x 1080
H008;62;Mannelijk;Ambidexter;0;4;left;no;250;leftarrow;443;true;focus;yes;95238;Chrome;112.0;Windows;10;undefined;undefined;1920 x 1080;1920 x 1080
H008;62;Mannelijk;Ambidexter;0;5;right;yes;250;rightarrow;421;false;focus;yes;97172;Chrome;112.0;Windows;10;undefined;undefined;1920 x 1080;1920 x 1080
H008;62;Mannelijk;Ambidexter;0;6;left;no;200;leftarrow;448;true;focus;yes;99125;Chrome;112.0;Windows;10;undefined;undefined;1920 x 1080;1920 x 1080
H008;62;Mannelijk;Ambidexter;0;7;left;no;200;leftarrow;494;true;focus;yes;101124;Chrome;112.0;Windows;10;undefined;undefined;1920 x 1080;1920 x 1080
H008;62;Mannelijk;Ambidexter;0;8;right;no;200;rightarrow;350;true;focus;yes;102981;Chrome;112.0;Windows;10;undefined;undefined;1920 x 1080;1920 x 1080
H008;62;Mannelijk;Ambidexter;1;1;left;no;200;leftarrow;459;true;focus;yes;123765;Chrome;112.0;Windows;10;undefined;undefined;1920 x 1080;1920 x 1080
H008;62;Mannelijk;Ambidexter;1;2;right;yes;200;rightarrow;374;false;focus;yes;124893;Chrome;112.0;Windows;10;undefined;undefined;1920 x 1080;1920 x 1080
H008;62;Mannelijk;Ambidexter;1;3;left;no;150;leftarrow;330;true;focus;yes;125980;Chrome;112.0;Windows;10;undefined;undefined;1920 x 1080;1920 x 1080
H008;62;Mannelijk;Ambidexter;1;4;right;no;150;rightarrow;390;true;focus;yes;127125;Chrome;112.0;Windows;10;undefined;undefined;1920 x 1080;1920 x 1080
H008;62;Mannelijk;Ambidexter;1;5;right;no;150;rightarrow;366;true;focus;yes;128253;Chrome;112.0;Windows;10;undefined;undefined;1920 x 1080;1920 x 1080
H008;62;Mannelijk;Ambidexter;1;6;left;no;150;leftarrow;387;true;focus;yes;129405;Chrome;112.0;Windows;10;undefined;undefined;1920 x 1080;1920 x 1080
H008;62;Mannelijk;Ambidexter;1;7;right;no;150;rightarrow;263;true;focus;yes;130421;Chrome;112.0;Windows;10;undefined;undefined;1920 x 1080;1920 x 1080
H008;62;Mannelijk;Ambidexter;1;8;left;yes;150;leftarrow;344;false;focus;yes;131518;Chrome;112.0;Windows;10;undefined;undefined;1920 x 1080;1920 x 1080
H008;62;Mannelijk;Ambidexter;1;9;left;no;100;rightarrow;292;false;focus;yes;132565;Chrome;112.0;Windows;10;undefined;undefined;1920 x 1080;1920 x 1080
H008;62;Mannelijk;Ambidexter;1;10;right;no;100;rightarrow;444;true;focus;yes;133765;Chrome;112.0;Windows;10;undefined;undefined;1920 x 1080;1920 x 1080
H008;62;Mannelijk;Ambidexter;1;11;right;yes;100;undefined;null;true;focus;yes;135770;Chrome;112.0;Windows;10;undefined;undefined;1920 x 1080;1920 x 1080
H008;62;Mannelijk;Ambidexter;1;12;right;no;150;rightarrow;641;true;focus;yes;137165;Chrome;112.0;Windows;10;undefined;undefined;1920 x 1080;1920 x 1080
H008;62;Mannelijk;Ambidexter;1;13;left;yes;150;leftarrow;345;false;focus;yes;138263;Chrome;112.0;Windows;10;undefined;undefined;1920 x 1080;1920 x 1080
H008;62;Mannelijk;Ambidexter;1;14;right;no;100;rightarrow;396;true;focus;yes;139413;Chrome;112.0;Windows;10;undefined;undefined;1920 x 1080;1920 x 1080
H008;62;Mannelijk;Ambidexter;1;15;left;no;100;leftarrow;377;true;focus;yes;140544;Chrome;112.0;Windows;10;undefined;undefined;1920 x 1080;1920 x 1080
H008;62;Mannelijk;Ambidexter;1;16;left;no;100;leftarrow;448;true;focus;yes;141759;Chrome;112.0;Windows;10;undefined;undefined;1920 x 1080;1920 x 1080
H008;62;Mannelijk;Ambidexter;1;17;left;no;100;leftarrow;377;true;focus;yes;142901;Chrome;112.0;Windows;10;undefined;undefined;1920 x 1080;1920 x 1080
H008;62;Mannelijk;Ambidexter;1;18;left;yes;100;undefined;null;true;focus;yes;144905;Chrome;112.0;Windows;10;undefined;undefined;1920 x 1080;1920 x 1080
H008;62;Mannelijk;Ambidexter;1;19;left;no;150;leftarrow;346;true;focus;yes;146006;Chrome;112.0;Windows;10;undefined;undefined;1920 x 1080;1920 x 1080
H008;62;Mannelijk;Ambidexter;1;20;right;yes;150;rightarrow;845;false;focus;yes;147605;Chrome;112.0;Windows;10;undefined;undefined;1920 x 1080;1920 x 1080
H008;62;Mannelijk;Ambidexter;1;21;left;no;100;leftarrow;526;true;focus;yes;148885;Chrome;112.0;Windows;10;undefined;undefined;1920 x 1080;1920 x 1080
H008;62;Mannelijk;Ambidexter;1;22;right;no;100;rightarrow;352;true;focus;yes;149990;Chrome;112.0;Windows;10;undefined;undefined;1920 x 1080;1920 x 1080
H008;62;Mannelijk;Ambidexter;1;23;right;no;100;rightarrow;373;true;focus;yes;151118;Chrome;112.0;Windows;10;undefined;undefined;1920 x 1080;1920 x 1080
H008;62;Mannelijk;Ambidexter;1;24;right;no;100;rightarrow;324;true;focus;yes;152205;Chrome;112.0;Windows;10;undefined;undefined;1920 x 1080;1920 x 1080
H008;62;Mannelijk;Ambidexter;1;25;right;yes;100;rightarrow;327;false;focus;yes;153285;Chrome;112.0;Windows;10;undefined;undefined;1920 x 1080;1920 x 1080
H008;62;Mannelijk;Ambidexter;1;26;left;yes;50;undefined;null;true;focus;yes;155290;Chrome;112.0;Windows;10;undefined;undefined;1920 x 1080;1920 x 1080
H008;62;Mannelijk;Ambidexter;1;27;left;no;100;leftarrow;346;true;focus;yes;156389;Chrome;112.0;Windows;10;undefined;undefined;1920 x 1080;1920 x 1080
H008;62;Mannelijk;Ambidexter;1;28;left;no;100;leftarrow;358;true;focus;yes;157502;Chrome;112.0;Windows;10;undefined;undefined;1920 x 1080;1920 x 1080
H008;62;Mannelijk;Ambidexter;1;29;right;no;100;rightarrow;823;true;focus;yes;159079;Chrome;112.0;Windows;10;undefined;undefined;1920 x 1080;1920 x 1080
H008;62;Mannelijk;Ambidexter;1;30;right;no;100;rightarrow;365;true;focus;yes;160197;Chrome;112.0;Windows;10;undefined;undefined;1920 x 1080;1920 x 1080
H008;62;Mannelijk;Ambidexter;1;31;left;no;100;leftarrow;448;true;focus;yes;161399;Chrome;112.0;Windows;10;undefined;undefined;1920 x 1080;1920 x 1080
H008;62;Mannelijk;Ambidexter;1;32;right;no;100;rightarrow;444;true;focus;yes;162598;Chrome;112.0;Windows;10;undefined;undefined;1920 x 1080;1920 x 1080
H008;62;Mannelijk;Ambidexter;1;33;left;no;100;leftarrow;438;true;focus;yes;163789;Chrome;112.0;Windows;10;undefined;undefined;1920 x 1080;1920 x 1080
H008;62;Mannelijk;Ambidexter;1;34;right;no;100;rightarrow;404;true;focus;yes;164949;Chrome;112.0;Windows;10;undefined;undefined;1920 x 1080;1920 x 1080
H008;62;Mannelijk;Ambidexter;1;35;left;no;100;leftarrow;333;true;focus;yes;166037;Chrome;112.0;Windows;10;undefined;undefined;1920 x 1080;1920 x 1080
H008;62;Mannelijk;Ambidexter;1;36;left;no;100;leftarrow;429;true;focus;yes;167221;Chrome;112.0;Windows;10;undefined;undefined;1920 x 1080;1920 x 1080
H008;62;Mannelijk;Ambidexter;1;37;left;yes;100;undefined;null;true;focus;yes;169225;Chrome;112.0;Windows;10;undefined;undefined;1920 x 1080;1920 x 1080
H008;62;Mannelijk;Ambidexter;1;38;right;yes;150;rightarrow;394;false;focus;yes;170373;Chrome;112.0;Windows;10;undefined;undefined;1920 x 1080;1920 x 1080
H008;62;Mannelijk;Ambidexter;1;39;right;no;100;rightarrow;500;true;focus;yes;171629;Chrome;112.0;Windows;10;undefined;undefined;1920 x 1080;1920 x 1080
H008;62;Mannelijk;Ambidexter;1;40;right;no;100;rightarrow;312;true;focus;yes;172702;Chrome;112.0;Windows;10;undefined;undefined;1920 x 1080;1920 x 1080
H008;62;Mannelijk;Ambidexter;1;41;right;yes;100;rightarrow;326;false;focus;yes;173781;Chrome;112.0;Windows;10;undefined;undefined;1920 x 1080;1920 x 1080
H008;62;Mannelijk;Ambidexter;1;42;left;no;50;leftarrow;767;true;focus;yes;175302;Chrome;112.0;Windows;10;undefined;undefined;1920 x 1080;1920 x 1080
H008;62;Mannelijk;Ambidexter;1;43;left;no;50;leftarrow;365;true;focus;yes;176421;Chrome;112.0;Windows;10;undefined;undefined;1920 x 1080;1920 x 1080
H008;62;Mannelijk;Ambidexter;1;44;right;no;50;rightarrow;671;true;focus;yes;177845;Chrome;112.0;Windows;10;undefined;undefined;1920 x 1080;1920 x 1080
H008;62;Mannelijk;Ambidexter;1;45;left;yes;50;undefined;null;true;focus;yes;179850;Chrome;112.0;Windows;10;undefined;undefined;1920 x 1080;1920 x 1080
H008;62;Mannelijk;Ambidexter;1;46;right;no;100;rightarrow;347;true;focus;yes;180951;Chrome;112.0;Windows;10;undefined;undefined;1920 x 1080;1920 x 1080
H008;62;Mannelijk;Ambidexter;1;47;left;no;100;leftarrow;461;true;focus;yes;182165;Chrome;112.0;Windows;10;undefined;undefined;1920 x 1080;1920 x 1080
H008;62;Mannelijk;Ambidexter;1;48;right;no;100;rightarrow;607;true;focus;yes;183525;Chrome;112.0;Windows;10;undefined;undefined;1920 x 1080;1920 x 1080
H008;62;Mannelijk;Ambidexter;1;49;right;no;100;rightarrow;401;true;focus;yes;184678;Chrome;112.0;Windows;10;undefined;undefined;1920 x 1080;1920 x 1080
H008;62;Mannelijk;Ambidexter;1;50;left;no;100;leftarrow;519;true;focus;yes;185957;Chrome;112.0;Windows;10;undefined;undefined;1920 x 1080;1920 x 1080
H008;62;Mannelijk;Ambidexter;1;51;left;yes;100;undefined;null;true;focus;yes;187963;Chrome;112.0;Windows;10;undefined;undefined;1920 x 1080;1920 x 1080
H008;62;Mannelijk;Ambidexter;1;52;right;no;150;rightarrow;377;true;focus;yes;189095;Chrome;112.0;Windows;10;undefined;undefined;1920 x 1080;1920 x 1080
H008;62;Mannelijk;Ambidexter;1;53;left;no;150;leftarrow;470;true;focus;yes;190318;Chrome;112.0;Windows;10;undefined;undefined;1920 x 1080;1920 x 1080
H008;62;Mannelijk;Ambidexter;1;54;right;yes;150;rightarrow;374;false;focus;yes;191445;Chrome;112.0;Windows;10;undefined;undefined;1920 x 1080;1920 x 1080
H008;62;Mannelijk;Ambidexter;1;55;left;no;100;leftarrow;486;true;focus;yes;192685;Chrome;112.0;Windows;10;undefined;undefined;1920 x 1080;1920 x 1080
H008;62;Mannelijk;Ambidexter;1;56;right;no;100;rightarrow;543;true;focus;yes;193981;Chrome;112.0;Windows;10;undefined;undefined;1920 x 1080;1920 x 1080
H008;62;Mannelijk;Ambidexter;1;57;right;no;100;rightarrow;566;true;focus;yes;195301;Chrome;112.0;Windows;10;undefined;undefined;1920 x 1080;1920 x 1080
H008;62;Mannelijk;Ambidexter;1;58;left;no;100;leftarrow;555;true;focus;yes;196609;Chrome;112.0;Windows;10;undefined;undefined;1920 x 1080;1920 x 1080
H008;62;Mannelijk;Ambidexter;1;59;right;no;100;rightarrow;546;true;focus;yes;197909;Chrome;112.0;Windows;10;undefined;undefined;1920 x 1080;1920 x 1080
H008;62;Mannelijk;Ambidexter;1;60;left;yes;100;undefined;null;true;focus;yes;199922;Chrome;112.0;Windows;10;undefined;undefined;1920 x 1080;1920 x 1080
H008;62;Mannelijk;Ambidexter;1;61;left;no;150;leftarrow;369;true;focus;yes;201046;Chrome;112.0;Windows;10;undefined;undefined;1920 x 1080;1920 x 1080
H008;62;Mannelijk;Ambidexter;1;62;right;yes;150;rightarrow;365;false;focus;yes;202165;Chrome;112.0;Windows;10;undefined;undefined;1920 x 1080;1920 x 1080
H008;62;Mannelijk;Ambidexter;1;63;right;no;100;rightarrow;541;true;focus;yes;203462;Chrome;112.0;Windows;10;undefined;undefined;1920 x 1080;1920 x 1080
H008;62;Mannelijk;Ambidexter;1;64;left;no;100;leftarrow;398;true;focus;yes;204616;Chrome;112.0;Windows;10;undefined;undefined;1920 x 1080;1920 x 1080
H008;62;Mannelijk;Ambidexter;1;65;right;no;100;rightarrow;524;true;focus;yes;205895;Chrome;112.0;Windows;10;undefined;undefined;1920 x 1080;1920 x 1080
H008;62;Mannelijk;Ambidexter;1;66;right;yes;100;undefined;null;true;focus;yes;207900;Chrome;112.0;Windows;10;undefined;undefined;1920 x 1080;1920 x 1080
H008;62;Mannelijk;Ambidexter;1;67;left;no;150;leftarrow;425;true;focus;yes;209077;Chrome;112.0;Windows;10;undefined;undefined;1920 x 1080;1920 x 1080
H008;62;Mannelijk;Ambidexter;1;68;right;no;150;rightarrow;399;true;focus;yes;210229;Chrome;112.0;Windows;10;undefined;undefined;1920 x 1080;1920 x 1080
H008;62;Mannelijk;Ambidexter;1;69;left;no;150;leftarrow;407;true;focus;yes;211389;Chrome;112.0;Windows;10;undefined;undefined;1920 x 1080;1920 x 1080
H008;62;Mannelijk;Ambidexter;1;70;left;no;150;leftarrow;375;true;focus;yes;212518;Chrome;112.0;Windows;10;undefined;undefined;1920 x 1080;1920 x 1080
H008;62;Mannelijk;Ambidexter;1;71;left;yes;150;undefined;null;true;focus;yes;214522;Chrome;112.0;Windows;10;undefined;undefined;1920 x 1080;1920 x 1080
H008;62;Mannelijk;Ambidexter;1;72;right;no;200;rightarrow;384;true;focus;yes;215662;Chrome;112.0;Windows;10;undefined;undefined;1920 x 1080;1920 x 1080
H008;62;Mannelijk;Ambidexter;1;73;left;yes;200;rightarrow;407;false;focus;yes;216821;Chrome;112.0;Windows;10;undefined;undefined;1920 x 1080;1920 x 1080
H008;62;Mannelijk;Ambidexter;1;74;right;no;150;leftarrow;453;false;focus;yes;218029;Chrome;112.0;Windows;10;undefined;undefined;1920 x 1080;1920 x 1080
H008;62;Mannelijk;Ambidexter;1;75;right;no;150;rightarrow;395;true;focus;yes;219190;Chrome;112.0;Windows;10;undefined;undefined;1920 x 1080;1920 x 1080
H008;62;Mannelijk;Ambidexter;1;76;left;no;150;leftarrow;502;true;focus;yes;220445;Chrome;112.0;Windows;10;undefined;undefined;1920 x 1080;1920 x 1080
H008;62;Mannelijk;Ambidexter;1;77;left;no;150;leftarrow;637;true;focus;yes;221837;Chrome;112.0;Windows;10;undefined;undefined;1920 x 1080;1920 x 1080
H008;62;Mannelijk;Ambidexter;1;78;left;no;150;leftarrow;327;true;focus;yes;222918;Chrome;112.0;Windows;10;undefined;undefined;1920 x 1080;1920 x 1080
H008;62;Mannelijk;Ambidexter;1;79;right;yes;150;undefined;null;true;focus;yes;224923;Chrome;112.0;Windows;10;undefined;undefined;1920 x 1080;1920 x 1080
H008;62;Mannelijk;Ambidexter;1;80;right;no;200;rightarrow;346;true;focus;yes;226023;Chrome;112.0;Windows;10;undefined;undefined;1920 x 1080;1920 x 1080
H008;62;Mannelijk;Ambidexter;1;81;right;yes;200;rightarrow;348;false;focus;yes;227125;Chrome;112.0;Windows;10;undefined;undefined;1920 x 1080;1920 x 1080
H008;62;Mannelijk;Ambidexter;1;82;left;no;150;leftarrow;478;true;focus;yes;228357;Chrome;112.0;Windows;10;undefined;undefined;1920 x 1080;1920 x 1080
H008;62;Mannelijk;Ambidexter;1;83;right;no;150;rightarrow;607;true;focus;yes;229718;Chrome;112.0;Windows;10;undefined;undefined;1920 x 1080;1920 x 1080
H008;62;Mannelijk;Ambidexter;1;84;left;no;150;leftarrow;537;true;focus;yes;231023;Chrome;112.0;Windows;10;undefined;undefined;1920 x 1080;1920 x 1080
H008;62;Mannelijk;Ambidexter;1;85;right;no;150;rightarrow;620;true;focus;yes;232398;Chrome;112.0;Windows;10;undefined;undefined;1920 x 1080;1920 x 1080
H008;62;Mannelijk;Ambidexter;1;86;left;yes;150;leftarrow;379;false;focus;yes;233535;Chrome;112.0;Windows;10;undefined;undefined;1920 x 1080;1920 x 1080
H008;62;Mannelijk;Ambidexter;1;87;left;no;100;leftarrow;638;true;focus;yes;234925;Chrome;112.0;Windows;10;undefined;undefined;1920 x 1080;1920 x 1080
H008;62;Mannelijk;Ambidexter;1;88;right;no;100;rightarrow;455;true;focus;yes;236133;Chrome;112.0;Windows;10;undefined;undefined;1920 x 1080;1920 x 1080
H008;62;Mannelijk;Ambidexter;1;89;left;yes;100;undefined;null;true;focus;yes;238136;Chrome;112.0;Windows;10;undefined;undefined;1920 x 1080;1920 x 1080
H008;62;Mannelijk;Ambidexter;1;90;left;no;150;leftarrow;379;true;focus;yes;239269;Chrome;112.0;Windows;10;undefined;undefined;1920 x 1080;1920 x 1080
H008;62;Mannelijk;Ambidexter;1;91;left;no;150;leftarrow;653;true;focus;yes;240687;Chrome;112.0;Windows;10;undefined;undefined;1920 x 1080;1920 x 1080
H008;62;Mannelijk;Ambidexter;1;92;right;no;150;rightarrow;587;true;focus;yes;242029;Chrome;112.0;Windows;10;undefined;undefined;1920 x 1080;1920 x 1080
H008;62;Mannelijk;Ambidexter;1;93;right;no;150;rightarrow;399;true;focus;yes;243182;Chrome;112.0;Windows;10;undefined;undefined;1920 x 1080;1920 x 1080
H008;62;Mannelijk;Ambidexter;1;94;right;yes;150;rightarrow;389;false;focus;yes;244325;Chrome;112.0;Windows;10;undefined;undefined;1920 x 1080;1920 x 1080
H008;62;Mannelijk;Ambidexter;1;95;right;no;100;rightarrow;656;true;focus;yes;245734;Chrome;112.0;Windows;10;undefined;undefined;1920 x 1080;1920 x 1080
H008;62;Mannelijk;Ambidexter;1;96;left;no;100;leftarrow;494;true;focus;yes;246983;Chrome;112.0;Windows;10;undefined;undefined;1920 x 1080;1920 x 1080
H008;62;Mannelijk;Ambidexter;1;97;left;no;100;leftarrow;380;true;focus;yes;248118;Chrome;112.0;Windows;10;undefined;undefined;1920 x 1080;1920 x 1080
H008;62;Mannelijk;Ambidexter;1;98;right;yes;100;undefined;null;true;focus;yes;250147;Chrome;112.0;Windows;10;undefined;undefined;1920 x 1080;1920 x 1080
H008;62;Mannelijk;Ambidexter;1;99;left;no;150;leftarrow;459;true;focus;yes;251359;Chrome;112.0;Windows;10;undefined;undefined;1920 x 1080;1920 x 1080
H008;62;Mannelijk;Ambidexter;1;100;left;yes;150;undefined;null;true;focus;yes;253365;Chrome;112.0;Windows;10;undefined;undefined;1920 x 1080;1920 x 1080
H008;62;Mannelijk;Ambidexter;1;101;left;no;200;leftarrow;400;true;focus;yes;254518;Chrome;112.0;Windows;10;undefined;undefined;1920 x 1080;1920 x 1080
H008;62;Mannelijk;Ambidexter;1;102;right;no;200;rightarrow;573;true;focus;yes;255846;Chrome;112.0;Windows;10;undefined;undefined;1920 x 1080;1920 x 1080
H008;62;Mannelijk;Ambidexter;1;103;right;no;200;rightarrow;390;true;focus;yes;256989;Chrome;112.0;Windows;10;undefined;undefined;1920 x 1080;1920 x 1080
H008;62;Mannelijk;Ambidexter;1;104;right;no;200;rightarrow;407;true;focus;yes;258149;Chrome;112.0;Windows;10;undefined;undefined;1920 x 1080;1920 x 1080
H008;62;Mannelijk;Ambidexter;1;105;right;no;200;rightarrow;576;true;focus;yes;259480;Chrome;112.0;Windows;10;undefined;undefined;1920 x 1080;1920 x 1080
H008;62;Mannelijk;Ambidexter;1;106;left;no;200;leftarrow;442;true;focus;yes;260686;Chrome;112.0;Windows;10;undefined;undefined;1920 x 1080;1920 x 1080
H008;62;Mannelijk;Ambidexter;1;107;left;yes;200;leftarrow;398;false;focus;yes;261838;Chrome;112.0;Windows;10;undefined;undefined;1920 x 1080;1920 x 1080
H008;62;Mannelijk;Ambidexter;1;108;left;no;150;leftarrow;473;true;focus;yes;263071;Chrome;112.0;Windows;10;undefined;undefined;1920 x 1080;1920 x 1080
H008;62;Mannelijk;Ambidexter;1;109;right;no;150;rightarrow;615;true;focus;yes;264438;Chrome;112.0;Windows;10;undefined;undefined;1920 x 1080;1920 x 1080
H008;62;Mannelijk;Ambidexter;1;110;right;yes;150;undefined;null;true;focus;yes;266448;Chrome;112.0;Windows;10;undefined;undefined;1920 x 1080;1920 x 1080
H008;62;Mannelijk;Ambidexter;1;111;right;no;200;rightarrow;349;true;focus;yes;267550;Chrome;112.0;Windows;10;undefined;undefined;1920 x 1080;1920 x 1080
H008;62;Mannelijk;Ambidexter;1;112;left;no;200;leftarrow;471;true;focus;yes;268775;Chrome;112.0;Windows;10;undefined;undefined;1920 x 1080;1920 x 1080
H008;62;Mannelijk;Ambidexter;1;113;left;yes;200;undefined;null;true;focus;yes;270780;Chrome;112.0;Windows;10;undefined;undefined;1920 x 1080;1920 x 1080
H008;62;Mannelijk;Ambidexter;1;114;left;no;250;leftarrow;545;true;focus;yes;272085;Chrome;112.0;Windows;10;undefined;undefined;1920 x 1080;1920 x 1080
H008;62;Mannelijk;Ambidexter;1;115;right;no;250;rightarrow;469;true;focus;yes;273310;Chrome;112.0;Windows;10;undefined;undefined;1920 x 1080;1920 x 1080
H008;62;Mannelijk;Ambidexter;1;116;right;no;250;rightarrow;575;true;focus;yes;274638;Chrome;112.0;Windows;10;undefined;undefined;1920 x 1080;1920 x 1080
H008;62;Mannelijk;Ambidexter;1;117;right;yes;250;rightarrow;397;false;focus;yes;275789;Chrome;112.0;Windows;10;undefined;undefined;1920 x 1080;1920 x 1080
H008;62;Mannelijk;Ambidexter;1;118;right;no;200;rightarrow;483;true;focus;yes;277024;Chrome;112.0;Windows;10;undefined;undefined;1920 x 1080;1920 x 1080
H008;62;Mannelijk;Ambidexter;1;119;left;no;200;leftarrow;427;true;focus;yes;278205;Chrome;112.0;Windows;10;undefined;undefined;1920 x 1080;1920 x 1080
H008;62;Mannelijk;Ambidexter;1;120;left;no;200;leftarrow;406;true;focus;yes;279366;Chrome;112.0;Windows;10;undefined;undefined;1920 x 1080;1920 x 1080
H008;62;Mannelijk;Ambidexter;1;121;right;no;200;rightarrow;782;true;focus;yes;280901;Chrome;112.0;Windows;10;undefined;undefined;1920 x 1080;1920 x 1080
H008;62;Mannelijk;Ambidexter;1;122;left;no;200;leftarrow;641;true;focus;yes;282296;Chrome;112.0;Windows;10;undefined;undefined;1920 x 1080;1920 x 1080
H008;62;Mannelijk;Ambidexter;1;123;left;no;200;leftarrow;412;true;focus;yes;283461;Chrome;112.0;Windows;10;undefined;undefined;1920 x 1080;1920 x 1080
H008;62;Mannelijk;Ambidexter;1;124;left;yes;200;leftarrow;352;false;focus;yes;284566;Chrome;112.0;Windows;10;undefined;undefined;1920 x 1080;1920 x 1080
H008;62;Mannelijk;Ambidexter;1;125;right;no;150;rightarrow;405;true;focus;yes;285725;Chrome;112.0;Windows;10;undefined;undefined;1920 x 1080;1920 x 1080
H008;62;Mannelijk;Ambidexter;1;126;right;yes;150;undefined;null;true;focus;yes;287729;Chrome;112.0;Windows;10;undefined;undefined;1920 x 1080;1920 x 1080
H008;62;Mannelijk;Ambidexter;1;127;right;no;200;rightarrow;361;true;focus;yes;288845;Chrome;112.0;Windows;10;undefined;undefined;1920 x 1080;1920 x 1080
H008;62;Mannelijk;Ambidexter;1;128;left;no;200;leftarrow;431;true;focus;yes;290030;Chrome;112.0;Windows;10;undefined;undefined;1920 x 1080;1920 x 1080
H008;62;Mannelijk;Ambidexter;2;1;left;no;200;leftarrow;428;true;focus;yes;310000;Chrome;112.0;Windows;10;undefined;undefined;1920 x 1080;1920 x 1080
H008;62;Mannelijk;Ambidexter;2;2;right;no;200;rightarrow;405;true;focus;yes;311159;Chrome;112.0;Windows;10;undefined;undefined;1920 x 1080;1920 x 1080
H008;62;Mannelijk;Ambidexter;2;3;left;yes;200;leftarrow;367;false;focus;yes;312278;Chrome;112.0;Windows;10;undefined;undefined;1920 x 1080;1920 x 1080
H008;62;Mannelijk;Ambidexter;2;4;right;no;150;rightarrow;406;true;focus;yes;313462;Chrome;112.0;Windows;10;undefined;undefined;1920 x 1080;1920 x 1080
H008;62;Mannelijk;Ambidexter;2;5;left;no;150;leftarrow;561;true;focus;yes;314775;Chrome;112.0;Windows;10;undefined;undefined;1920 x 1080;1920 x 1080
H008;62;Mannelijk;Ambidexter;2;6;right;no;150;rightarrow;596;true;focus;yes;316126;Chrome;112.0;Windows;10;undefined;undefined;1920 x 1080;1920 x 1080
H008;62;Mannelijk;Ambidexter;2;7;left;no;150;leftarrow;651;true;focus;yes;317544;Chrome;112.0;Windows;10;undefined;undefined;1920 x 1080;1920 x 1080
H008;62;Mannelijk;Ambidexter;2;8;right;yes;150;rightarrow;419;false;focus;yes;318716;Chrome;112.0;Windows;10;undefined;undefined;1920 x 1080;1920 x 1080
H008;62;Mannelijk;Ambidexter;2;9;right;no;100;rightarrow;737;true;focus;yes;320221;Chrome;112.0;Windows;10;undefined;undefined;1920 x 1080;1920 x 1080
H008;62;Mannelijk;Ambidexter;2;10;right;yes;100;undefined;null;true;focus;yes;322225;Chrome;112.0;Windows;10;undefined;undefined;1920 x 1080;1920 x 1080
H008;62;Mannelijk;Ambidexter;2;11;left;yes;150;undefined;null;true;focus;yes;324240;Chrome;112.0;Windows;10;undefined;undefined;1920 x 1080;1920 x 1080
H008;62;Mannelijk;Ambidexter;2;12;left;no;200;leftarrow;418;true;focus;yes;325413;Chrome;112.0;Windows;10;undefined;undefined;1920 x 1080;1920 x 1080
H008;62;Mannelijk;Ambidexter;2;13;left;no;200;leftarrow;398;true;focus;yes;326565;Chrome;112.0;Windows;10;undefined;undefined;1920 x 1080;1920 x 1080
H008;62;Mannelijk;Ambidexter;2;14;left;no;200;leftarrow;398;true;focus;yes;327725;Chrome;112.0;Windows;10;undefined;undefined;1920 x 1080;1920 x 1080
H008;62;Mannelijk;Ambidexter;2;15;right;no;200;rightarrow;694;true;focus;yes;329173;Chrome;112.0;Windows;10;undefined;undefined;1920 x 1080;1920 x 1080
H008;62;Mannelijk;Ambidexter;2;16;right;no;200;rightarrow;641;true;focus;yes;330580;Chrome;112.0;Windows;10;undefined;undefined;1920 x 1080;1920 x 1080
H008;62;Mannelijk;Ambidexter;2;17;right;no;200;rightarrow;542;true;focus;yes;331877;Chrome;112.0;Windows;10;undefined;undefined;1920 x 1080;1920 x 1080
H008;62;Mannelijk;Ambidexter;2;18;left;yes;200;undefined;null;true;focus;yes;333887;Chrome;112.0;Windows;10;undefined;undefined;1920 x 1080;1920 x 1080
H008;62;Mannelijk;Ambidexter;2;19;left;no;250;leftarrow;372;true;focus;yes;335014;Chrome;112.0;Windows;10;undefined;undefined;1920 x 1080;1920 x 1080
H008;62;Mannelijk;Ambidexter;2;20;right;no;250;rightarrow;580;true;focus;yes;336349;Chrome;112.0;Windows;10;undefined;undefined;1920 x 1080;1920 x 1080
H008;62;Mannelijk;Ambidexter;2;21;right;no;250;rightarrow;393;true;focus;yes;337495;Chrome;112.0;Windows;10;undefined;undefined;1920 x 1080;1920 x 1080
H008;62;Mannelijk;Ambidexter;2;22;left;no;250;leftarrow;636;true;focus;yes;338885;Chrome;112.0;Windows;10;undefined;undefined;1920 x 1080;1920 x 1080
H008;62;Mannelijk;Ambidexter;2;23;right;yes;250;undefined;null;true;focus;yes;340891;Chrome;112.0;Windows;10;undefined;undefined;1920 x 1080;1920 x 1080
H008;62;Mannelijk;Ambidexter;2;24;left;no;300;leftarrow;434;true;focus;yes;342079;Chrome;112.0;Windows;10;undefined;undefined;1920 x 1080;1920 x 1080
H008;62;Mannelijk;Ambidexter;2;25;right;no;300;rightarrow;429;true;focus;yes;343262;Chrome;112.0;Windows;10;undefined;undefined;1920 x 1080;1920 x 1080
H008;62;Mannelijk;Ambidexter;2;26;left;no;300;leftarrow;484;true;focus;yes;344500;Chrome;112.0;Windows;10;undefined;undefined;1920 x 1080;1920 x 1080
H008;62;Mannelijk;Ambidexter;2;27;left;no;300;leftarrow;382;true;focus;yes;345637;Chrome;112.0;Windows;10;undefined;undefined;1920 x 1080;1920 x 1080
H008;62;Mannelijk;Ambidexter;2;28;right;no;300;rightarrow;446;true;focus;yes;346853;Chrome;112.0;Windows;10;undefined;undefined;1920 x 1080;1920 x 1080
H008;62;Mannelijk;Ambidexter;2;29;left;no;300;rightarrow;374;false;focus;yes;347981;Chrome;112.0;Windows;10;undefined;undefined;1920 x 1080;1920 x 1080
H008;62;Mannelijk;Ambidexter;2;30;right;yes;300;rightarrow;518;false;focus;yes;349254;Chrome;112.0;Windows;10;undefined;undefined;1920 x 1080;1920 x 1080
H008;62;Mannelijk;Ambidexter;2;31;left;yes;250;undefined;null;true;focus;yes;351260;Chrome;112.0;Windows;10;undefined;undefined;1920 x 1080;1920 x 1080
H008;62;Mannelijk;Ambidexter;2;32;right;no;300;rightarrow;510;true;focus;yes;352525;Chrome;112.0;Windows;10;undefined;undefined;1920 x 1080;1920 x 1080
H008;62;Mannelijk;Ambidexter;2;33;left;yes;300;leftarrow;495;false;focus;yes;353772;Chrome;112.0;Windows;10;undefined;undefined;1920 x 1080;1920 x 1080
H008;62;Mannelijk;Ambidexter;2;34;left;no;250;leftarrow;719;true;focus;yes;355245;Chrome;112.0;Windows;10;undefined;undefined;1920 x 1080;1920 x 1080
H008;62;Mannelijk;Ambidexter;2;35;left;no;250;leftarrow;807;true;focus;yes;356805;Chrome;112.0;Windows;10;undefined;undefined;1920 x 1080;1920 x 1080
H008;62;Mannelijk;Ambidexter;2;36;right;no;250;rightarrow;605;true;focus;yes;358165;Chrome;112.0;Windows;10;undefined;undefined;1920 x 1080;1920 x 1080
H008;62;Mannelijk;Ambidexter;2;37;right;yes;250;undefined;null;true;focus;yes;360181;Chrome;112.0;Windows;10;undefined;undefined;1920 x 1080;1920 x 1080
H008;62;Mannelijk;Ambidexter;2;38;right;no;300;rightarrow;431;true;focus;yes;361365;Chrome;112.0;Windows;10;undefined;undefined;1920 x 1080;1920 x 1080
H008;62;Mannelijk;Ambidexter;2;39;left;no;300;leftarrow;376;true;focus;yes;362494;Chrome;112.0;Windows;10;undefined;undefined;1920 x 1080;1920 x 1080
H008;62;Mannelijk;Ambidexter;2;40;right;no;300;rightarrow;652;true;focus;yes;363901;Chrome;112.0;Windows;10;undefined;undefined;1920 x 1080;1920 x 1080
H008;62;Mannelijk;Ambidexter;2;41;left;no;300;leftarrow;390;true;focus;yes;365045;Chrome;112.0;Windows;10;undefined;undefined;1920 x 1080;1920 x 1080
H008;62;Mannelijk;Ambidexter;2;42;left;no;300;leftarrow;447;true;focus;yes;366245;Chrome;112.0;Windows;10;undefined;undefined;1920 x 1080;1920 x 1080
H008;62;Mannelijk;Ambidexter;2;43;right;yes;300;undefined;null;true;focus;yes;368249;Chrome;112.0;Windows;10;undefined;undefined;1920 x 1080;1920 x 1080
H008;62;Mannelijk;Ambidexter;2;44;left;yes;350;leftarrow;403;false;focus;yes;369407;Chrome;112.0;Windows;10;undefined;undefined;1920 x 1080;1920 x 1080
H008;62;Mannelijk;Ambidexter;2;45;right;no;300;rightarrow;445;true;focus;yes;370621;Chrome;112.0;Windows;10;undefined;undefined;1920 x 1080;1920 x 1080
H008;62;Mannelijk;Ambidexter;2;46;left;no;300;leftarrow;678;true;focus;yes;372053;Chrome;112.0;Windows;10;undefined;undefined;1920 x 1080;1920 x 1080
H008;62;Mannelijk;Ambidexter;2;47;right;no;300;rightarrow;634;true;focus;yes;373439;Chrome;112.0;Windows;10;undefined;undefined;1920 x 1080;1920 x 1080
H008;62;Mannelijk;Ambidexter;2;48;right;no;300;rightarrow;692;true;focus;yes;374885;Chrome;112.0;Windows;10;undefined;undefined;1920 x 1080;1920 x 1080
H008;62;Mannelijk;Ambidexter;2;49;left;no;300;leftarrow;429;true;focus;yes;376069;Chrome;112.0;Windows;10;undefined;undefined;1920 x 1080;1920 x 1080
H008;62;Mannelijk;Ambidexter;2;50;right;no;300;rightarrow;632;true;focus;yes;377456;Chrome;112.0;Windows;10;undefined;undefined;1920 x 1080;1920 x 1080
H008;62;Mannelijk;Ambidexter;2;51;right;no;300;rightarrow;515;true;focus;yes;378725;Chrome;112.0;Windows;10;undefined;undefined;1920 x 1080;1920 x 1080
H008;62;Mannelijk;Ambidexter;2;52;left;yes;300;undefined;null;true;focus;yes;380728;Chrome;112.0;Windows;10;undefined;undefined;1920 x 1080;1920 x 1080
H008;62;Mannelijk;Ambidexter;2;53;left;no;350;leftarrow;476;true;focus;yes;381959;Chrome;112.0;Windows;10;undefined;undefined;1920 x 1080;1920 x 1080
H008;62;Mannelijk;Ambidexter;2;54;right;yes;350;rightarrow;517;false;focus;yes;383229;Chrome;112.0;Windows;10;undefined;undefined;1920 x 1080;1920 x 1080
H008;62;Mannelijk;Ambidexter;2;55;left;no;300;leftarrow;774;true;focus;yes;384757;Chrome;112.0;Windows;10;undefined;undefined;1920 x 1080;1920 x 1080
H008;62;Mannelijk;Ambidexter;2;56;right;no;300;rightarrow;663;true;focus;yes;386189;Chrome;112.0;Windows;10;undefined;undefined;1920 x 1080;1920 x 1080
H008;62;Mannelijk;Ambidexter;2;57;right;yes;300;rightarrow;433;false;focus;yes;387389;Chrome;112.0;Windows;10;undefined;undefined;1920 x 1080;1920 x 1080
H008;62;Mannelijk;Ambidexter;2;58;left;no;250;leftarrow;670;true;focus;yes;388815;Chrome;112.0;Windows;10;undefined;undefined;1920 x 1080;1920 x 1080
H008;62;Mannelijk;Ambidexter;2;59;left;no;250;leftarrow;693;true;focus;yes;390261;Chrome;112.0;Windows;10;undefined;undefined;1920 x 1080;1920 x 1080
H008;62;Mannelijk;Ambidexter;2;60;right;no;250;rightarrow;670;true;focus;yes;391685;Chrome;112.0;Windows;10;undefined;undefined;1920 x 1080;1920 x 1080
H008;62;Mannelijk;Ambidexter;2;61;left;no;250;leftarrow;495;true;focus;yes;392934;Chrome;112.0;Windows;10;undefined;undefined;1920 x 1080;1920 x 1080
H008;62;Mannelijk;Ambidexter;2;62;right;no;250;rightarrow;653;true;focus;yes;394342;Chrome;112.0;Windows;10;undefined;undefined;1920 x 1080;1920 x 1080
H008;62;Mannelijk;Ambidexter;2;63;left;yes;250;undefined;null;true;focus;yes;396348;Chrome;112.0;Windows;10;undefined;undefined;1920 x 1080;1920 x 1080
H008;62;Mannelijk;Ambidexter;2;64;right;no;300;rightarrow;393;true;focus;yes;397495;Chrome;112.0;Windows;10;undefined;undefined;1920 x 1080;1920 x 1080
H008;62;Mannelijk;Ambidexter;2;65;left;no;300;leftarrow;451;true;focus;yes;398701;Chrome;112.0;Windows;10;undefined;undefined;1920 x 1080;1920 x 1080
H008;62;Mannelijk;Ambidexter;2;66;right;no;300;rightarrow;487;true;focus;yes;399942;Chrome;112.0;Windows;10;undefined;undefined;1920 x 1080;1920 x 1080
H008;62;Mannelijk;Ambidexter;2;67;right;no;300;rightarrow;671;true;focus;yes;401366;Chrome;112.0;Windows;10;undefined;undefined;1920 x 1080;1920 x 1080
H008;62;Mannelijk;Ambidexter;2;68;left;no;300;leftarrow;444;true;focus;yes;402566;Chrome;112.0;Windows;10;undefined;undefined;1920 x 1080;1920 x 1080
H008;62;Mannelijk;Ambidexter;2;69;right;yes;300;undefined;null;true;focus;yes;404572;Chrome;112.0;Windows;10;undefined;undefined;1920 x 1080;1920 x 1080
H008;62;Mannelijk;Ambidexter;2;70;left;yes;350;leftarrow;393;false;focus;yes;405719;Chrome;112.0;Windows;10;undefined;undefined;1920 x 1080;1920 x 1080
H008;62;Mannelijk;Ambidexter;2;71;right;no;300;rightarrow;387;true;focus;yes;406861;Chrome;112.0;Windows;10;undefined;undefined;1920 x 1080;1920 x 1080
H008;62;Mannelijk;Ambidexter;2;72;left;no;300;leftarrow;509;true;focus;yes;408125;Chrome;112.0;Windows;10;undefined;undefined;1920 x 1080;1920 x 1080
H008;62;Mannelijk;Ambidexter;2;73;right;no;300;rightarrow;405;true;focus;yes;409285;Chrome;112.0;Windows;10;undefined;undefined;1920 x 1080;1920 x 1080
H008;62;Mannelijk;Ambidexter;2;74;left;no;300;leftarrow;405;true;focus;yes;410446;Chrome;112.0;Windows;10;undefined;undefined;1920 x 1080;1920 x 1080
H008;62;Mannelijk;Ambidexter;2;75;left;no;300;leftarrow;677;true;focus;yes;411877;Chrome;112.0;Windows;10;undefined;undefined;1920 x 1080;1920 x 1080
H008;62;Mannelijk;Ambidexter;2;76;right;no;300;rightarrow;664;true;focus;yes;413295;Chrome;112.0;Windows;10;undefined;undefined;1920 x 1080;1920 x 1080
H008;62;Mannelijk;Ambidexter;2;77;left;no;300;leftarrow;637;true;focus;yes;414685;Chrome;112.0;Windows;10;undefined;undefined;1920 x 1080;1920 x 1080
H008;62;Mannelijk;Ambidexter;2;78;left;yes;300;leftarrow;479;false;focus;yes;415917;Chrome;112.0;Windows;10;undefined;undefined;1920 x 1080;1920 x 1080
H008;62;Mannelijk;Ambidexter;2;79;right;no;250;rightarrow;450;true;focus;yes;417136;Chrome;112.0;Windows;10;undefined;undefined;1920 x 1080;1920 x 1080
H008;62;Mannelijk;Ambidexter;2;80;right;yes;250;undefined;null;true;focus;yes;419141;Chrome;112.0;Windows;10;undefined;undefined;1920 x 1080;1920 x 1080
H008;62;Mannelijk;Ambidexter;2;81;left;yes;300;leftarrow;423;false;focus;yes;420318;Chrome;112.0;Windows;10;undefined;undefined;1920 x 1080;1920 x 1080
H008;62;Mannelijk;Ambidexter;2;82;left;no;250;leftarrow;502;true;focus;yes;421574;Chrome;112.0;Windows;10;undefined;undefined;1920 x 1080;1920 x 1080
H008;62;Mannelijk;Ambidexter;2;83;right;no;250;rightarrow;558;true;focus;yes;422886;Chrome;112.0;Windows;10;undefined;undefined;1920 x 1080;1920 x 1080
H008;62;Mannelijk;Ambidexter;2;84;left;no;250;leftarrow;589;true;focus;yes;424230;Chrome;112.0;Windows;10;undefined;undefined;1920 x 1080;1920 x 1080
H008;62;Mannelijk;Ambidexter;2;85;right;no;250;rightarrow;455;true;focus;yes;425438;Chrome;112.0;Windows;10;undefined;undefined;1920 x 1080;1920 x 1080
H008;62;Mannelijk;Ambidexter;2;86;left;no;250;leftarrow;665;true;focus;yes;426857;Chrome;112.0;Windows;10;undefined;undefined;1920 x 1080;1920 x 1080
H008;62;Mannelijk;Ambidexter;2;87;right;yes;250;undefined;null;true;focus;yes;428860;Chrome;112.0;Windows;10;undefined;undefined;1920 x 1080;1920 x 1080
H008;62;Mannelijk;Ambidexter;2;88;right;no;300;rightarrow;446;true;focus;yes;430061;Chrome;112.0;Windows;10;undefined;undefined;1920 x 1080;1920 x 1080
H008;62;Mannelijk;Ambidexter;2;89;right;yes;300;undefined;null;true;focus;yes;432068;Chrome;112.0;Windows;10;undefined;undefined;1920 x 1080;1920 x 1080
H008;62;Mannelijk;Ambidexter;2;90;left;no;350;leftarrow;408;true;focus;yes;433229;Chrome;112.0;Windows;10;undefined;undefined;1920 x 1080;1920 x 1080
H008;62;Mannelijk;Ambidexter;2;91;left;yes;350;leftarrow;521;false;focus;yes;434503;Chrome;112.0;Windows;10;undefined;undefined;1920 x 1080;1920 x 1080
H008;62;Mannelijk;Ambidexter;2;92;right;no;300;rightarrow;669;true;focus;yes;435925;Chrome;112.0;Windows;10;undefined;undefined;1920 x 1080;1920 x 1080
H008;62;Mannelijk;Ambidexter;2;93;left;no;300;leftarrow;462;true;focus;yes;437141;Chrome;112.0;Windows;10;undefined;undefined;1920 x 1080;1920 x 1080
H008;62;Mannelijk;Ambidexter;2;94;right;no;300;rightarrow;606;true;focus;yes;438501;Chrome;112.0;Windows;10;undefined;undefined;1920 x 1080;1920 x 1080
H008;62;Mannelijk;Ambidexter;2;95;left;no;300;leftarrow;542;true;focus;yes;439797;Chrome;112.0;Windows;10;undefined;undefined;1920 x 1080;1920 x 1080
H008;62;Mannelijk;Ambidexter;2;96;right;no;300;rightarrow;639;true;focus;yes;441189;Chrome;112.0;Windows;10;undefined;undefined;1920 x 1080;1920 x 1080
H008;62;Mannelijk;Ambidexter;2;97;left;no;300;leftarrow;678;true;focus;yes;442621;Chrome;112.0;Windows;10;undefined;undefined;1920 x 1080;1920 x 1080
H008;62;Mannelijk;Ambidexter;2;98;left;yes;300;undefined;null;true;focus;yes;444625;Chrome;112.0;Windows;10;undefined;undefined;1920 x 1080;1920 x 1080
H008;62;Mannelijk;Ambidexter;2;99;left;no;350;leftarrow;420;true;focus;yes;445798;Chrome;112.0;Windows;10;undefined;undefined;1920 x 1080;1920 x 1080
H008;62;Mannelijk;Ambidexter;2;100;right;no;350;rightarrow;695;true;focus;yes;447255;Chrome;112.0;Windows;10;undefined;undefined;1920 x 1080;1920 x 1080
H008;62;Mannelijk;Ambidexter;2;101;right;yes;350;undefined;null;true;focus;yes;449260;Chrome;112.0;Windows;10;undefined;undefined;1920 x 1080;1920 x 1080
H008;62;Mannelijk;Ambidexter;2;102;right;no;400;rightarrow;401;true;focus;yes;450416;Chrome;112.0;Windows;10;undefined;undefined;1920 x 1080;1920 x 1080
H008;62;Mannelijk;Ambidexter;2;103;left;no;400;leftarrow;627;true;focus;yes;451797;Chrome;112.0;Windows;10;undefined;undefined;1920 x 1080;1920 x 1080
H008;62;Mannelijk;Ambidexter;2;104;right;no;400;rightarrow;647;true;focus;yes;453199;Chrome;112.0;Windows;10;undefined;undefined;1920 x 1080;1920 x 1080
H008;62;Mannelijk;Ambidexter;2;105;right;no;400;rightarrow;696;true;focus;yes;454655;Chrome;112.0;Windows;10;undefined;undefined;1920 x 1080;1920 x 1080
H008;62;Mannelijk;Ambidexter;2;106;right;yes;400;rightarrow;396;false;focus;yes;455805;Chrome;112.0;Windows;10;undefined;undefined;1920 x 1080;1920 x 1080
H008;62;Mannelijk;Ambidexter;2;107;left;yes;350;undefined;null;true;focus;yes;457809;Chrome;112.0;Windows;10;undefined;undefined;1920 x 1080;1920 x 1080
H008;62;Mannelijk;Ambidexter;2;108;right;no;400;rightarrow;386;true;focus;yes;458949;Chrome;112.0;Windows;10;undefined;undefined;1920 x 1080;1920 x 1080
H008;62;Mannelijk;Ambidexter;2;109;left;no;400;leftarrow;431;true;focus;yes;460134;Chrome;112.0;Windows;10;undefined;undefined;1920 x 1080;1920 x 1080
H008;62;Mannelijk;Ambidexter;2;110;right;no;400;rightarrow;782;true;focus;yes;461670;Chrome;112.0;Windows;10;undefined;undefined;1920 x 1080;1920 x 1080
H008;62;Mannelijk;Ambidexter;2;111;left;no;400;leftarrow;405;true;focus;yes;462829;Chrome;112.0;Windows;10;undefined;undefined;1920 x 1080;1920 x 1080
H008;62;Mannelijk;Ambidexter;2;112;left;no;400;leftarrow;575;true;focus;yes;464158;Chrome;112.0;Windows;10;undefined;undefined;1920 x 1080;1920 x 1080
H008;62;Mannelijk;Ambidexter;2;113;right;no;400;rightarrow;758;true;focus;yes;465670;Chrome;112.0;Windows;10;undefined;undefined;1920 x 1080;1920 x 1080
H008;62;Mannelijk;Ambidexter;2;114;left;yes;400;undefined;null;true;focus;yes;467675;Chrome;112.0;Windows;10;undefined;undefined;1920 x 1080;1920 x 1080
H008;62;Mannelijk;Ambidexter;2;115;left;no;450;leftarrow;449;true;focus;yes;468879;Chrome;112.0;Windows;10;undefined;undefined;1920 x 1080;1920 x 1080
H008;62;Mannelijk;Ambidexter;2;116;right;no;450;rightarrow;551;true;focus;yes;470189;Chrome;112.0;Windows;10;undefined;undefined;1920 x 1080;1920 x 1080
H008;62;Mannelijk;Ambidexter;2;117;right;no;450;rightarrow;501;true;focus;yes;471446;Chrome;112.0;Windows;10;undefined;undefined;1920 x 1080;1920 x 1080
H008;62;Mannelijk;Ambidexter;2;118;left;no;450;leftarrow;589;true;focus;yes;472790;Chrome;112.0;Windows;10;undefined;undefined;1920 x 1080;1920 x 1080
H008;62;Mannelijk;Ambidexter;2;119;left;no;450;leftarrow;646;true;focus;yes;474190;Chrome;112.0;Windows;10;undefined;undefined;1920 x 1080;1920 x 1080
H008;62;Mannelijk;Ambidexter;2;120;right;yes;450;undefined;null;true;focus;yes;476196;Chrome;112.0;Windows;10;undefined;undefined;1920 x 1080;1920 x 1080
H008;62;Mannelijk;Ambidexter;2;121;right;no;500;rightarrow;375;true;focus;yes;477326;Chrome;112.0;Windows;10;undefined;undefined;1920 x 1080;1920 x 1080
H008;62;Mannelijk;Ambidexter;2;122;left;no;500;leftarrow;495;true;focus;yes;478575;Chrome;112.0;Windows;10;undefined;undefined;1920 x 1080;1920 x 1080
H008;62;Mannelijk;Ambidexter;2;123;left;no;500;leftarrow;566;true;focus;yes;479894;Chrome;112.0;Windows;10;undefined;undefined;1920 x 1080;1920 x 1080
H008;62;Mannelijk;Ambidexter;2;124;left;yes;500;leftarrow;653;false;focus;yes;481302;Chrome;112.0;Windows;10;undefined;undefined;1920 x 1080;1920 x 1080
H008;62;Mannelijk;Ambidexter;2;125;right;yes;450;rightarrow;667;false;focus;yes;482725;Chrome;112.0;Windows;10;undefined;undefined;1920 x 1080;1920 x 1080
H008;62;Mannelijk;Ambidexter;2;126;right;no;400;rightarrow;761;true;focus;yes;484239;Chrome;112.0;Windows;10;undefined;undefined;1920 x 1080;1920 x 1080
H008;62;Mannelijk;Ambidexter;2;127;left;no;400;leftarrow;692;true;focus;yes;485694;Chrome;112.0;Windows;10;undefined;undefined;1920 x 1080;1920 x 1080
H008;62;Mannelijk;Ambidexter;2;128;right;no;400;rightarrow;702;true;focus;yes;487149;Chrome;112.0;Windows;10;undefined;undefined;1920 x 1080;1920 x 1080
H008;62;Mannelijk;Ambidexter;3;1;right;yes;400;rightarrow;468;false;focus;yes;505981;Chrome;112.0;Windows;10;undefined;undefined;1920 x 1080;1920 x 1080
H008;62;Mannelijk;Ambidexter;3;2;left;no;350;leftarrow;663;true;focus;yes;507397;Chrome;112.0;Windows;10;undefined;undefined;1920 x 1080;1920 x 1080
H008;62;Mannelijk;Ambidexter;3;3;left;no;350;leftarrow;365;true;focus;yes;508517;Chrome;112.0;Windows;10;undefined;undefined;1920 x 1080;1920 x 1080
H008;62;Mannelijk;Ambidexter;3;4;right;no;350;rightarrow;438;true;focus;yes;509709;Chrome;112.0;Windows;10;undefined;undefined;1920 x 1080;1920 x 1080
H008;62;Mannelijk;Ambidexter;3;5;right;no;350;rightarrow;404;true;focus;yes;510869;Chrome;112.0;Windows;10;undefined;undefined;1920 x 1080;1920 x 1080
H008;62;Mannelijk;Ambidexter;3;6;left;no;350;leftarrow;430;true;focus;yes;512053;Chrome;112.0;Windows;10;undefined;undefined;1920 x 1080;1920 x 1080
H008;62;Mannelijk;Ambidexter;3;7;left;yes;350;leftarrow;383;false;focus;yes;513189;Chrome;112.0;Windows;10;undefined;undefined;1920 x 1080;1920 x 1080
H008;62;Mannelijk;Ambidexter;3;8;right;no;300;rightarrow;550;true;focus;yes;514494;Chrome;112.0;Windows;10;undefined;undefined;1920 x 1080;1920 x 1080
H008;62;Mannelijk;Ambidexter;3;9;right;no;300;rightarrow;382;true;focus;yes;515630;Chrome;112.0;Windows;10;undefined;undefined;1920 x 1080;1920 x 1080
H008;62;Mannelijk;Ambidexter;3;10;left;no;300;leftarrow;716;true;focus;yes;517101;Chrome;112.0;Windows;10;undefined;undefined;1920 x 1080;1920 x 1080
H008;62;Mannelijk;Ambidexter;3;11;left;no;300;leftarrow;476;true;focus;yes;518333;Chrome;112.0;Windows;10;undefined;undefined;1920 x 1080;1920 x 1080
H008;62;Mannelijk;Ambidexter;3;12;right;yes;300;rightarrow;485;false;focus;yes;519572;Chrome;112.0;Windows;10;undefined;undefined;1920 x 1080;1920 x 1080
H008;62;Mannelijk;Ambidexter;3;13;right;no;250;rightarrow;460;true;focus;yes;520789;Chrome;112.0;Windows;10;undefined;undefined;1920 x 1080;1920 x 1080
H008;62;Mannelijk;Ambidexter;3;14;left;yes;250;undefined;null;true;focus;yes;522794;Chrome;112.0;Windows;10;undefined;undefined;1920 x 1080;1920 x 1080
H008;62;Mannelijk;Ambidexter;3;15;left;no;300;leftarrow;427;true;focus;yes;523974;Chrome;112.0;Windows;10;undefined;undefined;1920 x 1080;1920 x 1080
H008;62;Mannelijk;Ambidexter;3;16;right;no;300;rightarrow;646;true;focus;yes;525373;Chrome;112.0;Windows;10;undefined;undefined;1920 x 1080;1920 x 1080
H008;62;Mannelijk;Ambidexter;3;17;left;no;300;leftarrow;438;true;focus;yes;526573;Chrome;112.0;Windows;10;undefined;undefined;1920 x 1080;1920 x 1080
H008;62;Mannelijk;Ambidexter;3;18;left;no;300;leftarrow;494;true;focus;yes;527821;Chrome;112.0;Windows;10;undefined;undefined;1920 x 1080;1920 x 1080
H008;62;Mannelijk;Ambidexter;3;19;left;no;300;leftarrow;573;true;focus;yes;529149;Chrome;112.0;Windows;10;undefined;undefined;1920 x 1080;1920 x 1080
H008;62;Mannelijk;Ambidexter;3;20;right;no;300;rightarrow;653;true;focus;yes;530557;Chrome;112.0;Windows;10;undefined;undefined;1920 x 1080;1920 x 1080
H008;62;Mannelijk;Ambidexter;3;21;right;no;300;rightarrow;509;true;focus;yes;531821;Chrome;112.0;Windows;10;undefined;undefined;1920 x 1080;1920 x 1080
H008;62;Mannelijk;Ambidexter;3;22;left;yes;300;leftarrow;469;false;focus;yes;533045;Chrome;112.0;Windows;10;undefined;undefined;1920 x 1080;1920 x 1080
H008;62;Mannelijk;Ambidexter;3;23;right;no;250;rightarrow;518;true;focus;yes;534317;Chrome;112.0;Windows;10;undefined;undefined;1920 x 1080;1920 x 1080
H008;62;Mannelijk;Ambidexter;3;24;right;yes;250;rightarrow;477;false;focus;yes;535549;Chrome;112.0;Windows;10;undefined;undefined;1920 x 1080;1920 x 1080
H008;62;Mannelijk;Ambidexter;3;25;left;no;200;leftarrow;599;true;focus;yes;536901;Chrome;112.0;Windows;10;undefined;undefined;1920 x 1080;1920 x 1080
H008;62;Mannelijk;Ambidexter;3;26;right;yes;200;undefined;null;true;focus;yes;538909;Chrome;112.0;Windows;10;undefined;undefined;1920 x 1080;1920 x 1080
H008;62;Mannelijk;Ambidexter;3;27;left;yes;250;leftarrow;391;false;focus;yes;540055;Chrome;112.0;Windows;10;undefined;undefined;1920 x 1080;1920 x 1080
H008;62;Mannelijk;Ambidexter;3;28;right;no;200;rightarrow;668;true;focus;yes;541477;Chrome;112.0;Windows;10;undefined;undefined;1920 x 1080;1920 x 1080
H008;62;Mannelijk;Ambidexter;3;29;right;no;200;rightarrow;446;true;focus;yes;542677;Chrome;112.0;Windows;10;undefined;undefined;1920 x 1080;1920 x 1080
H008;62;Mannelijk;Ambidexter;3;30;right;no;200;rightarrow;709;true;focus;yes;544157;Chrome;112.0;Windows;10;undefined;undefined;1920 x 1080;1920 x 1080
H008;62;Mannelijk;Ambidexter;3;31;left;no;200;leftarrow;435;true;focus;yes;545360;Chrome;112.0;Windows;10;undefined;undefined;1920 x 1080;1920 x 1080
H008;62;Mannelijk;Ambidexter;3;32;left;no;200;leftarrow;498;true;focus;yes;546614;Chrome;112.0;Windows;10;undefined;undefined;1920 x 1080;1920 x 1080
H008;62;Mannelijk;Ambidexter;3;33;left;no;200;leftarrow;445;true;focus;yes;547814;Chrome;112.0;Windows;10;undefined;undefined;1920 x 1080;1920 x 1080
H008;62;Mannelijk;Ambidexter;3;34;left;yes;200;leftarrow;420;false;focus;yes;548989;Chrome;112.0;Windows;10;undefined;undefined;1920 x 1080;1920 x 1080
H008;62;Mannelijk;Ambidexter;3;35;right;no;150;rightarrow;647;true;focus;yes;550389;Chrome;112.0;Windows;10;undefined;undefined;1920 x 1080;1920 x 1080
H008;62;Mannelijk;Ambidexter;3;36;right;yes;150;undefined;null;true;focus;yes;552393;Chrome;112.0;Windows;10;undefined;undefined;1920 x 1080;1920 x 1080
H008;62;Mannelijk;Ambidexter;3;37;right;no;200;rightarrow;466;true;focus;yes;553612;Chrome;112.0;Windows;10;undefined;undefined;1920 x 1080;1920 x 1080
H008;62;Mannelijk;Ambidexter;3;38;right;no;200;rightarrow;670;true;focus;yes;555037;Chrome;112.0;Windows;10;undefined;undefined;1920 x 1080;1920 x 1080
H008;62;Mannelijk;Ambidexter;3;39;left;no;200;leftarrow;715;true;focus;yes;556509;Chrome;112.0;Windows;10;undefined;undefined;1920 x 1080;1920 x 1080
H008;62;Mannelijk;Ambidexter;3;40;left;no;200;leftarrow;420;true;focus;yes;557684;Chrome;112.0;Windows;10;undefined;undefined;1920 x 1080;1920 x 1080
H008;62;Mannelijk;Ambidexter;3;41;right;no;200;rightarrow;669;true;focus;yes;559108;Chrome;112.0;Windows;10;undefined;undefined;1920 x 1080;1920 x 1080
H008;62;Mannelijk;Ambidexter;3;42;right;no;200;rightarrow;421;true;focus;yes;560285;Chrome;112.0;Windows;10;undefined;undefined;1920 x 1080;1920 x 1080
H008;62;Mannelijk;Ambidexter;3;43;right;yes;200;undefined;null;true;focus;yes;562304;Chrome;112.0;Windows;10;undefined;undefined;1920 x 1080;1920 x 1080
H008;62;Mannelijk;Ambidexter;3;44;left;no;250;leftarrow;396;true;focus;yes;563454;Chrome;112.0;Windows;10;undefined;undefined;1920 x 1080;1920 x 1080
H008;62;Mannelijk;Ambidexter;3;45;left;no;250;leftarrow;598;true;focus;yes;564805;Chrome;112.0;Windows;10;undefined;undefined;1920 x 1080;1920 x 1080
H008;62;Mannelijk;Ambidexter;3;46;left;no;250;leftarrow;653;true;focus;yes;566214;Chrome;112.0;Windows;10;undefined;undefined;1920 x 1080;1920 x 1080
H008;62;Mannelijk;Ambidexter;3;47;right;no;250;rightarrow;671;true;focus;yes;567639;Chrome;112.0;Windows;10;undefined;undefined;1920 x 1080;1920 x 1080
H008;62;Mannelijk;Ambidexter;3;48;left;yes;250;leftarrow;471;false;focus;yes;568878;Chrome;112.0;Windows;10;undefined;undefined;1920 x 1080;1920 x 1080
H008;62;Mannelijk;Ambidexter;3;49;right;no;200;rightarrow;606;true;focus;yes;570237;Chrome;112.0;Windows;10;undefined;undefined;1920 x 1080;1920 x 1080
H008;62;Mannelijk;Ambidexter;3;50;left;no;200;leftarrow;422;true;focus;yes;571414;Chrome;112.0;Windows;10;undefined;undefined;1920 x 1080;1920 x 1080
H008;62;Mannelijk;Ambidexter;3;51;right;no;200;rightarrow;430;true;focus;yes;572598;Chrome;112.0;Windows;10;undefined;undefined;1920 x 1080;1920 x 1080
H008;62;Mannelijk;Ambidexter;3;52;left;no;200;leftarrow;546;true;focus;yes;573902;Chrome;112.0;Windows;10;undefined;undefined;1920 x 1080;1920 x 1080
H008;62;Mannelijk;Ambidexter;3;53;left;no;200;leftarrow;453;true;focus;yes;575109;Chrome;112.0;Windows;10;undefined;undefined;1920 x 1080;1920 x 1080
H008;62;Mannelijk;Ambidexter;3;54;right;no;200;rightarrow;445;true;focus;yes;576308;Chrome;112.0;Windows;10;undefined;undefined;1920 x 1080;1920 x 1080
H008;62;Mannelijk;Ambidexter;3;55;right;yes;200;undefined;null;true;focus;yes;578314;Chrome;112.0;Windows;10;undefined;undefined;1920 x 1080;1920 x 1080
H008;62;Mannelijk;Ambidexter;3;56;left;yes;250;leftarrow;440;false;focus;yes;579509;Chrome;112.0;Windows;10;undefined;undefined;1920 x 1080;1920 x 1080
H008;62;Mannelijk;Ambidexter;3;57;left;no;200;leftarrow;469;true;focus;yes;580733;Chrome;112.0;Windows;10;undefined;undefined;1920 x 1080;1920 x 1080
H008;62;Mannelijk;Ambidexter;3;63;right;no;200;rightarrow;474;true;focus;yes;588764;Chrome;112.0;Windows;10;undefined;undefined;1920 x 1080;1920 x 1080
H008;62;Mannelijk;Ambidexter;3;64;left;no;200;leftarrow;542;true;focus;yes;590061;Chrome;112.0;Windows;10;undefined;undefined;1920 x 1080;1920 x 1080
H008;62;Mannelijk;Ambidexter;3;58;right;no;200;rightarrow;437;true;focus;yes;581925;Chrome;112.0;Windows;10;undefined;undefined;1920 x 1080;1920 x 1080
H008;62;Mannelijk;Ambidexter;3;60;left;no;250;leftarrow;351;true;focus;yes;585038;Chrome;112.0;Windows;10;undefined;undefined;1920 x 1080;1920 x 1080
H008;62;Mannelijk;Ambidexter;3;62;right;no;200;rightarrow;543;true;focus;yes;587517;Chrome;112.0;Windows;10;undefined;undefined;1920 x 1080;1920 x 1080
H008;62;Mannelijk;Ambidexter;3;61;left;yes;250;leftarrow;426;false;focus;yes;586220;Chrome;112.0;Windows;10;undefined;undefined;1920 x 1080;1920 x 1080
H008;62;Mannelijk;Ambidexter;3;59;right;yes;200;undefined;null;true;focus;yes;583932;Chrome;112.0;Windows;10;undefined;undefined;1920 x 1080;1920 x 1080
H008;62;Mannelijk;Ambidexter;3;65;left;no;200;leftarrow;501;true;focus;yes;591317;Chrome;112.0;Windows;10;undefined;undefined;1920 x 1080;1920 x 1080
H008;62;Mannelijk;Ambidexter;3;66;right;no;200;rightarrow;693;true;focus;yes;592765;Chrome;112.0;Windows;10;undefined;undefined;1920 x 1080;1920 x 1080
H008;62;Mannelijk;Ambidexter;3;67;right;no;200;rightarrow;436;true;focus;yes;593958;Chrome;112.0;Windows;10;undefined;undefined;1920 x 1080;1920 x 1080
H008;62;Mannelijk;Ambidexter;3;68;right;yes;200;rightarrow;435;false;focus;yes;595149;Chrome;112.0;Windows;10;undefined;undefined;1920 x 1080;1920 x 1080
H008;62;Mannelijk;Ambidexter;3;69;right;no;150;rightarrow;647;true;focus;yes;596549;Chrome;112.0;Windows;10;undefined;undefined;1920 x 1080;1920 x 1080
H008;62;Mannelijk;Ambidexter;3;70;left;no;150;leftarrow;655;true;focus;yes;597958;Chrome;112.0;Windows;10;undefined;undefined;1920 x 1080;1920 x 1080
H008;62;Mannelijk;Ambidexter;3;71;left;no;150;leftarrow;443;true;focus;yes;599165;Chrome;112.0;Windows;10;undefined;undefined;1920 x 1080;1920 x 1080
H008;62;Mannelijk;Ambidexter;3;72;left;yes;150;undefined;null;true;focus;yes;601170;Chrome;112.0;Windows;10;undefined;undefined;1920 x 1080;1920 x 1080
H008;62;Mannelijk;Ambidexter;3;73;left;no;200;leftarrow;393;true;focus;yes;602318;Chrome;112.0;Windows;10;undefined;undefined;1920 x 1080;1920 x 1080
H008;62;Mannelijk;Ambidexter;3;74;right;no;200;rightarrow;651;true;focus;yes;603725;Chrome;112.0;Windows;10;undefined;undefined;1920 x 1080;1920 x 1080
H008;62;Mannelijk;Ambidexter;3;75;left;no;200;leftarrow;464;true;focus;yes;604944;Chrome;112.0;Windows;10;undefined;undefined;1920 x 1080;1920 x 1080
H008;62;Mannelijk;Ambidexter;3;76;left;yes;200;undefined;null;true;focus;yes;606949;Chrome;112.0;Windows;10;undefined;undefined;1920 x 1080;1920 x 1080
H008;62;Mannelijk;Ambidexter;3;77;left;no;250;leftarrow;422;true;focus;yes;608125;Chrome;112.0;Windows;10;undefined;undefined;1920 x 1080;1920 x 1080
H008;62;Mannelijk;Ambidexter;3;78;right;no;250;rightarrow;406;true;focus;yes;609286;Chrome;112.0;Windows;10;undefined;undefined;1920 x 1080;1920 x 1080
H008;62;Mannelijk;Ambidexter;3;79;right;no;250;rightarrow;627;true;focus;yes;610668;Chrome;112.0;Windows;10;undefined;undefined;1920 x 1080;1920 x 1080
H008;62;Mannelijk;Ambidexter;3;80;right;yes;250;rightarrow;413;false;focus;yes;611845;Chrome;112.0;Windows;10;undefined;undefined;1920 x 1080;1920 x 1080
H008;62;Mannelijk;Ambidexter;3;81;right;yes;200;undefined;null;true;focus;yes;613853;Chrome;112.0;Windows;10;undefined;undefined;1920 x 1080;1920 x 1080
H008;62;Mannelijk;Ambidexter;3;82;left;no;250;leftarrow;406;true;focus;yes;615014;Chrome;112.0;Windows;10;undefined;undefined;1920 x 1080;1920 x 1080
H008;62;Mannelijk;Ambidexter;3;83;right;no;250;rightarrow;619;true;focus;yes;616388;Chrome;112.0;Windows;10;undefined;undefined;1920 x 1080;1920 x 1080
H008;62;Mannelijk;Ambidexter;3;84;left;no;250;leftarrow;496;true;focus;yes;617640;Chrome;112.0;Windows;10;undefined;undefined;1920 x 1080;1920 x 1080
H008;62;Mannelijk;Ambidexter;3;85;right;no;250;rightarrow;444;true;focus;yes;618837;Chrome;112.0;Windows;10;undefined;undefined;1920 x 1080;1920 x 1080
H008;62;Mannelijk;Ambidexter;3;86;left;no;250;leftarrow;398;true;focus;yes;619989;Chrome;112.0;Windows;10;undefined;undefined;1920 x 1080;1920 x 1080
H008;62;Mannelijk;Ambidexter;3;87;right;no;250;rightarrow;710;true;focus;yes;621453;Chrome;112.0;Windows;10;undefined;undefined;1920 x 1080;1920 x 1080
H008;62;Mannelijk;Ambidexter;3;88;left;yes;250;undefined;null;true;focus;yes;623457;Chrome;112.0;Windows;10;undefined;undefined;1920 x 1080;1920 x 1080
H008;62;Mannelijk;Ambidexter;3;89;right;no;300;rightarrow;444;true;focus;yes;624654;Chrome;112.0;Windows;10;undefined;undefined;1920 x 1080;1920 x 1080
H008;62;Mannelijk;Ambidexter;3;90;right;yes;300;rightarrow;478;false;focus;yes;625886;Chrome;112.0;Windows;10;undefined;undefined;1920 x 1080;1920 x 1080
H008;62;Mannelijk;Ambidexter;3;91;left;no;250;leftarrow;661;true;focus;yes;627301;Chrome;112.0;Windows;10;undefined;undefined;1920 x 1080;1920 x 1080
H008;62;Mannelijk;Ambidexter;3;92;left;yes;250;leftarrow;407;false;focus;yes;628462;Chrome;112.0;Windows;10;undefined;undefined;1920 x 1080;1920 x 1080
H008;62;Mannelijk;Ambidexter;3;93;right;no;200;rightarrow;671;true;focus;yes;629886;Chrome;112.0;Windows;10;undefined;undefined;1920 x 1080;1920 x 1080
H008;62;Mannelijk;Ambidexter;3;94;right;no;200;rightarrow;507;true;focus;yes;631149;Chrome;112.0;Windows;10;undefined;undefined;1920 x 1080;1920 x 1080
H008;62;Mannelijk;Ambidexter;3;95;left;no;200;leftarrow;413;true;focus;yes;632317;Chrome;112.0;Windows;10;undefined;undefined;1920 x 1080;1920 x 1080
H008;62;Mannelijk;Ambidexter;3;96;left;no;200;leftarrow;447;true;focus;yes;633533;Chrome;112.0;Windows;10;undefined;undefined;1920 x 1080;1920 x 1080
H008;62;Mannelijk;Ambidexter;3;97;right;yes;200;undefined;null;true;focus;yes;635540;Chrome;112.0;Windows;10;undefined;undefined;1920 x 1080;1920 x 1080
H008;62;Mannelijk;Ambidexter;3;98;left;no;250;leftarrow;374;true;focus;yes;636670;Chrome;112.0;Windows;10;undefined;undefined;1920 x 1080;1920 x 1080
H008;62;Mannelijk;Ambidexter;3;99;left;yes;250;leftarrow;405;false;focus;yes;637829;Chrome;112.0;Windows;10;undefined;undefined;1920 x 1080;1920 x 1080
H008;62;Mannelijk;Ambidexter;3;100;left;no;200;leftarrow;438;true;focus;yes;639037;Chrome;112.0;Windows;10;undefined;undefined;1920 x 1080;1920 x 1080
H008;62;Mannelijk;Ambidexter;3;101;left;no;200;leftarrow;760;true;focus;yes;640557;Chrome;112.0;Windows;10;undefined;undefined;1920 x 1080;1920 x 1080
H008;62;Mannelijk;Ambidexter;3;102;right;no;200;rightarrow;493;true;focus;yes;641806;Chrome;112.0;Windows;10;undefined;undefined;1920 x 1080;1920 x 1080
H008;62;Mannelijk;Ambidexter;3;103;right;no;200;rightarrow;396;true;focus;yes;642957;Chrome;112.0;Windows;10;undefined;undefined;1920 x 1080;1920 x 1080
H008;62;Mannelijk;Ambidexter;3;104;right;no;200;rightarrow;357;true;focus;yes;644079;Chrome;112.0;Windows;10;undefined;undefined;1920 x 1080;1920 x 1080
H008;62;Mannelijk;Ambidexter;3;105;left;no;200;leftarrow;467;true;focus;yes;645301;Chrome;112.0;Windows;10;undefined;undefined;1920 x 1080;1920 x 1080
H008;62;Mannelijk;Ambidexter;3;106;left;yes;200;undefined;null;true;focus;yes;647311;Chrome;112.0;Windows;10;undefined;undefined;1920 x 1080;1920 x 1080
H008;62;Mannelijk;Ambidexter;3;107;right;no;250;rightarrow;337;true;focus;yes;648405;Chrome;112.0;Windows;10;undefined;undefined;1920 x 1080;1920 x 1080
H008;62;Mannelijk;Ambidexter;3;108;right;no;250;rightarrow;509;true;focus;yes;649669;Chrome;112.0;Windows;10;undefined;undefined;1920 x 1080;1920 x 1080
H008;62;Mannelijk;Ambidexter;3;109;left;no;250;leftarrow;440;true;focus;yes;650863;Chrome;112.0;Windows;10;undefined;undefined;1920 x 1080;1920 x 1080
H008;62;Mannelijk;Ambidexter;3;110;right;no;250;rightarrow;541;true;focus;yes;652159;Chrome;112.0;Windows;10;undefined;undefined;1920 x 1080;1920 x 1080
H008;62;Mannelijk;Ambidexter;3;111;right;yes;250;rightarrow;492;false;focus;yes;653405;Chrome;112.0;Windows;10;undefined;undefined;1920 x 1080;1920 x 1080
H008;62;Mannelijk;Ambidexter;3;112;left;no;200;leftarrow;455;true;focus;yes;654614;Chrome;112.0;Windows;10;undefined;undefined;1920 x 1080;1920 x 1080
H008;62;Mannelijk;Ambidexter;3;113;left;yes;200;undefined;null;true;focus;yes;656621;Chrome;112.0;Windows;10;undefined;undefined;1920 x 1080;1920 x 1080
H008;62;Mannelijk;Ambidexter;3;114;right;no;250;rightarrow;440;true;focus;yes;657822;Chrome;112.0;Windows;10;undefined;undefined;1920 x 1080;1920 x 1080
H008;62;Mannelijk;Ambidexter;3;115;right;no;250;rightarrow;389;true;focus;yes;658966;Chrome;112.0;Windows;10;undefined;undefined;1920 x 1080;1920 x 1080
H008;62;Mannelijk;Ambidexter;3;116;left;no;250;leftarrow;428;true;focus;yes;660150;Chrome;112.0;Windows;10;undefined;undefined;1920 x 1080;1920 x 1080
H008;62;Mannelijk;Ambidexter;3;117;right;yes;250;rightarrow;363;false;focus;yes;661269;Chrome;112.0;Windows;10;undefined;undefined;1920 x 1080;1920 x 1080
H008;62;Mannelijk;Ambidexter;3;118;left;no;200;leftarrow;412;true;focus;yes;662437;Chrome;112.0;Windows;10;undefined;undefined;1920 x 1080;1920 x 1080
H008;62;Mannelijk;Ambidexter;3;119;right;no;200;rightarrow;410;true;focus;yes;663605;Chrome;112.0;Windows;10;undefined;undefined;1920 x 1080;1920 x 1080
H008;62;Mannelijk;Ambidexter;3;120;left;no;200;leftarrow;431;true;focus;yes;664789;Chrome;112.0;Windows;10;undefined;undefined;1920 x 1080;1920 x 1080
H008;62;Mannelijk;Ambidexter;3;121;left;no;200;leftarrow;509;true;focus;yes;666053;Chrome;112.0;Windows;10;undefined;undefined;1920 x 1080;1920 x 1080
H008;62;Mannelijk;Ambidexter;3;122;left;no;200;leftarrow;431;true;focus;yes;667239;Chrome;112.0;Windows;10;undefined;undefined;1920 x 1080;1920 x 1080
H008;62;Mannelijk;Ambidexter;3;123;left;no;200;leftarrow;354;true;focus;yes;668349;Chrome;112.0;Windows;10;undefined;undefined;1920 x 1080;1920 x 1080
H008;62;Mannelijk;Ambidexter;3;124;right;no;200;rightarrow;575;true;focus;yes;669680;Chrome;112.0;Windows;10;undefined;undefined;1920 x 1080;1920 x 1080
H008;62;Mannelijk;Ambidexter;3;125;right;yes;200;undefined;null;true;focus;yes;671685;Chrome;112.0;Windows;10;undefined;undefined;1920 x 1080;1920 x 1080
H008;62;Mannelijk;Ambidexter;3;126;right;no;250;rightarrow;413;true;focus;yes;672854;Chrome;112.0;Windows;10;undefined;undefined;1920 x 1080;1920 x 1080
H008;62;Mannelijk;Ambidexter;3;127;left;yes;250;leftarrow;441;false;focus;yes;674055;Chrome;112.0;Windows;10;undefined;undefined;1920 x 1080;1920 x 1080
H008;62;Mannelijk;Ambidexter;3;128;right;no;200;rightarrow;454;true;focus;yes;675264;Chrome;112.0;Windows;10;undefined;undefined;1920 x 1080;1920 x 1080
H008;62;Mannelijk;Ambidexter;4;1;right;no;200;rightarrow;443;true;focus;yes;710439;Chrome;112.0;Windows;10;undefined;undefined;1920 x 1080;1920 x 1080
H008;62;Mannelijk;Ambidexter;4;2;left;yes;200;undefined;null;true;focus;yes;712445;Chrome;112.0;Windows;10;undefined;undefined;1920 x 1080;1920 x 1080
H008;62;Mannelijk;Ambidexter;4;3;right;no;250;rightarrow;360;true;focus;yes;713561;Chrome;112.0;Windows;10;undefined;undefined;1920 x 1080;1920 x 1080
H008;62;Mannelijk;Ambidexter;4;4;left;no;250;leftarrow;433;true;focus;yes;714750;Chrome;112.0;Windows;10;undefined;undefined;1920 x 1080;1920 x 1080
H008;62;Mannelijk;Ambidexter;4;5;right;yes;250;rightarrow;414;false;focus;yes;715920;Chrome;112.0;Windows;10;undefined;undefined;1920 x 1080;1920 x 1080
H008;62;Mannelijk;Ambidexter;4;6;left;no;200;leftarrow;636;true;focus;yes;717310;Chrome;112.0;Windows;10;undefined;undefined;1920 x 1080;1920 x 1080
H008;62;Mannelijk;Ambidexter;4;7;right;no;200;rightarrow;605;true;focus;yes;718670;Chrome;112.0;Windows;10;undefined;undefined;1920 x 1080;1920 x 1080
H008;62;Mannelijk;Ambidexter;4;8;left;no;200;leftarrow;444;true;focus;yes;719870;Chrome;112.0;Windows;10;undefined;undefined;1920 x 1080;1920 x 1080
H008;62;Mannelijk;Ambidexter;4;9;left;no;200;leftarrow;461;true;focus;yes;721086;Chrome;112.0;Windows;10;undefined;undefined;1920 x 1080;1920 x 1080
H008;62;Mannelijk;Ambidexter;4;10;left;no;200;leftarrow;439;true;focus;yes;722281;Chrome;112.0;Windows;10;undefined;undefined;1920 x 1080;1920 x 1080
H008;62;Mannelijk;Ambidexter;4;11;right;no;200;rightarrow;689;true;focus;yes;723726;Chrome;112.0;Windows;10;undefined;undefined;1920 x 1080;1920 x 1080
H008;62;Mannelijk;Ambidexter;4;12;left;no;200;leftarrow;469;true;focus;yes;724950;Chrome;112.0;Windows;10;undefined;undefined;1920 x 1080;1920 x 1080
H008;62;Mannelijk;Ambidexter;4;13;right;no;200;rightarrow;490;true;focus;yes;726198;Chrome;112.0;Windows;10;undefined;undefined;1920 x 1080;1920 x 1080
H008;62;Mannelijk;Ambidexter;4;14;left;yes;200;leftarrow;714;false;focus;yes;727670;Chrome;112.0;Windows;10;undefined;undefined;1920 x 1080;1920 x 1080
H008;62;Mannelijk;Ambidexter;4;15;right;no;150;rightarrow;415;true;focus;yes;728839;Chrome;112.0;Windows;10;undefined;undefined;1920 x 1080;1920 x 1080
H008;62;Mannelijk;Ambidexter;4;16;right;yes;150;undefined;null;true;focus;yes;730844;Chrome;112.0;Windows;10;undefined;undefined;1920 x 1080;1920 x 1080
H008;62;Mannelijk;Ambidexter;4;17;left;no;200;leftarrow;399;true;focus;yes;731999;Chrome;112.0;Windows;10;undefined;undefined;1920 x 1080;1920 x 1080
H008;62;Mannelijk;Ambidexter;4;18;right;no;200;rightarrow;393;true;focus;yes;733149;Chrome;112.0;Windows;10;undefined;undefined;1920 x 1080;1920 x 1080
H008;62;Mannelijk;Ambidexter;4;19;right;yes;200;undefined;null;true;focus;yes;735155;Chrome;112.0;Windows;10;undefined;undefined;1920 x 1080;1920 x 1080
H008;62;Mannelijk;Ambidexter;4;20;right;no;250;rightarrow;367;true;focus;yes;736278;Chrome;112.0;Windows;10;undefined;undefined;1920 x 1080;1920 x 1080
H008;62;Mannelijk;Ambidexter;4;21;right;no;250;rightarrow;405;true;focus;yes;737439;Chrome;112.0;Windows;10;undefined;undefined;1920 x 1080;1920 x 1080
H008;62;Mannelijk;Ambidexter;4;22;left;no;250;leftarrow;750;true;focus;yes;738943;Chrome;112.0;Windows;10;undefined;undefined;1920 x 1080;1920 x 1080
H008;62;Mannelijk;Ambidexter;4;23;left;no;250;leftarrow;748;true;focus;yes;740446;Chrome;112.0;Windows;10;undefined;undefined;1920 x 1080;1920 x 1080
H008;62;Mannelijk;Ambidexter;4;24;left;yes;250;leftarrow;387;false;focus;yes;741590;Chrome;112.0;Windows;10;undefined;undefined;1920 x 1080;1920 x 1080
H008;62;Mannelijk;Ambidexter;4;25;right;yes;200;undefined;null;true;focus;yes;743609;Chrome;112.0;Windows;10;undefined;undefined;1920 x 1080;1920 x 1080
H008;62;Mannelijk;Ambidexter;4;26;left;yes;250;undefined;null;true;focus;yes;745616;Chrome;112.0;Windows;10;undefined;undefined;1920 x 1080;1920 x 1080
H008;62;Mannelijk;Ambidexter;4;27;right;no;300;rightarrow;459;true;focus;yes;746830;Chrome;112.0;Windows;10;undefined;undefined;1920 x 1080;1920 x 1080
H008;62;Mannelijk;Ambidexter;4;28;right;no;300;rightarrow;471;true;focus;yes;748055;Chrome;112.0;Windows;10;undefined;undefined;1920 x 1080;1920 x 1080
H008;62;Mannelijk;Ambidexter;4;29;left;no;300;leftarrow;581;true;focus;yes;749390;Chrome;112.0;Windows;10;undefined;undefined;1920 x 1080;1920 x 1080
H008;62;Mannelijk;Ambidexter;4;30;left;no;300;leftarrow;445;true;focus;yes;750591;Chrome;112.0;Windows;10;undefined;undefined;1920 x 1080;1920 x 1080
H008;62;Mannelijk;Ambidexter;4;31;left;no;300;leftarrow;458;true;focus;yes;751806;Chrome;112.0;Windows;10;undefined;undefined;1920 x 1080;1920 x 1080
H008;62;Mannelijk;Ambidexter;4;32;right;no;300;rightarrow;599;true;focus;yes;753159;Chrome;112.0;Windows;10;undefined;undefined;1920 x 1080;1920 x 1080
H008;62;Mannelijk;Ambidexter;4;33;right;no;300;rightarrow;671;true;focus;yes;754590;Chrome;112.0;Windows;10;undefined;undefined;1920 x 1080;1920 x 1080
H008;62;Mannelijk;Ambidexter;4;34;right;no;300;rightarrow;432;true;focus;yes;755776;Chrome;112.0;Windows;10;undefined;undefined;1920 x 1080;1920 x 1080
H008;62;Mannelijk;Ambidexter;4;35;right;yes;300;rightarrow;460;false;focus;yes;756990;Chrome;112.0;Windows;10;undefined;undefined;1920 x 1080;1920 x 1080
H008;62;Mannelijk;Ambidexter;4;36;left;yes;250;undefined;null;true;focus;yes;758998;Chrome;112.0;Windows;10;undefined;undefined;1920 x 1080;1920 x 1080
H008;62;Mannelijk;Ambidexter;4;37;left;no;300;leftarrow;388;true;focus;yes;760142;Chrome;112.0;Windows;10;undefined;undefined;1920 x 1080;1920 x 1080
H008;62;Mannelijk;Ambidexter;4;38;right;no;300;rightarrow;469;true;focus;yes;761366;Chrome;112.0;Windows;10;undefined;undefined;1920 x 1080;1920 x 1080
H008;62;Mannelijk;Ambidexter;4;39;left;no;300;leftarrow;540;true;focus;yes;762662;Chrome;112.0;Windows;10;undefined;undefined;1920 x 1080;1920 x 1080
H008;62;Mannelijk;Ambidexter;4;40;left;no;300;leftarrow;487;true;focus;yes;763904;Chrome;112.0;Windows;10;undefined;undefined;1920 x 1080;1920 x 1080
H008;62;Mannelijk;Ambidexter;4;41;right;yes;300;rightarrow;500;false;focus;yes;765158;Chrome;112.0;Windows;10;undefined;undefined;1920 x 1080;1920 x 1080
H008;62;Mannelijk;Ambidexter;4;42;left;no;250;leftarrow;426;true;focus;yes;766342;Chrome;112.0;Windows;10;undefined;undefined;1920 x 1080;1920 x 1080
H008;62;Mannelijk;Ambidexter;4;43;left;yes;250;leftarrow;444;false;focus;yes;767546;Chrome;112.0;Windows;10;undefined;undefined;1920 x 1080;1920 x 1080
H008;62;Mannelijk;Ambidexter;4;44;left;no;200;leftarrow;523;true;focus;yes;768822;Chrome;112.0;Windows;10;undefined;undefined;1920 x 1080;1920 x 1080
H008;62;Mannelijk;Ambidexter;4;45;right;no;200;rightarrow;709;true;focus;yes;770286;Chrome;112.0;Windows;10;undefined;undefined;1920 x 1080;1920 x 1080
H008;62;Mannelijk;Ambidexter;4;46;right;no;200;rightarrow;414;true;focus;yes;771456;Chrome;112.0;Windows;10;undefined;undefined;1920 x 1080;1920 x 1080
H008;62;Mannelijk;Ambidexter;4;47;right;no;200;rightarrow;410;true;focus;yes;772623;Chrome;112.0;Windows;10;undefined;undefined;1920 x 1080;1920 x 1080
H008;62;Mannelijk;Ambidexter;4;48;left;no;200;leftarrow;612;true;focus;yes;773990;Chrome;112.0;Windows;10;undefined;undefined;1920 x 1080;1920 x 1080
H008;62;Mannelijk;Ambidexter;4;49;left;no;200;leftarrow;499;true;focus;yes;775245;Chrome;112.0;Windows;10;undefined;undefined;1920 x 1080;1920 x 1080
H008;62;Mannelijk;Ambidexter;4;50;left;no;200;leftarrow;551;true;focus;yes;776550;Chrome;112.0;Windows;10;undefined;undefined;1920 x 1080;1920 x 1080
H008;62;Mannelijk;Ambidexter;4;51;right;no;200;rightarrow;750;true;focus;yes;778054;Chrome;112.0;Windows;10;undefined;undefined;1920 x 1080;1920 x 1080
H008;62;Mannelijk;Ambidexter;4;52;right;yes;200;undefined;null;true;focus;yes;780059;Chrome;112.0;Windows;10;undefined;undefined;1920 x 1080;1920 x 1080
H008;62;Mannelijk;Ambidexter;4;53;right;no;250;rightarrow;409;true;focus;yes;781222;Chrome;112.0;Windows;10;undefined;undefined;1920 x 1080;1920 x 1080
H008;62;Mannelijk;Ambidexter;4;54;left;no;250;leftarrow;665;true;focus;yes;782640;Chrome;112.0;Windows;10;undefined;undefined;1920 x 1080;1920 x 1080
H008;62;Mannelijk;Ambidexter;4;55;right;no;250;rightarrow;685;true;focus;yes;784078;Chrome;112.0;Windows;10;undefined;undefined;1920 x 1080;1920 x 1080
H008;62;Mannelijk;Ambidexter;4;56;left;yes;250;undefined;null;true;focus;yes;786084;Chrome;112.0;Windows;10;undefined;undefined;1920 x 1080;1920 x 1080
H008;62;Mannelijk;Ambidexter;4;57;right;no;300;rightarrow;408;true;focus;yes;787246;Chrome;112.0;Windows;10;undefined;undefined;1920 x 1080;1920 x 1080
H008;62;Mannelijk;Ambidexter;4;58;left;no;300;leftarrow;726;true;focus;yes;788725;Chrome;112.0;Windows;10;undefined;undefined;1920 x 1080;1920 x 1080
H008;62;Mannelijk;Ambidexter;4;59;right;yes;300;undefined;null;true;focus;yes;790732;Chrome;112.0;Windows;10;undefined;undefined;1920 x 1080;1920 x 1080
H008;62;Mannelijk;Ambidexter;4;60;right;no;350;rightarrow;392;true;focus;yes;791878;Chrome;112.0;Windows;10;undefined;undefined;1920 x 1080;1920 x 1080
H008;62;Mannelijk;Ambidexter;4;61;left;yes;350;undefined;null;true;focus;yes;793884;Chrome;112.0;Windows;10;undefined;undefined;1920 x 1080;1920 x 1080
H008;62;Mannelijk;Ambidexter;4;62;left;no;400;leftarrow;384;true;focus;yes;795024;Chrome;112.0;Windows;10;undefined;undefined;1920 x 1080;1920 x 1080
H008;62;Mannelijk;Ambidexter;4;63;left;no;400;leftarrow;452;true;focus;yes;796230;Chrome;112.0;Windows;10;undefined;undefined;1920 x 1080;1920 x 1080
H008;62;Mannelijk;Ambidexter;4;64;right;no;400;rightarrow;502;true;focus;yes;797486;Chrome;112.0;Windows;10;undefined;undefined;1920 x 1080;1920 x 1080
H008;62;Mannelijk;Ambidexter;4;65;left;no;400;leftarrow;549;true;focus;yes;798790;Chrome;112.0;Windows;10;undefined;undefined;1920 x 1080;1920 x 1080
H008;62;Mannelijk;Ambidexter;4;66;right;no;400;rightarrow;939;true;focus;yes;800485;Chrome;112.0;Windows;10;undefined;undefined;1920 x 1080;1920 x 1080
H008;62;Mannelijk;Ambidexter;4;67;left;no;400;leftarrow;565;true;focus;yes;801805;Chrome;112.0;Windows;10;undefined;undefined;1920 x 1080;1920 x 1080
H008;62;Mannelijk;Ambidexter;4;68;left;no;400;leftarrow;580;true;focus;yes;803142;Chrome;112.0;Windows;10;undefined;undefined;1920 x 1080;1920 x 1080
H008;62;Mannelijk;Ambidexter;4;69;left;yes;400;leftarrow;485;false;focus;yes;804382;Chrome;112.0;Windows;10;undefined;undefined;1920 x 1080;1920 x 1080
H008;62;Mannelijk;Ambidexter;4;70;right;no;350;rightarrow;508;true;focus;yes;805645;Chrome;112.0;Windows;10;undefined;undefined;1920 x 1080;1920 x 1080
H008;62;Mannelijk;Ambidexter;4;71;right;yes;350;rightarrow;438;false;focus;yes;806838;Chrome;112.0;Windows;10;undefined;undefined;1920 x 1080;1920 x 1080
H008;62;Mannelijk;Ambidexter;4;72;right;no;300;rightarrow;733;true;focus;yes;808326;Chrome;112.0;Windows;10;undefined;undefined;1920 x 1080;1920 x 1080
H008;62;Mannelijk;Ambidexter;4;73;left;yes;300;leftarrow;524;false;focus;yes;809606;Chrome;112.0;Windows;10;undefined;undefined;1920 x 1080;1920 x 1080
H008;62;Mannelijk;Ambidexter;4;74;right;no;250;rightarrow;612;true;focus;yes;810974;Chrome;112.0;Windows;10;undefined;undefined;1920 x 1080;1920 x 1080
H008;62;Mannelijk;Ambidexter;4;75;right;no;250;rightarrow;653;true;focus;yes;812383;Chrome;112.0;Windows;10;undefined;undefined;1920 x 1080;1920 x 1080
H008;62;Mannelijk;Ambidexter;4;76;left;no;250;leftarrow;508;true;focus;yes;813646;Chrome;112.0;Windows;10;undefined;undefined;1920 x 1080;1920 x 1080
H008;62;Mannelijk;Ambidexter;4;77;left;no;250;leftarrow;458;true;focus;yes;814862;Chrome;112.0;Windows;10;undefined;undefined;1920 x 1080;1920 x 1080
H008;62;Mannelijk;Ambidexter;4;78;right;no;250;rightarrow;621;true;focus;yes;816238;Chrome;112.0;Windows;10;undefined;undefined;1920 x 1080;1920 x 1080
H008;62;Mannelijk;Ambidexter;4;79;right;yes;250;rightarrow;442;false;focus;yes;817445;Chrome;112.0;Windows;10;undefined;undefined;1920 x 1080;1920 x 1080
H008;62;Mannelijk;Ambidexter;4;80;left;no;200;leftarrow;574;true;focus;yes;818774;Chrome;112.0;Windows;10;undefined;undefined;1920 x 1080;1920 x 1080
H008;62;Mannelijk;Ambidexter;4;81;left;no;200;leftarrow;493;true;focus;yes;820022;Chrome;112.0;Windows;10;undefined;undefined;1920 x 1080;1920 x 1080
H008;62;Mannelijk;Ambidexter;4;82;right;yes;200;undefined;null;true;focus;yes;822027;Chrome;112.0;Windows;10;undefined;undefined;1920 x 1080;1920 x 1080
H008;62;Mannelijk;Ambidexter;4;83;right;no;250;rightarrow;441;true;focus;yes;823223;Chrome;112.0;Windows;10;undefined;undefined;1920 x 1080;1920 x 1080
H008;62;Mannelijk;Ambidexter;4;84;right;no;250;rightarrow;382;true;focus;yes;824360;Chrome;112.0;Windows;10;undefined;undefined;1920 x 1080;1920 x 1080
H008;62;Mannelijk;Ambidexter;4;85;left;no;250;leftarrow;461;true;focus;yes;825576;Chrome;112.0;Windows;10;undefined;undefined;1920 x 1080;1920 x 1080
H008;62;Mannelijk;Ambidexter;4;86;right;no;250;rightarrow;645;true;focus;yes;826975;Chrome;112.0;Windows;10;undefined;undefined;1920 x 1080;1920 x 1080
H008;62;Mannelijk;Ambidexter;4;87;left;yes;250;leftarrow;436;false;focus;yes;828165;Chrome;112.0;Windows;10;undefined;undefined;1920 x 1080;1920 x 1080
H008;62;Mannelijk;Ambidexter;4;88;left;no;200;leftarrow;413;true;focus;yes;829333;Chrome;112.0;Windows;10;undefined;undefined;1920 x 1080;1920 x 1080
H008;62;Mannelijk;Ambidexter;4;89;left;no;200;leftarrow;381;true;focus;yes;830469;Chrome;112.0;Windows;10;undefined;undefined;1920 x 1080;1920 x 1080
H008;62;Mannelijk;Ambidexter;4;90;right;no;200;rightarrow;647;true;focus;yes;831870;Chrome;112.0;Windows;10;undefined;undefined;1920 x 1080;1920 x 1080
H008;62;Mannelijk;Ambidexter;4;91;left;no;200;leftarrow;540;true;focus;yes;833165;Chrome;112.0;Windows;10;undefined;undefined;1920 x 1080;1920 x 1080
H008;62;Mannelijk;Ambidexter;4;92;left;yes;200;undefined;null;true;focus;yes;835172;Chrome;112.0;Windows;10;undefined;undefined;1920 x 1080;1920 x 1080
H008;62;Mannelijk;Ambidexter;4;93;right;no;250;rightarrow;409;true;focus;yes;836336;Chrome;112.0;Windows;10;undefined;undefined;1920 x 1080;1920 x 1080
H008;62;Mannelijk;Ambidexter;4;94;left;no;250;leftarrow;481;true;focus;yes;837581;Chrome;112.0;Windows;10;undefined;undefined;1920 x 1080;1920 x 1080
H008;62;Mannelijk;Ambidexter;4;95;right;no;250;rightarrow;613;true;focus;yes;838966;Chrome;112.0;Windows;10;undefined;undefined;1920 x 1080;1920 x 1080
H008;62;Mannelijk;Ambidexter;4;96;right;yes;250;undefined;null;true;focus;yes;840971;Chrome;112.0;Windows;10;undefined;undefined;1920 x 1080;1920 x 1080
H008;62;Mannelijk;Ambidexter;4;97;left;no;300;leftarrow;352;true;focus;yes;842079;Chrome;112.0;Windows;10;undefined;undefined;1920 x 1080;1920 x 1080
H008;62;Mannelijk;Ambidexter;4;98;right;no;300;rightarrow;662;true;focus;yes;843495;Chrome;112.0;Windows;10;undefined;undefined;1920 x 1080;1920 x 1080
H008;62;Mannelijk;Ambidexter;4;99;right;yes;300;undefined;null;true;focus;yes;845501;Chrome;112.0;Windows;10;undefined;undefined;1920 x 1080;1920 x 1080
H008;62;Mannelijk;Ambidexter;4;100;left;yes;350;leftarrow;477;false;focus;yes;846734;Chrome;112.0;Windows;10;undefined;undefined;1920 x 1080;1920 x 1080
H008;62;Mannelijk;Ambidexter;4;101;left;no;300;leftarrow;698;true;focus;yes;848189;Chrome;112.0;Windows;10;undefined;undefined;1920 x 1080;1920 x 1080
H008;62;Mannelijk;Ambidexter;4;102;left;no;300;leftarrow;751;true;focus;yes;849695;Chrome;112.0;Windows;10;undefined;undefined;1920 x 1080;1920 x 1080
H008;62;Mannelijk;Ambidexter;4;103;right;no;300;leftarrow;858;false;focus;yes;851310;Chrome;112.0;Windows;10;undefined;undefined;1920 x 1080;1920 x 1080
H008;62;Mannelijk;Ambidexter;4;104;right;no;300;rightarrow;532;true;focus;yes;852598;Chrome;112.0;Windows;10;undefined;undefined;1920 x 1080;1920 x 1080
H008;62;Mannelijk;Ambidexter;4;105;right;no;300;rightarrow;618;true;focus;yes;853981;Chrome;112.0;Windows;10;undefined;undefined;1920 x 1080;1920 x 1080
H008;62;Mannelijk;Ambidexter;4;106;left;no;300;leftarrow;598;true;focus;yes;855334;Chrome;112.0;Windows;10;undefined;undefined;1920 x 1080;1920 x 1080
H008;62;Mannelijk;Ambidexter;4;107;right;no;300;rightarrow;581;true;focus;yes;856670;Chrome;112.0;Windows;10;undefined;undefined;1920 x 1080;1920 x 1080
H008;62;Mannelijk;Ambidexter;4;108;right;yes;300;undefined;null;true;focus;yes;858678;Chrome;112.0;Windows;10;undefined;undefined;1920 x 1080;1920 x 1080
H008;62;Mannelijk;Ambidexter;4;109;left;no;350;leftarrow;407;true;focus;yes;859839;Chrome;112.0;Windows;10;undefined;undefined;1920 x 1080;1920 x 1080
H008;62;Mannelijk;Ambidexter;4;110;right;no;350;rightarrow;595;true;focus;yes;861190;Chrome;112.0;Windows;10;undefined;undefined;1920 x 1080;1920 x 1080
H008;62;Mannelijk;Ambidexter;4;111;left;yes;350;leftarrow;414;false;focus;yes;862359;Chrome;112.0;Windows;10;undefined;undefined;1920 x 1080;1920 x 1080
H008;62;Mannelijk;Ambidexter;4;112;left;no;300;leftarrow;660;true;focus;yes;863775;Chrome;112.0;Windows;10;undefined;undefined;1920 x 1080;1920 x 1080
H008;62;Mannelijk;Ambidexter;4;113;left;no;300;leftarrow;805;true;focus;yes;865335;Chrome;112.0;Windows;10;undefined;undefined;1920 x 1080;1920 x 1080
H008;62;Mannelijk;Ambidexter;4;114;left;yes;300;undefined;null;true;focus;yes;867342;Chrome;112.0;Windows;10;undefined;undefined;1920 x 1080;1920 x 1080
H008;62;Mannelijk;Ambidexter;4;115;left;no;350;leftarrow;675;true;focus;yes;868773;Chrome;112.0;Windows;10;undefined;undefined;1920 x 1080;1920 x 1080
H008;62;Mannelijk;Ambidexter;4;116;right;no;350;rightarrow;940;true;focus;yes;870470;Chrome;112.0;Windows;10;undefined;undefined;1920 x 1080;1920 x 1080
H008;62;Mannelijk;Ambidexter;4;117;right;yes;350;undefined;null;true;focus;yes;872486;Chrome;112.0;Windows;10;undefined;undefined;1920 x 1080;1920 x 1080
H008;62;Mannelijk;Ambidexter;4;118;left;no;400;leftarrow;414;true;focus;yes;873655;Chrome;112.0;Windows;10;undefined;undefined;1920 x 1080;1920 x 1080
H008;62;Mannelijk;Ambidexter;4;119;right;no;400;rightarrow;681;true;focus;yes;875093;Chrome;112.0;Windows;10;undefined;undefined;1920 x 1080;1920 x 1080
H008;62;Mannelijk;Ambidexter;4;120;right;no;400;rightarrow;870;true;focus;yes;876718;Chrome;112.0;Windows;10;undefined;undefined;1920 x 1080;1920 x 1080
H008;62;Mannelijk;Ambidexter;4;121;left;no;400;leftarrow;708;true;focus;yes;878181;Chrome;112.0;Windows;10;undefined;undefined;1920 x 1080;1920 x 1080
H008;62;Mannelijk;Ambidexter;4;122;left;no;400;leftarrow;476;true;focus;yes;879414;Chrome;112.0;Windows;10;undefined;undefined;1920 x 1080;1920 x 1080
H008;62;Mannelijk;Ambidexter;4;123;left;no;400;leftarrow;640;true;focus;yes;880821;Chrome;112.0;Windows;10;undefined;undefined;1920 x 1080;1920 x 1080
H008;62;Mannelijk;Ambidexter;4;124;left;yes;400;leftarrow;526;false;focus;yes;882102;Chrome;112.0;Windows;10;undefined;undefined;1920 x 1080;1920 x 1080
H008;62;Mannelijk;Ambidexter;4;125;right;no;350;rightarrow;467;true;focus;yes;883325;Chrome;112.0;Windows;10;undefined;undefined;1920 x 1080;1920 x 1080
H008;62;Mannelijk;Ambidexter;4;126;right;no;350;rightarrow;460;true;focus;yes;884541;Chrome;112.0;Windows;10;undefined;undefined;1920 x 1080;1920 x 1080
H008;62;Mannelijk;Ambidexter;4;127;right;no;350;rightarrow;721;true;focus;yes;886016;Chrome;112.0;Windows;10;undefined;undefined;1920 x 1080;1920 x 1080
H008;62;Mannelijk;Ambidexter;4;128;right;yes;350;undefined;null;true;focus;yes;888022;Chrome;112.0;Windows;10;undefined;undefined;1920 x 1080;1920 x 1080
H008;62;Mannelijk;Ambidexter;5;1;right;no;400;rightarrow;434;true;focus;yes;907517;Chrome;112.0;Windows;10;undefined;undefined;1920 x 1080;1920 x 1080
H008;62;Mannelijk;Ambidexter;5;2;left;no;400;leftarrow;592;true;focus;yes;908862;Chrome;112.0;Windows;10;undefined;undefined;1920 x 1080;1920 x 1080
H008;62;Mannelijk;Ambidexter;5;3;left;no;400;leftarrow;789;true;focus;yes;910405;Chrome;112.0;Windows;10;undefined;undefined;1920 x 1080;1920 x 1080
H008;62;Mannelijk;Ambidexter;5;4;left;yes;400;leftarrow;684;false;focus;yes;911845;Chrome;112.0;Windows;10;undefined;undefined;1920 x 1080;1920 x 1080
H008;62;Mannelijk;Ambidexter;5;5;left;no;350;leftarrow;590;true;focus;yes;913189;Chrome;112.0;Windows;10;undefined;undefined;1920 x 1080;1920 x 1080
H008;62;Mannelijk;Ambidexter;5;6;right;no;350;rightarrow;494;true;focus;yes;914437;Chrome;112.0;Windows;10;undefined;undefined;1920 x 1080;1920 x 1080
H008;62;Mannelijk;Ambidexter;5;7;right;no;350;rightarrow;542;true;focus;yes;915750;Chrome;112.0;Windows;10;undefined;undefined;1920 x 1080;1920 x 1080
H008;62;Mannelijk;Ambidexter;5;8;right;yes;350;undefined;null;true;focus;yes;917756;Chrome;112.0;Windows;10;undefined;undefined;1920 x 1080;1920 x 1080
H008;62;Mannelijk;Ambidexter;5;9;left;no;400;leftarrow;398;true;focus;yes;918909;Chrome;112.0;Windows;10;undefined;undefined;1920 x 1080;1920 x 1080
H008;62;Mannelijk;Ambidexter;5;10;left;yes;400;leftarrow;435;false;focus;yes;920109;Chrome;112.0;Windows;10;undefined;undefined;1920 x 1080;1920 x 1080
H008;62;Mannelijk;Ambidexter;5;11;right;no;350;rightarrow;550;true;focus;yes;921413;Chrome;112.0;Windows;10;undefined;undefined;1920 x 1080;1920 x 1080
H008;62;Mannelijk;Ambidexter;5;12;right;yes;350;rightarrow;558;false;focus;yes;922725;Chrome;112.0;Windows;10;undefined;undefined;1920 x 1080;1920 x 1080
H008;62;Mannelijk;Ambidexter;5;13;right;no;300;rightarrow;485;true;focus;yes;923965;Chrome;112.0;Windows;10;undefined;undefined;1920 x 1080;1920 x 1080
H008;62;Mannelijk;Ambidexter;5;14;left;no;300;leftarrow;550;true;focus;yes;925270;Chrome;112.0;Windows;10;undefined;undefined;1920 x 1080;1920 x 1080
H008;62;Mannelijk;Ambidexter;5;15;left;no;300;leftarrow;469;true;focus;yes;926494;Chrome;112.0;Windows;10;undefined;undefined;1920 x 1080;1920 x 1080
H008;62;Mannelijk;Ambidexter;5;16;right;no;300;rightarrow;501;true;focus;yes;927749;Chrome;112.0;Windows;10;undefined;undefined;1920 x 1080;1920 x 1080
H008;62;Mannelijk;Ambidexter;5;17;left;no;300;leftarrow;525;true;focus;yes;929030;Chrome;112.0;Windows;10;undefined;undefined;1920 x 1080;1920 x 1080
H008;62;Mannelijk;Ambidexter;5;18;left;no;300;leftarrow;460;true;focus;yes;930245;Chrome;112.0;Windows;10;undefined;undefined;1920 x 1080;1920 x 1080
H008;62;Mannelijk;Ambidexter;5;19;right;yes;300;rightarrow;490;false;focus;yes;931502;Chrome;112.0;Windows;10;undefined;undefined;1920 x 1080;1920 x 1080
H008;62;Mannelijk;Ambidexter;5;20;left;yes;250;undefined;null;true;focus;yes;933507;Chrome;112.0;Windows;10;undefined;undefined;1920 x 1080;1920 x 1080
H008;62;Mannelijk;Ambidexter;5;21;right;no;300;rightarrow;543;true;focus;yes;934805;Chrome;112.0;Windows;10;undefined;undefined;1920 x 1080;1920 x 1080
H008;62;Mannelijk;Ambidexter;5;22;left;no;300;leftarrow;414;true;focus;yes;935975;Chrome;112.0;Windows;10;undefined;undefined;1920 x 1080;1920 x 1080
H008;62;Mannelijk;Ambidexter;5;23;right;no;300;rightarrow;475;true;focus;yes;937205;Chrome;112.0;Windows;10;undefined;undefined;1920 x 1080;1920 x 1080
H008;62;Mannelijk;Ambidexter;5;24;right;no;300;rightarrow;581;true;focus;yes;938542;Chrome;112.0;Windows;10;undefined;undefined;1920 x 1080;1920 x 1080
H008;62;Mannelijk;Ambidexter;5;25;left;no;300;leftarrow;750;true;focus;yes;940046;Chrome;112.0;Windows;10;undefined;undefined;1920 x 1080;1920 x 1080
H008;62;Mannelijk;Ambidexter;5;26;right;no;300;rightarrow;493;true;focus;yes;941294;Chrome;112.0;Windows;10;undefined;undefined;1920 x 1080;1920 x 1080
H008;62;Mannelijk;Ambidexter;5;27;right;no;300;rightarrow;636;true;focus;yes;942686;Chrome;112.0;Windows;10;undefined;undefined;1920 x 1080;1920 x 1080
H008;62;Mannelijk;Ambidexter;5;28;left;no;300;leftarrow;605;true;focus;yes;944045;Chrome;112.0;Windows;10;undefined;undefined;1920 x 1080;1920 x 1080
H008;62;Mannelijk;Ambidexter;5;29;left;yes;300;leftarrow;495;false;focus;yes;945295;Chrome;112.0;Windows;10;undefined;undefined;1920 x 1080;1920 x 1080
H008;62;Mannelijk;Ambidexter;5;30;right;yes;250;undefined;null;true;focus;yes;947301;Chrome;112.0;Windows;10;undefined;undefined;1920 x 1080;1920 x 1080
H008;62;Mannelijk;Ambidexter;5;31;left;no;300;leftarrow;463;true;focus;yes;948520;Chrome;112.0;Windows;10;undefined;undefined;1920 x 1080;1920 x 1080
H008;62;Mannelijk;Ambidexter;5;32;right;no;300;rightarrow;511;true;focus;yes;949798;Chrome;112.0;Windows;10;undefined;undefined;1920 x 1080;1920 x 1080
H008;62;Mannelijk;Ambidexter;5;33;left;yes;300;leftarrow;427;false;focus;yes;950981;Chrome;112.0;Windows;10;undefined;undefined;1920 x 1080;1920 x 1080
H008;62;Mannelijk;Ambidexter;5;34;left;no;250;leftarrow;533;true;focus;yes;952269;Chrome;112.0;Windows;10;undefined;undefined;1920 x 1080;1920 x 1080
H008;62;Mannelijk;Ambidexter;5;35;right;yes;250;undefined;null;true;focus;yes;954274;Chrome;112.0;Windows;10;undefined;undefined;1920 x 1080;1920 x 1080
H008;62;Mannelijk;Ambidexter;5;36;left;no;300;leftarrow;432;true;focus;yes;955461;Chrome;112.0;Windows;10;undefined;undefined;1920 x 1080;1920 x 1080
H008;62;Mannelijk;Ambidexter;5;37;left;no;300;leftarrow;517;true;focus;yes;956733;Chrome;112.0;Windows;10;undefined;undefined;1920 x 1080;1920 x 1080
H008;62;Mannelijk;Ambidexter;5;38;right;no;300;rightarrow;477;true;focus;yes;957966;Chrome;112.0;Windows;10;undefined;undefined;1920 x 1080;1920 x 1080
H008;62;Mannelijk;Ambidexter;5;39;right;no;300;rightarrow;444;true;focus;yes;959166;Chrome;112.0;Windows;10;undefined;undefined;1920 x 1080;1920 x 1080
H008;62;Mannelijk;Ambidexter;5;40;right;no;300;rightarrow;460;true;focus;yes;960381;Chrome;112.0;Windows;10;undefined;undefined;1920 x 1080;1920 x 1080
H008;62;Mannelijk;Ambidexter;5;41;right;yes;300;rightarrow;488;false;focus;yes;961623;Chrome;112.0;Windows;10;undefined;undefined;1920 x 1080;1920 x 1080
H008;62;Mannelijk;Ambidexter;5;42;left;no;250;leftarrow;805;true;focus;yes;963182;Chrome;112.0;Windows;10;undefined;undefined;1920 x 1080;1920 x 1080
H008;62;Mannelijk;Ambidexter;5;43;left;no;250;leftarrow;748;true;focus;yes;964685;Chrome;112.0;Windows;10;undefined;undefined;1920 x 1080;1920 x 1080
H008;62;Mannelijk;Ambidexter;5;44;left;no;250;leftarrow;942;true;focus;yes;966381;Chrome;112.0;Windows;10;undefined;undefined;1920 x 1080;1920 x 1080
H008;62;Mannelijk;Ambidexter;5;45;right;no;250;rightarrow;615;true;focus;yes;967750;Chrome;112.0;Windows;10;undefined;undefined;1920 x 1080;1920 x 1080
H008;62;Mannelijk;Ambidexter;5;46;right;no;250;rightarrow;780;true;focus;yes;969286;Chrome;112.0;Windows;10;undefined;undefined;1920 x 1080;1920 x 1080
H008;62;Mannelijk;Ambidexter;5;47;right;no;250;rightarrow;477;true;focus;yes;970519;Chrome;112.0;Windows;10;undefined;undefined;1920 x 1080;1920 x 1080
H008;62;Mannelijk;Ambidexter;5;48;left;yes;250;undefined;null;true;focus;yes;972549;Chrome;112.0;Windows;10;undefined;undefined;1920 x 1080;1920 x 1080
H008;62;Mannelijk;Ambidexter;5;49;left;no;300;leftarrow;501;true;focus;yes;973805;Chrome;112.0;Windows;10;undefined;undefined;1920 x 1080;1920 x 1080
H008;62;Mannelijk;Ambidexter;5;50;left;no;300;leftarrow;501;true;focus;yes;975061;Chrome;112.0;Windows;10;undefined;undefined;1920 x 1080;1920 x 1080
H008;62;Mannelijk;Ambidexter;5;51;right;no;300;rightarrow;542;true;focus;yes;976357;Chrome;112.0;Windows;10;undefined;undefined;1920 x 1080;1920 x 1080
H008;62;Mannelijk;Ambidexter;5;52;left;yes;300;leftarrow;485;false;focus;yes;977597;Chrome;112.0;Windows;10;undefined;undefined;1920 x 1080;1920 x 1080
H008;62;Mannelijk;Ambidexter;5;53;left;no;250;leftarrow;525;true;focus;yes;978877;Chrome;112.0;Windows;10;undefined;undefined;1920 x 1080;1920 x 1080
H008;62;Mannelijk;Ambidexter;5;54;right;yes;250;undefined;null;true;focus;yes;980882;Chrome;112.0;Windows;10;undefined;undefined;1920 x 1080;1920 x 1080
H008;62;Mannelijk;Ambidexter;5;55;right;no;300;rightarrow;511;true;focus;yes;982149;Chrome;112.0;Windows;10;undefined;undefined;1920 x 1080;1920 x 1080
H008;62;Mannelijk;Ambidexter;5;56;right;no;300;rightarrow;515;true;focus;yes;983429;Chrome;112.0;Windows;10;undefined;undefined;1920 x 1080;1920 x 1080
H008;62;Mannelijk;Ambidexter;5;57;left;yes;300;leftarrow;541;false;focus;yes;984725;Chrome;112.0;Windows;10;undefined;undefined;1920 x 1080;1920 x 1080
H008;62;Mannelijk;Ambidexter;5;58;right;no;250;rightarrow;879;true;focus;yes;986358;Chrome;112.0;Windows;10;undefined;undefined;1920 x 1080;1920 x 1080
H008;62;Mannelijk;Ambidexter;5;59;left;no;250;leftarrow;516;true;focus;yes;987629;Chrome;112.0;Windows;10;undefined;undefined;1920 x 1080;1920 x 1080
H008;62;Mannelijk;Ambidexter;5;60;left;no;250;leftarrow;481;true;focus;yes;988877;Chrome;112.0;Windows;10;undefined;undefined;1920 x 1080;1920 x 1080
H008;62;Mannelijk;Ambidexter;5;61;right;yes;250;undefined;null;true;focus;yes;990883;Chrome;112.0;Windows;10;undefined;undefined;1920 x 1080;1920 x 1080
H008;62;Mannelijk;Ambidexter;5;62;right;no;300;rightarrow;575;true;focus;yes;992213;Chrome;112.0;Windows;10;undefined;undefined;1920 x 1080;1920 x 1080
H008;62;Mannelijk;Ambidexter;5;63;right;no;300;rightarrow;659;true;focus;yes;993629;Chrome;112.0;Windows;10;undefined;undefined;1920 x 1080;1920 x 1080
H008;62;Mannelijk;Ambidexter;5;64;left;no;300;leftarrow;598;true;focus;yes;994980;Chrome;112.0;Windows;10;undefined;undefined;1920 x 1080;1920 x 1080
H008;62;Mannelijk;Ambidexter;5;65;right;no;300;rightarrow;693;true;focus;yes;996429;Chrome;112.0;Windows;10;undefined;undefined;1920 x 1080;1920 x 1080
H008;62;Mannelijk;Ambidexter;5;66;right;no;300;rightarrow;494;true;focus;yes;997677;Chrome;112.0;Windows;10;undefined;undefined;1920 x 1080;1920 x 1080
H008;62;Mannelijk;Ambidexter;5;67;left;no;300;leftarrow;637;true;focus;yes;999069;Chrome;112.0;Windows;10;undefined;undefined;1920 x 1080;1920 x 1080
H008;62;Mannelijk;Ambidexter;5;68;left;no;300;leftarrow;470;true;focus;yes;1000293;Chrome;112.0;Windows;10;undefined;undefined;1920 x 1080;1920 x 1080
H008;62;Mannelijk;Ambidexter;5;69;left;yes;300;leftarrow;446;false;focus;yes;1001494;Chrome;112.0;Windows;10;undefined;undefined;1920 x 1080;1920 x 1080
H008;62;Mannelijk;Ambidexter;5;70;left;no;250;leftarrow;654;true;focus;yes;1002903;Chrome;112.0;Windows;10;undefined;undefined;1920 x 1080;1920 x 1080
H008;62;Mannelijk;Ambidexter;5;71;right;no;250;rightarrow;611;true;focus;yes;1004268;Chrome;112.0;Windows;10;undefined;undefined;1920 x 1080;1920 x 1080
H008;62;Mannelijk;Ambidexter;5;72;right;yes;250;undefined;null;true;focus;yes;1006281;Chrome;112.0;Windows;10;undefined;undefined;1920 x 1080;1920 x 1080
H008;62;Mannelijk;Ambidexter;5;73;left;no;300;leftarrow;418;true;focus;yes;1007453;Chrome;112.0;Windows;10;undefined;undefined;1920 x 1080;1920 x 1080
H008;62;Mannelijk;Ambidexter;5;74;right;yes;300;rightarrow;478;false;focus;yes;1008685;Chrome;112.0;Windows;10;undefined;undefined;1920 x 1080;1920 x 1080
H008;62;Mannelijk;Ambidexter;5;75;right;no;250;rightarrow;822;true;focus;yes;1010262;Chrome;112.0;Windows;10;undefined;undefined;1920 x 1080;1920 x 1080
H008;62;Mannelijk;Ambidexter;5;76;left;no;250;leftarrow;420;true;focus;yes;1011438;Chrome;112.0;Windows;10;undefined;undefined;1920 x 1080;1920 x 1080
H008;62;Mannelijk;Ambidexter;5;77;right;no;250;rightarrow;695;true;focus;yes;1012901;Chrome;112.0;Windows;10;undefined;undefined;1920 x 1080;1920 x 1080
H008;62;Mannelijk;Ambidexter;5;78;right;no;250;rightarrow;558;true;focus;yes;1014213;Chrome;112.0;Windows;10;undefined;undefined;1920 x 1080;1920 x 1080
H008;62;Mannelijk;Ambidexter;5;79;left;yes;250;undefined;null;true;focus;yes;1016219;Chrome;112.0;Windows;10;undefined;undefined;1920 x 1080;1920 x 1080
H008;62;Mannelijk;Ambidexter;5;80;left;no;300;leftarrow;404;true;focus;yes;1017376;Chrome;112.0;Windows;10;undefined;undefined;1920 x 1080;1920 x 1080
H008;62;Mannelijk;Ambidexter;5;81;right;no;300;rightarrow;922;true;focus;yes;1019053;Chrome;112.0;Windows;10;undefined;undefined;1920 x 1080;1920 x 1080
H008;62;Mannelijk;Ambidexter;5;82;left;yes;300;undefined;null;true;focus;yes;1021057;Chrome;112.0;Windows;10;undefined;undefined;1920 x 1080;1920 x 1080
H008;62;Mannelijk;Ambidexter;5;83;left;no;350;leftarrow;393;true;focus;yes;1022205;Chrome;112.0;Windows;10;undefined;undefined;1920 x 1080;1920 x 1080
H008;62;Mannelijk;Ambidexter;5;84;left;no;350;leftarrow;764;true;focus;yes;1023725;Chrome;112.0;Windows;10;undefined;undefined;1920 x 1080;1920 x 1080
H008;62;Mannelijk;Ambidexter;5;85;right;yes;350;undefined;null;true;focus;yes;1025731;Chrome;112.0;Windows;10;undefined;undefined;1920 x 1080;1920 x 1080
H008;62;Mannelijk;Ambidexter;5;86;right;no;400;rightarrow;447;true;focus;yes;1026933;Chrome;112.0;Windows;10;undefined;undefined;1920 x 1080;1920 x 1080
H008;62;Mannelijk;Ambidexter;5;87;left;no;400;leftarrow;797;true;focus;yes;1028485;Chrome;112.0;Windows;10;undefined;undefined;1920 x 1080;1920 x 1080
H008;62;Mannelijk;Ambidexter;5;88;right;no;400;rightarrow;743;true;focus;yes;1029981;Chrome;112.0;Windows;10;undefined;undefined;1920 x 1080;1920 x 1080
H008;62;Mannelijk;Ambidexter;5;89;left;no;400;leftarrow;668;true;focus;yes;1031405;Chrome;112.0;Windows;10;undefined;undefined;1920 x 1080;1920 x 1080
H008;62;Mannelijk;Ambidexter;5;90;right;no;400;rightarrow;805;true;focus;yes;1032965;Chrome;112.0;Windows;10;undefined;undefined;1920 x 1080;1920 x 1080
H008;62;Mannelijk;Ambidexter;5;91;right;no;400;rightarrow;846;true;focus;yes;1034565;Chrome;112.0;Windows;10;undefined;undefined;1920 x 1080;1920 x 1080
H008;62;Mannelijk;Ambidexter;5;92;right;no;400;rightarrow;766;true;focus;yes;1036085;Chrome;112.0;Windows;10;undefined;undefined;1920 x 1080;1920 x 1080
H008;62;Mannelijk;Ambidexter;5;93;left;yes;400;undefined;null;true;focus;yes;1038092;Chrome;112.0;Windows;10;undefined;undefined;1920 x 1080;1920 x 1080
H008;62;Mannelijk;Ambidexter;5;94;right;yes;450;rightarrow;405;false;focus;yes;1039253;Chrome;112.0;Windows;10;undefined;undefined;1920 x 1080;1920 x 1080
H008;62;Mannelijk;Ambidexter;5;95;left;no;400;leftarrow;845;true;focus;yes;1040854;Chrome;112.0;Windows;10;undefined;undefined;1920 x 1080;1920 x 1080
H008;62;Mannelijk;Ambidexter;5;96;left;no;400;leftarrow;670;true;focus;yes;1042278;Chrome;112.0;Windows;10;undefined;undefined;1920 x 1080;1920 x 1080
H008;62;Mannelijk;Ambidexter;5;97;right;no;400;rightarrow;846;true;focus;yes;1043878;Chrome;112.0;Windows;10;undefined;undefined;1920 x 1080;1920 x 1080
H008;62;Mannelijk;Ambidexter;5;98;left;no;400;leftarrow;853;true;focus;yes;1045501;Chrome;112.0;Windows;10;undefined;undefined;1920 x 1080;1920 x 1080
H008;62;Mannelijk;Ambidexter;5;99;left;yes;400;undefined;null;true;focus;yes;1047507;Chrome;112.0;Windows;10;undefined;undefined;1920 x 1080;1920 x 1080
H008;62;Mannelijk;Ambidexter;5;100;right;no;450;rightarrow;398;true;focus;yes;1048662;Chrome;112.0;Windows;10;undefined;undefined;1920 x 1080;1920 x 1080
H008;62;Mannelijk;Ambidexter;5;101;right;no;450;rightarrow;788;true;focus;yes;1050206;Chrome;112.0;Windows;10;undefined;undefined;1920 x 1080;1920 x 1080
H008;62;Mannelijk;Ambidexter;5;102;right;yes;450;undefined;null;true;focus;yes;1052212;Chrome;112.0;Windows;10;undefined;undefined;1920 x 1080;1920 x 1080
H008;62;Mannelijk;Ambidexter;5;103;left;no;500;leftarrow;431;true;focus;yes;1053397;Chrome;112.0;Windows;10;undefined;undefined;1920 x 1080;1920 x 1080
H008;62;Mannelijk;Ambidexter;5;104;left;no;500;leftarrow;729;true;focus;yes;1054895;Chrome;112.0;Windows;10;undefined;undefined;1920 x 1080;1920 x 1080
H008;62;Mannelijk;Ambidexter;5;105;left;no;500;leftarrow;749;true;focus;yes;1056398;Chrome;112.0;Windows;10;undefined;undefined;1920 x 1080;1920 x 1080
H008;62;Mannelijk;Ambidexter;5;106;right;yes;500;undefined;null;true;focus;yes;1058407;Chrome;112.0;Windows;10;undefined;undefined;1920 x 1080;1920 x 1080
H008;62;Mannelijk;Ambidexter;5;107;right;no;550;rightarrow;388;true;focus;yes;1059549;Chrome;112.0;Windows;10;undefined;undefined;1920 x 1080;1920 x 1080
H008;62;Mannelijk;Ambidexter;5;108;right;no;550;rightarrow;591;true;focus;yes;1060895;Chrome;112.0;Windows;10;undefined;undefined;1920 x 1080;1920 x 1080
H008;62;Mannelijk;Ambidexter;5;109;left;no;550;leftarrow;609;true;focus;yes;1062261;Chrome;112.0;Windows;10;undefined;undefined;1920 x 1080;1920 x 1080
H008;62;Mannelijk;Ambidexter;5;110;left;no;550;leftarrow;461;true;focus;yes;1063477;Chrome;112.0;Windows;10;undefined;undefined;1920 x 1080;1920 x 1080
H008;62;Mannelijk;Ambidexter;5;111;left;yes;550;leftarrow;488;false;focus;yes;1064719;Chrome;112.0;Windows;10;undefined;undefined;1920 x 1080;1920 x 1080
H008;62;Mannelijk;Ambidexter;5;112;right;no;500;rightarrow;684;true;focus;yes;1066166;Chrome;112.0;Windows;10;undefined;undefined;1920 x 1080;1920 x 1080
H008;62;Mannelijk;Ambidexter;5;113;left;no;500;leftarrow;707;true;focus;yes;1067629;Chrome;112.0;Windows;10;undefined;undefined;1920 x 1080;1920 x 1080
H008;62;Mannelijk;Ambidexter;5;114;left;no;500;leftarrow;445;true;focus;yes;1068829;Chrome;112.0;Windows;10;undefined;undefined;1920 x 1080;1920 x 1080
H008;62;Mannelijk;Ambidexter;5;115;left;yes;500;leftarrow;430;false;focus;yes;1070014;Chrome;112.0;Windows;10;undefined;undefined;1920 x 1080;1920 x 1080
H008;62;Mannelijk;Ambidexter;5;116;right;no;450;rightarrow;707;true;focus;yes;1071477;Chrome;112.0;Windows;10;undefined;undefined;1920 x 1080;1920 x 1080
H008;62;Mannelijk;Ambidexter;5;117;right;no;450;rightarrow;561;true;focus;yes;1072805;Chrome;112.0;Windows;10;undefined;undefined;1920 x 1080;1920 x 1080
H008;62;Mannelijk;Ambidexter;5;118;left;no;450;leftarrow;685;true;focus;yes;1074245;Chrome;112.0;Windows;10;undefined;undefined;1920 x 1080;1920 x 1080
H008;62;Mannelijk;Ambidexter;5;119;right;yes;450;rightarrow;507;false;focus;yes;1075509;Chrome;112.0;Windows;10;undefined;undefined;1920 x 1080;1920 x 1080
H008;62;Mannelijk;Ambidexter;5;120;right;no;400;rightarrow;685;true;focus;yes;1076949;Chrome;112.0;Windows;10;undefined;undefined;1920 x 1080;1920 x 1080
H008;62;Mannelijk;Ambidexter;5;121;right;no;400;rightarrow;959;true;focus;yes;1078664;Chrome;112.0;Windows;10;undefined;undefined;1920 x 1080;1920 x 1080
H008;62;Mannelijk;Ambidexter;5;122;right;no;400;rightarrow;1027;true;focus;yes;1080446;Chrome;112.0;Windows;10;undefined;undefined;1920 x 1080;1920 x 1080
H008;62;Mannelijk;Ambidexter;5;123;left;no;400;leftarrow;1054;true;focus;yes;1082255;Chrome;112.0;Windows;10;undefined;undefined;1920 x 1080;1920 x 1080
H008;62;Mannelijk;Ambidexter;5;124;right;no;400;rightarrow;987;true;focus;yes;1083999;Chrome;112.0;Windows;10;undefined;undefined;1920 x 1080;1920 x 1080
H008;62;Mannelijk;Ambidexter;5;125;left;no;400;leftarrow;685;true;focus;yes;1085438;Chrome;112.0;Windows;10;undefined;undefined;1920 x 1080;1920 x 1080
H008;62;Mannelijk;Ambidexter;5;126;right;yes;400;undefined;null;true;focus;yes;1087443;Chrome;112.0;Windows;10;undefined;undefined;1920 x 1080;1920 x 1080
H008;62;Mannelijk;Ambidexter;5;127;left;yes;450;leftarrow;440;false;focus;yes;1088639;Chrome;112.0;Windows;10;undefined;undefined;1920 x 1080;1920 x 1080
H008;62;Mannelijk;Ambidexter;5;128;left;no;400;leftarrow;644;true;focus;yes;1090038;Chrome;112.0;Windows;10;undefined;undefined;1920 x 1080;1920 x 1080
H008;62;Mannelijk;Ambidexter;6;1;right;no;400;rightarrow;451;true;focus;yes;1109070;Chrome;112.0;Windows;10;undefined;undefined;1920 x 1080;1920 x 1080
H008;62;Mannelijk;Ambidexter;6;2;left;no;400;leftarrow;676;true;focus;yes;1110502;Chrome;112.0;Windows;10;undefined;undefined;1920 x 1080;1920 x 1080
H008;62;Mannelijk;Ambidexter;6;3;right;no;400;rightarrow;1148;true;focus;yes;1112406;Chrome;112.0;Windows;10;undefined;undefined;1920 x 1080;1920 x 1080
H008;62;Mannelijk;Ambidexter;6;4;left;yes;400;undefined;null;true;focus;yes;1114411;Chrome;112.0;Windows;10;undefined;undefined;1920 x 1080;1920 x 1080
H008;62;Mannelijk;Ambidexter;6;5;left;no;450;leftarrow;413;true;focus;yes;1115581;Chrome;112.0;Windows;10;undefined;undefined;1920 x 1080;1920 x 1080
