participantID;age;gender;handedness;block_i;trial_i;stim;signal;SSD;response;rt;correct;focus;Fullscreen;time_elapsed;browser_name;browser_version;os_name;os_version;tablet;mobile;screen_resolution;window_resolution
H011;28;Mannelijk;Links;0;1;left;no;200;leftarrow;500;true;focus;yes;268056;Chrome;112.0;Windows;10;undefined;undefined;1564 x 1043;1564 x 1043
H011;28;Mannelijk;Links;0;2;left;no;200;leftarrow;418;true;focus;yes;269992;Chrome;112.0;Windows;10;undefined;undefined;1564 x 1043;1564 x 1043
H011;28;Mannelijk;Links;0;3;right;no;200;rightarrow;335;true;focus;yes;271862;Chrome;112.0;Windows;10;undefined;undefined;1564 x 1043;1564 x 1043
H011;28;Mannelijk;Links;0;4;right;no;200;rightarrow;438;true;focus;yes;273830;Chrome;112.0;Windows;10;undefined;undefined;1564 x 1043;1564 x 1043
H011;28;Mannelijk;Links;0;5;right;yes;200;rightarrow;414;false;focus;yes;275776;Chrome;112.0;Windows;10;undefined;undefined;1564 x 1043;1564 x 1043
H011;28;Mannelijk;Links;0;6;right;no;150;rightarrow;417;true;focus;yes;277728;Chrome;112.0;Windows;10;undefined;undefined;1564 x 1043;1564 x 1043
H011;28;Mannelijk;Links;0;7;left;yes;150;undefined;null;true;focus;yes;280528;Chrome;112.0;Windows;10;undefined;undefined;1564 x 1043;1564 x 1043
H011;28;Mannelijk;Links;0;8;left;no;200;leftarrow;366;true;focus;yes;282417;Chrome;112.0;Windows;10;undefined;undefined;1564 x 1043;1564 x 1043
H011;28;Mannelijk;Links;1;1;left;yes;200;leftarrow;319;false;focus;yes;303320;Chrome;112.0;Windows;10;undefined;undefined;1564 x 1043;1564 x 1043
H011;28;Mannelijk;Links;1;2;right;no;150;rightarrow;367;true;focus;yes;304448;Chrome;112.0;Windows;10;undefined;undefined;1564 x 1043;1564 x 1043
H011;28;Mannelijk;Links;1;3;left;no;150;leftarrow;272;true;focus;yes;305488;Chrome;112.0;Windows;10;undefined;undefined;1564 x 1043;1564 x 1043
H011;28;Mannelijk;Links;1;4;right;yes;150;rightarrow;288;false;focus;yes;306553;Chrome;112.0;Windows;10;undefined;undefined;1564 x 1043;1564 x 1043
H011;28;Mannelijk;Links;1;5;left;no;100;leftarrow;365;true;focus;yes;307696;Chrome;112.0;Windows;10;undefined;undefined;1564 x 1043;1564 x 1043
H011;28;Mannelijk;Links;1;6;right;no;100;rightarrow;265;true;focus;yes;308732;Chrome;112.0;Windows;10;undefined;undefined;1564 x 1043;1564 x 1043
H011;28;Mannelijk;Links;1;7;right;no;100;rightarrow;443;true;focus;yes;309960;Chrome;112.0;Windows;10;undefined;undefined;1564 x 1043;1564 x 1043
H011;28;Mannelijk;Links;1;8;left;no;100;leftarrow;327;true;focus;yes;311062;Chrome;112.0;Windows;10;undefined;undefined;1564 x 1043;1564 x 1043
H011;28;Mannelijk;Links;1;9;right;no;100;rightarrow;248;true;focus;yes;312072;Chrome;112.0;Windows;10;undefined;undefined;1564 x 1043;1564 x 1043
H011;28;Mannelijk;Links;1;10;right;no;100;leftarrow;404;false;focus;yes;313256;Chrome;112.0;Windows;10;undefined;undefined;1564 x 1043;1564 x 1043
H011;28;Mannelijk;Links;1;11;left;no;100;leftarrow;339;true;focus;yes;314376;Chrome;112.0;Windows;10;undefined;undefined;1564 x 1043;1564 x 1043
H011;28;Mannelijk;Links;1;12;left;no;100;leftarrow;420;true;focus;yes;315561;Chrome;112.0;Windows;10;undefined;undefined;1564 x 1043;1564 x 1043
H011;28;Mannelijk;Links;1;13;left;yes;100;undefined;null;true;focus;yes;317601;Chrome;112.0;Windows;10;undefined;undefined;1564 x 1043;1564 x 1043
H011;28;Mannelijk;Links;1;14;right;yes;150;rightarrow;287;false;focus;yes;318661;Chrome;112.0;Windows;10;undefined;undefined;1564 x 1043;1564 x 1043
H011;28;Mannelijk;Links;1;15;left;no;100;leftarrow;345;true;focus;yes;319784;Chrome;112.0;Windows;10;undefined;undefined;1564 x 1043;1564 x 1043
H011;28;Mannelijk;Links;1;16;right;no;100;rightarrow;457;true;focus;yes;321016;Chrome;112.0;Windows;10;undefined;undefined;1564 x 1043;1564 x 1043
H011;28;Mannelijk;Links;1;17;right;no;100;rightarrow;510;true;focus;yes;322302;Chrome;112.0;Windows;10;undefined;undefined;1564 x 1043;1564 x 1043
H011;28;Mannelijk;Links;1;18;left;no;100;leftarrow;482;true;focus;yes;323542;Chrome;112.0;Windows;10;undefined;undefined;1564 x 1043;1564 x 1043
H011;28;Mannelijk;Links;1;19;left;no;100;leftarrow;425;true;focus;yes;324735;Chrome;112.0;Windows;10;undefined;undefined;1564 x 1043;1564 x 1043
H011;28;Mannelijk;Links;1;20;left;no;100;leftarrow;551;true;focus;yes;326063;Chrome;112.0;Windows;10;undefined;undefined;1564 x 1043;1564 x 1043
H011;28;Mannelijk;Links;1;21;right;no;100;rightarrow;409;true;focus;yes;327247;Chrome;112.0;Windows;10;undefined;undefined;1564 x 1043;1564 x 1043
H011;28;Mannelijk;Links;1;22;left;yes;100;undefined;null;true;focus;yes;329274;Chrome;112.0;Windows;10;undefined;undefined;1564 x 1043;1564 x 1043
H011;28;Mannelijk;Links;1;23;right;yes;150;rightarrow;402;false;focus;yes;330451;Chrome;112.0;Windows;10;undefined;undefined;1564 x 1043;1564 x 1043
H011;28;Mannelijk;Links;1;24;right;no;100;rightarrow;545;true;focus;yes;331762;Chrome;112.0;Windows;10;undefined;undefined;1564 x 1043;1564 x 1043
H011;28;Mannelijk;Links;1;25;right;no;100;rightarrow;456;true;focus;yes;332989;Chrome;112.0;Windows;10;undefined;undefined;1564 x 1043;1564 x 1043
H011;28;Mannelijk;Links;1;26;right;no;100;rightarrow;632;true;focus;yes;334400;Chrome;112.0;Windows;10;undefined;undefined;1564 x 1043;1564 x 1043
H011;28;Mannelijk;Links;1;27;right;yes;100;undefined;null;true;focus;yes;336433;Chrome;112.0;Windows;10;undefined;undefined;1564 x 1043;1564 x 1043
H011;28;Mannelijk;Links;1;28;right;no;150;rightarrow;483;true;focus;yes;337702;Chrome;112.0;Windows;10;undefined;undefined;1564 x 1043;1564 x 1043
H011;28;Mannelijk;Links;1;29;left;no;150;leftarrow;417;true;focus;yes;338904;Chrome;112.0;Windows;10;undefined;undefined;1564 x 1043;1564 x 1043
H011;28;Mannelijk;Links;1;30;left;no;150;leftarrow;417;true;focus;yes;340103;Chrome;112.0;Windows;10;undefined;undefined;1564 x 1043;1564 x 1043
H011;28;Mannelijk;Links;1;31;left;no;150;leftarrow;399;true;focus;yes;341272;Chrome;112.0;Windows;10;undefined;undefined;1564 x 1043;1564 x 1043
H011;28;Mannelijk;Links;1;32;left;yes;150;undefined;null;true;focus;yes;343305;Chrome;112.0;Windows;10;undefined;undefined;1564 x 1043;1564 x 1043
H011;28;Mannelijk;Links;1;33;right;no;200;rightarrow;427;true;focus;yes;344502;Chrome;112.0;Windows;10;undefined;undefined;1564 x 1043;1564 x 1043
H011;28;Mannelijk;Links;1;34;left;no;200;leftarrow;395;true;focus;yes;345656;Chrome;112.0;Windows;10;undefined;undefined;1564 x 1043;1564 x 1043
H011;28;Mannelijk;Links;1;35;left;no;200;leftarrow;447;true;focus;yes;346874;Chrome;112.0;Windows;10;undefined;undefined;1564 x 1043;1564 x 1043
H011;28;Mannelijk;Links;1;36;right;yes;200;undefined;null;true;focus;yes;348894;Chrome;112.0;Windows;10;undefined;undefined;1564 x 1043;1564 x 1043
H011;28;Mannelijk;Links;1;37;left;no;250;leftarrow;433;true;focus;yes;350111;Chrome;112.0;Windows;10;undefined;undefined;1564 x 1043;1564 x 1043
H011;28;Mannelijk;Links;1;38;left;yes;250;leftarrow;320;false;focus;yes;351215;Chrome;112.0;Windows;10;undefined;undefined;1564 x 1043;1564 x 1043
H011;28;Mannelijk;Links;1;39;right;no;200;rightarrow;505;true;focus;yes;352503;Chrome;112.0;Windows;10;undefined;undefined;1564 x 1043;1564 x 1043
H011;28;Mannelijk;Links;1;40;right;no;200;rightarrow;507;true;focus;yes;353786;Chrome;112.0;Windows;10;undefined;undefined;1564 x 1043;1564 x 1043
H011;28;Mannelijk;Links;1;41;left;no;200;leftarrow;537;true;focus;yes;355102;Chrome;112.0;Windows;10;undefined;undefined;1564 x 1043;1564 x 1043
H011;28;Mannelijk;Links;1;42;right;yes;200;rightarrow;418;false;focus;yes;356300;Chrome;112.0;Windows;10;undefined;undefined;1564 x 1043;1564 x 1043
H011;28;Mannelijk;Links;1;48;right;no;200;rightarrow;592;true;focus;yes;364664;Chrome;112.0;Windows;10;undefined;undefined;1564 x 1043;1564 x 1043
H011;28;Mannelijk;Links;1;45;left;yes;150;undefined;null;true;focus;yes;360947;Chrome;112.0;Windows;10;undefined;undefined;1564 x 1043;1564 x 1043
H011;28;Mannelijk;Links;1;43;right;no;150;rightarrow;504;true;focus;yes;357569;Chrome;112.0;Windows;10;undefined;undefined;1564 x 1043;1564 x 1043
H011;28;Mannelijk;Links;1;44;right;no;150;rightarrow;551;true;focus;yes;358900;Chrome;112.0;Windows;10;undefined;undefined;1564 x 1043;1564 x 1043
H011;28;Mannelijk;Links;1;50;right;no;250;rightarrow;414;true;focus;yes;367886;Chrome;112.0;Windows;10;undefined;undefined;1564 x 1043;1564 x 1043
H011;28;Mannelijk;Links;1;52;left;no;250;leftarrow;361;true;focus;yes;370203;Chrome;112.0;Windows;10;undefined;undefined;1564 x 1043;1564 x 1043
H011;28;Mannelijk;Links;1;51;right;no;250;rightarrow;423;true;focus;yes;369079;Chrome;112.0;Windows;10;undefined;undefined;1564 x 1043;1564 x 1043
H011;28;Mannelijk;Links;1;49;right;yes;200;undefined;null;true;focus;yes;366692;Chrome;112.0;Windows;10;undefined;undefined;1564 x 1043;1564 x 1043
H011;28;Mannelijk;Links;1;46;left;no;200;leftarrow;423;true;focus;yes;362143;Chrome;112.0;Windows;10;undefined;undefined;1564 x 1043;1564 x 1043
H011;28;Mannelijk;Links;1;53;left;no;250;leftarrow;352;true;focus;yes;371327;Chrome;112.0;Windows;10;undefined;undefined;1564 x 1043;1564 x 1043
H011;28;Mannelijk;Links;1;47;left;no;200;leftarrow;384;true;focus;yes;363303;Chrome;112.0;Windows;10;undefined;undefined;1564 x 1043;1564 x 1043
H011;28;Mannelijk;Links;1;54;left;no;250;leftarrow;390;true;focus;yes;372482;Chrome;112.0;Windows;10;undefined;undefined;1564 x 1043;1564 x 1043
H011;28;Mannelijk;Links;1;55;left;yes;250;leftarrow;404;false;focus;yes;373663;Chrome;112.0;Windows;10;undefined;undefined;1564 x 1043;1564 x 1043
H011;28;Mannelijk;Links;1;56;right;no;200;rightarrow;420;true;focus;yes;374850;Chrome;112.0;Windows;10;undefined;undefined;1564 x 1043;1564 x 1043
H011;28;Mannelijk;Links;1;57;left;yes;200;undefined;null;true;focus;yes;376882;Chrome;112.0;Windows;10;undefined;undefined;1564 x 1043;1564 x 1043
H011;28;Mannelijk;Links;1;58;left;no;250;leftarrow;343;true;focus;yes;378005;Chrome;112.0;Windows;10;undefined;undefined;1564 x 1043;1564 x 1043
H011;28;Mannelijk;Links;1;59;left;no;250;leftarrow;498;true;focus;yes;379279;Chrome;112.0;Windows;10;undefined;undefined;1564 x 1043;1564 x 1043
H011;28;Mannelijk;Links;1;60;right;no;250;rightarrow;639;true;focus;yes;380703;Chrome;112.0;Windows;10;undefined;undefined;1564 x 1043;1564 x 1043
H011;28;Mannelijk;Links;1;61;left;no;250;leftarrow;365;true;focus;yes;381848;Chrome;112.0;Windows;10;undefined;undefined;1564 x 1043;1564 x 1043
H011;28;Mannelijk;Links;1;62;right;no;250;rightarrow;471;true;focus;yes;383103;Chrome;112.0;Windows;10;undefined;undefined;1564 x 1043;1564 x 1043
H011;28;Mannelijk;Links;1;63;right;yes;250;undefined;null;true;focus;yes;385149;Chrome;112.0;Windows;10;undefined;undefined;1564 x 1043;1564 x 1043
H011;28;Mannelijk;Links;1;64;right;no;300;rightarrow;487;true;focus;yes;386413;Chrome;112.0;Windows;10;undefined;undefined;1564 x 1043;1564 x 1043
H011;28;Mannelijk;Links;1;65;left;yes;300;leftarrow;388;false;focus;yes;387565;Chrome;112.0;Windows;10;undefined;undefined;1564 x 1043;1564 x 1043
H011;28;Mannelijk;Links;1;66;right;no;250;rightarrow;474;true;focus;yes;388817;Chrome;112.0;Windows;10;undefined;undefined;1564 x 1043;1564 x 1043
H011;28;Mannelijk;Links;1;67;left;no;250;leftarrow;484;true;focus;yes;390064;Chrome;112.0;Windows;10;undefined;undefined;1564 x 1043;1564 x 1043
H011;28;Mannelijk;Links;1;68;right;no;250;rightarrow;400;true;focus;yes;391245;Chrome;112.0;Windows;10;undefined;undefined;1564 x 1043;1564 x 1043
H011;28;Mannelijk;Links;1;69;right;yes;250;rightarrow;368;false;focus;yes;392398;Chrome;112.0;Windows;10;undefined;undefined;1564 x 1043;1564 x 1043
H011;28;Mannelijk;Links;1;70;left;no;200;leftarrow;421;true;focus;yes;393597;Chrome;112.0;Windows;10;undefined;undefined;1564 x 1043;1564 x 1043
H011;28;Mannelijk;Links;1;71;right;no;200;rightarrow;569;true;focus;yes;394951;Chrome;112.0;Windows;10;undefined;undefined;1564 x 1043;1564 x 1043
H011;28;Mannelijk;Links;1;72;left;no;200;leftarrow;377;true;focus;yes;396109;Chrome;112.0;Windows;10;undefined;undefined;1564 x 1043;1564 x 1043
H011;28;Mannelijk;Links;1;73;right;no;200;rightarrow;425;true;focus;yes;397309;Chrome;112.0;Windows;10;undefined;undefined;1564 x 1043;1564 x 1043
H011;28;Mannelijk;Links;1;74;left;no;200;leftarrow;393;true;focus;yes;398477;Chrome;112.0;Windows;10;undefined;undefined;1564 x 1043;1564 x 1043
H011;28;Mannelijk;Links;1;75;right;no;200;rightarrow;431;true;focus;yes;399683;Chrome;112.0;Windows;10;undefined;undefined;1564 x 1043;1564 x 1043
H011;28;Mannelijk;Links;1;76;right;yes;200;undefined;null;true;focus;yes;401720;Chrome;112.0;Windows;10;undefined;undefined;1564 x 1043;1564 x 1043
H011;28;Mannelijk;Links;1;77;left;no;250;leftarrow;443;true;focus;yes;402945;Chrome;112.0;Windows;10;undefined;undefined;1564 x 1043;1564 x 1043
H011;28;Mannelijk;Links;1;78;left;yes;250;undefined;null;true;focus;yes;404981;Chrome;112.0;Windows;10;undefined;undefined;1564 x 1043;1564 x 1043
H011;28;Mannelijk;Links;1;79;right;no;300;rightarrow;425;true;focus;yes;406181;Chrome;112.0;Windows;10;undefined;undefined;1564 x 1043;1564 x 1043
H011;28;Mannelijk;Links;1;80;left;no;300;leftarrow;441;true;focus;yes;407397;Chrome;112.0;Windows;10;undefined;undefined;1564 x 1043;1564 x 1043
H011;28;Mannelijk;Links;1;81;right;no;300;rightarrow;392;true;focus;yes;408565;Chrome;112.0;Windows;10;undefined;undefined;1564 x 1043;1564 x 1043
H011;28;Mannelijk;Links;1;82;left;no;300;leftarrow;336;true;focus;yes;409677;Chrome;112.0;Windows;10;undefined;undefined;1564 x 1043;1564 x 1043
H011;28;Mannelijk;Links;1;83;right;yes;300;rightarrow;470;false;focus;yes;410915;Chrome;112.0;Windows;10;undefined;undefined;1564 x 1043;1564 x 1043
H011;28;Mannelijk;Links;1;84;left;yes;250;leftarrow;344;false;focus;yes;412037;Chrome;112.0;Windows;10;undefined;undefined;1564 x 1043;1564 x 1043
H011;28;Mannelijk;Links;1;85;left;no;200;leftarrow;523;true;focus;yes;413333;Chrome;112.0;Windows;10;undefined;undefined;1564 x 1043;1564 x 1043
H011;28;Mannelijk;Links;1;86;right;no;200;rightarrow;757;true;focus;yes;414870;Chrome;112.0;Windows;10;undefined;undefined;1564 x 1043;1564 x 1043
H011;28;Mannelijk;Links;1;87;right;no;200;rightarrow;639;true;focus;yes;416286;Chrome;112.0;Windows;10;undefined;undefined;1564 x 1043;1564 x 1043
H011;28;Mannelijk;Links;1;88;left;no;200;leftarrow;415;true;focus;yes;417478;Chrome;112.0;Windows;10;undefined;undefined;1564 x 1043;1564 x 1043
H011;28;Mannelijk;Links;1;89;left;no;200;leftarrow;515;true;focus;yes;418781;Chrome;112.0;Windows;10;undefined;undefined;1564 x 1043;1564 x 1043
H011;28;Mannelijk;Links;1;90;left;no;200;leftarrow;648;true;focus;yes;420201;Chrome;112.0;Windows;10;undefined;undefined;1564 x 1043;1564 x 1043
H011;28;Mannelijk;Links;1;91;right;no;200;rightarrow;526;true;focus;yes;421507;Chrome;112.0;Windows;10;undefined;undefined;1564 x 1043;1564 x 1043
H011;28;Mannelijk;Links;1;92;left;no;200;leftarrow;505;true;focus;yes;422773;Chrome;112.0;Windows;10;undefined;undefined;1564 x 1043;1564 x 1043
H011;28;Mannelijk;Links;1;93;right;no;200;rightarrow;383;true;focus;yes;423933;Chrome;112.0;Windows;10;undefined;undefined;1564 x 1043;1564 x 1043
H011;28;Mannelijk;Links;1;94;left;yes;200;undefined;null;true;focus;yes;425974;Chrome;112.0;Windows;10;undefined;undefined;1564 x 1043;1564 x 1043
H011;28;Mannelijk;Links;1;95;right;no;250;rightarrow;450;true;focus;yes;427189;Chrome;112.0;Windows;10;undefined;undefined;1564 x 1043;1564 x 1043
H011;28;Mannelijk;Links;1;96;right;yes;250;rightarrow;447;false;focus;yes;428403;Chrome;112.0;Windows;10;undefined;undefined;1564 x 1043;1564 x 1043
H011;28;Mannelijk;Links;1;97;right;no;200;rightarrow;533;true;focus;yes;429721;Chrome;112.0;Windows;10;undefined;undefined;1564 x 1043;1564 x 1043
H011;28;Mannelijk;Links;1;98;left;no;200;leftarrow;459;true;focus;yes;430964;Chrome;112.0;Windows;10;undefined;undefined;1564 x 1043;1564 x 1043
H011;28;Mannelijk;Links;1;99;left;no;200;leftarrow;583;true;focus;yes;432323;Chrome;112.0;Windows;10;undefined;undefined;1564 x 1043;1564 x 1043
H011;28;Mannelijk;Links;1;100;right;yes;200;undefined;null;true;focus;yes;434366;Chrome;112.0;Windows;10;undefined;undefined;1564 x 1043;1564 x 1043
H011;28;Mannelijk;Links;1;101;right;no;250;rightarrow;480;true;focus;yes;435609;Chrome;112.0;Windows;10;undefined;undefined;1564 x 1043;1564 x 1043
H011;28;Mannelijk;Links;1;102;right;no;250;rightarrow;556;true;focus;yes;436949;Chrome;112.0;Windows;10;undefined;undefined;1564 x 1043;1564 x 1043
H011;28;Mannelijk;Links;1;103;left;no;250;leftarrow;667;true;focus;yes;438395;Chrome;112.0;Windows;10;undefined;undefined;1564 x 1043;1564 x 1043
H011;28;Mannelijk;Links;1;104;left;yes;250;leftarrow;425;false;focus;yes;439605;Chrome;112.0;Windows;10;undefined;undefined;1564 x 1043;1564 x 1043
H011;28;Mannelijk;Links;1;105;right;yes;200;undefined;null;true;focus;yes;441630;Chrome;112.0;Windows;10;undefined;undefined;1564 x 1043;1564 x 1043
H011;28;Mannelijk;Links;1;106;left;no;250;leftarrow;526;true;focus;yes;442926;Chrome;112.0;Windows;10;undefined;undefined;1564 x 1043;1564 x 1043
H011;28;Mannelijk;Links;1;107;left;yes;250;undefined;null;true;focus;yes;444965;Chrome;112.0;Windows;10;undefined;undefined;1564 x 1043;1564 x 1043
H011;28;Mannelijk;Links;1;108;right;no;300;rightarrow;517;true;focus;yes;446260;Chrome;112.0;Windows;10;undefined;undefined;1564 x 1043;1564 x 1043
H011;28;Mannelijk;Links;1;109;left;no;300;leftarrow;498;true;focus;yes;447527;Chrome;112.0;Windows;10;undefined;undefined;1564 x 1043;1564 x 1043
H011;28;Mannelijk;Links;1;110;right;no;300;rightarrow;558;true;focus;yes;448871;Chrome;112.0;Windows;10;undefined;undefined;1564 x 1043;1564 x 1043
H011;28;Mannelijk;Links;1;111;left;no;300;leftarrow;530;true;focus;yes;450178;Chrome;112.0;Windows;10;undefined;undefined;1564 x 1043;1564 x 1043
H011;28;Mannelijk;Links;1;112;right;no;300;rightarrow;573;true;focus;yes;451535;Chrome;112.0;Windows;10;undefined;undefined;1564 x 1043;1564 x 1043
H011;28;Mannelijk;Links;1;113;left;yes;300;leftarrow;429;false;focus;yes;452730;Chrome;112.0;Windows;10;undefined;undefined;1564 x 1043;1564 x 1043
H011;28;Mannelijk;Links;1;114;left;no;250;leftarrow;547;true;focus;yes;454062;Chrome;112.0;Windows;10;undefined;undefined;1564 x 1043;1564 x 1043
H011;28;Mannelijk;Links;1;115;right;no;250;rightarrow;681;true;focus;yes;455531;Chrome;112.0;Windows;10;undefined;undefined;1564 x 1043;1564 x 1043
H011;28;Mannelijk;Links;1;116;left;no;250;leftarrow;658;true;focus;yes;456975;Chrome;112.0;Windows;10;undefined;undefined;1564 x 1043;1564 x 1043
H011;28;Mannelijk;Links;1;117;right;no;250;rightarrow;727;true;focus;yes;458479;Chrome;112.0;Windows;10;undefined;undefined;1564 x 1043;1564 x 1043
H011;28;Mannelijk;Links;1;118;right;no;250;rightarrow;586;true;focus;yes;459839;Chrome;112.0;Windows;10;undefined;undefined;1564 x 1043;1564 x 1043
H011;28;Mannelijk;Links;1;119;right;yes;250;rightarrow;454;false;focus;yes;461075;Chrome;112.0;Windows;10;undefined;undefined;1564 x 1043;1564 x 1043
H011;28;Mannelijk;Links;1;120;left;no;200;leftarrow;469;true;focus;yes;462320;Chrome;112.0;Windows;10;undefined;undefined;1564 x 1043;1564 x 1043
H011;28;Mannelijk;Links;1;121;left;yes;200;undefined;null;true;focus;yes;464357;Chrome;112.0;Windows;10;undefined;undefined;1564 x 1043;1564 x 1043
H011;28;Mannelijk;Links;1;122;left;no;250;leftarrow;457;true;focus;yes;465599;Chrome;112.0;Windows;10;undefined;undefined;1564 x 1043;1564 x 1043
H011;28;Mannelijk;Links;1;123;right;no;250;rightarrow;550;true;focus;yes;466923;Chrome;112.0;Windows;10;undefined;undefined;1564 x 1043;1564 x 1043
H011;28;Mannelijk;Links;1;124;right;no;250;rightarrow;437;true;focus;yes;468147;Chrome;112.0;Windows;10;undefined;undefined;1564 x 1043;1564 x 1043
H011;28;Mannelijk;Links;1;125;left;no;250;leftarrow;531;true;focus;yes;469457;Chrome;112.0;Windows;10;undefined;undefined;1564 x 1043;1564 x 1043
H011;28;Mannelijk;Links;1;126;left;no;250;leftarrow;470;true;focus;yes;470699;Chrome;112.0;Windows;10;undefined;undefined;1564 x 1043;1564 x 1043
H011;28;Mannelijk;Links;1;127;right;no;250;rightarrow;604;true;focus;yes;472080;Chrome;112.0;Windows;10;undefined;undefined;1564 x 1043;1564 x 1043
H011;28;Mannelijk;Links;1;128;right;yes;250;undefined;null;true;focus;yes;474098;Chrome;112.0;Windows;10;undefined;undefined;1564 x 1043;1564 x 1043
H011;28;Mannelijk;Links;2;1;right;yes;300;rightarrow;430;false;focus;yes;493808;Chrome;112.0;Windows;10;undefined;undefined;1564 x 1043;1564 x 1043
H011;28;Mannelijk;Links;2;2;right;no;250;rightarrow;438;true;focus;yes;495031;Chrome;112.0;Windows;10;undefined;undefined;1564 x 1043;1564 x 1043
H011;28;Mannelijk;Links;2;3;left;no;250;leftarrow;436;true;focus;yes;496247;Chrome;112.0;Windows;10;undefined;undefined;1564 x 1043;1564 x 1043
H011;28;Mannelijk;Links;2;4;left;no;250;leftarrow;566;true;focus;yes;497596;Chrome;112.0;Windows;10;undefined;undefined;1564 x 1043;1564 x 1043
H011;28;Mannelijk;Links;2;5;right;no;250;rightarrow;602;true;focus;yes;498982;Chrome;112.0;Windows;10;undefined;undefined;1564 x 1043;1564 x 1043
H011;28;Mannelijk;Links;2;6;left;no;250;leftarrow;341;true;focus;yes;500090;Chrome;112.0;Windows;10;undefined;undefined;1564 x 1043;1564 x 1043
H011;28;Mannelijk;Links;2;7;left;yes;250;undefined;null;true;focus;yes;502119;Chrome;112.0;Windows;10;undefined;undefined;1564 x 1043;1564 x 1043
H011;28;Mannelijk;Links;2;8;right;no;300;rightarrow;443;true;focus;yes;503342;Chrome;112.0;Windows;10;undefined;undefined;1564 x 1043;1564 x 1043
H011;28;Mannelijk;Links;2;9;left;no;300;leftarrow;417;true;focus;yes;504534;Chrome;112.0;Windows;10;undefined;undefined;1564 x 1043;1564 x 1043
H011;28;Mannelijk;Links;2;10;right;no;300;rightarrow;474;true;focus;yes;505790;Chrome;112.0;Windows;10;undefined;undefined;1564 x 1043;1564 x 1043
H011;28;Mannelijk;Links;2;11;left;no;300;leftarrow;527;true;focus;yes;507094;Chrome;112.0;Windows;10;undefined;undefined;1564 x 1043;1564 x 1043
H011;28;Mannelijk;Links;2;12;right;no;300;rightarrow;352;true;focus;yes;508220;Chrome;112.0;Windows;10;undefined;undefined;1564 x 1043;1564 x 1043
H011;28;Mannelijk;Links;2;13;left;yes;300;undefined;null;true;focus;yes;510242;Chrome;112.0;Windows;10;undefined;undefined;1564 x 1043;1564 x 1043
H011;28;Mannelijk;Links;2;14;right;yes;350;rightarrow;453;false;focus;yes;511473;Chrome;112.0;Windows;10;undefined;undefined;1564 x 1043;1564 x 1043
H011;28;Mannelijk;Links;2;15;right;no;300;rightarrow;481;true;focus;yes;512720;Chrome;112.0;Windows;10;undefined;undefined;1564 x 1043;1564 x 1043
H011;28;Mannelijk;Links;2;16;left;no;300;leftarrow;394;true;focus;yes;513901;Chrome;112.0;Windows;10;undefined;undefined;1564 x 1043;1564 x 1043
H011;28;Mannelijk;Links;2;17;right;yes;300;rightarrow;494;false;focus;yes;515166;Chrome;112.0;Windows;10;undefined;undefined;1564 x 1043;1564 x 1043
H011;28;Mannelijk;Links;2;18;left;no;250;leftarrow;453;true;focus;yes;516393;Chrome;112.0;Windows;10;undefined;undefined;1564 x 1043;1564 x 1043
H011;28;Mannelijk;Links;2;19;left;no;250;leftarrow;471;true;focus;yes;517646;Chrome;112.0;Windows;10;undefined;undefined;1564 x 1043;1564 x 1043
H011;28;Mannelijk;Links;2;20;left;yes;250;leftarrow;372;false;focus;yes;518782;Chrome;112.0;Windows;10;undefined;undefined;1564 x 1043;1564 x 1043
H011;28;Mannelijk;Links;2;21;right;no;200;rightarrow;387;true;focus;yes;519946;Chrome;112.0;Windows;10;undefined;undefined;1564 x 1043;1564 x 1043
H011;28;Mannelijk;Links;2;22;right;no;200;rightarrow;743;true;focus;yes;521454;Chrome;112.0;Windows;10;undefined;undefined;1564 x 1043;1564 x 1043
H011;28;Mannelijk;Links;2;23;right;no;200;rightarrow;812;true;focus;yes;523038;Chrome;112.0;Windows;10;undefined;undefined;1564 x 1043;1564 x 1043
H011;28;Mannelijk;Links;2;24;left;no;200;leftarrow;453;true;focus;yes;524262;Chrome;112.0;Windows;10;undefined;undefined;1564 x 1043;1564 x 1043
H011;28;Mannelijk;Links;2;25;left;yes;200;undefined;null;true;focus;yes;526312;Chrome;112.0;Windows;10;undefined;undefined;1564 x 1043;1564 x 1043
H011;28;Mannelijk;Links;2;26;right;no;250;rightarrow;437;true;focus;yes;527534;Chrome;112.0;Windows;10;undefined;undefined;1564 x 1043;1564 x 1043
H011;28;Mannelijk;Links;2;27;left;no;250;leftarrow;453;true;focus;yes;528770;Chrome;112.0;Windows;10;undefined;undefined;1564 x 1043;1564 x 1043
H011;28;Mannelijk;Links;2;28;right;no;250;rightarrow;347;true;focus;yes;529898;Chrome;112.0;Windows;10;undefined;undefined;1564 x 1043;1564 x 1043
H011;28;Mannelijk;Links;2;29;left;no;250;leftarrow;338;true;focus;yes;531022;Chrome;112.0;Windows;10;undefined;undefined;1564 x 1043;1564 x 1043
H011;28;Mannelijk;Links;2;30;left;no;250;leftarrow;516;true;focus;yes;532317;Chrome;112.0;Windows;10;undefined;undefined;1564 x 1043;1564 x 1043
H011;28;Mannelijk;Links;2;31;right;yes;250;undefined;null;true;focus;yes;534361;Chrome;112.0;Windows;10;undefined;undefined;1564 x 1043;1564 x 1043
H011;28;Mannelijk;Links;2;32;right;no;300;rightarrow;476;true;focus;yes;535612;Chrome;112.0;Windows;10;undefined;undefined;1564 x 1043;1564 x 1043
H011;28;Mannelijk;Links;2;33;right;no;300;rightarrow;474;true;focus;yes;536862;Chrome;112.0;Windows;10;undefined;undefined;1564 x 1043;1564 x 1043
H011;28;Mannelijk;Links;2;34;right;no;300;rightarrow;441;true;focus;yes;538080;Chrome;112.0;Windows;10;undefined;undefined;1564 x 1043;1564 x 1043
H011;28;Mannelijk;Links;2;35;left;no;300;leftarrow;640;true;focus;yes;539497;Chrome;112.0;Windows;10;undefined;undefined;1564 x 1043;1564 x 1043
H011;28;Mannelijk;Links;2;36;left;yes;300;undefined;null;true;focus;yes;541536;Chrome;112.0;Windows;10;undefined;undefined;1564 x 1043;1564 x 1043
H011;28;Mannelijk;Links;2;37;left;no;350;leftarrow;481;true;focus;yes;542791;Chrome;112.0;Windows;10;undefined;undefined;1564 x 1043;1564 x 1043
H011;28;Mannelijk;Links;2;38;right;no;350;rightarrow;469;true;focus;yes;544046;Chrome;112.0;Windows;10;undefined;undefined;1564 x 1043;1564 x 1043
H011;28;Mannelijk;Links;2;39;left;no;350;leftarrow;307;true;focus;yes;545134;Chrome;112.0;Windows;10;undefined;undefined;1564 x 1043;1564 x 1043
H011;28;Mannelijk;Links;2;40;right;yes;350;rightarrow;405;false;focus;yes;546316;Chrome;112.0;Windows;10;undefined;undefined;1564 x 1043;1564 x 1043
H011;28;Mannelijk;Links;2;41;right;yes;300;rightarrow;564;false;focus;yes;547644;Chrome;112.0;Windows;10;undefined;undefined;1564 x 1043;1564 x 1043
H011;28;Mannelijk;Links;2;42;left;no;250;leftarrow;506;true;focus;yes;548936;Chrome;112.0;Windows;10;undefined;undefined;1564 x 1043;1564 x 1043
H011;28;Mannelijk;Links;2;43;left;yes;250;undefined;null;true;focus;yes;550968;Chrome;112.0;Windows;10;undefined;undefined;1564 x 1043;1564 x 1043
H011;28;Mannelijk;Links;2;44;right;no;300;rightarrow;486;true;focus;yes;552231;Chrome;112.0;Windows;10;undefined;undefined;1564 x 1043;1564 x 1043
H011;28;Mannelijk;Links;2;45;right;no;300;rightarrow;437;true;focus;yes;553454;Chrome;112.0;Windows;10;undefined;undefined;1564 x 1043;1564 x 1043
H011;28;Mannelijk;Links;2;46;right;no;300;rightarrow;420;true;focus;yes;554654;Chrome;112.0;Windows;10;undefined;undefined;1564 x 1043;1564 x 1043
H011;28;Mannelijk;Links;2;47;left;no;300;leftarrow;387;true;focus;yes;555822;Chrome;112.0;Windows;10;undefined;undefined;1564 x 1043;1564 x 1043
H011;28;Mannelijk;Links;2;48;left;no;300;leftarrow;623;true;focus;yes;557224;Chrome;112.0;Windows;10;undefined;undefined;1564 x 1043;1564 x 1043
H011;28;Mannelijk;Links;2;49;right;no;300;rightarrow;372;true;focus;yes;558374;Chrome;112.0;Windows;10;undefined;undefined;1564 x 1043;1564 x 1043
H011;28;Mannelijk;Links;2;50;left;yes;300;leftarrow;401;false;focus;yes;559555;Chrome;112.0;Windows;10;undefined;undefined;1564 x 1043;1564 x 1043
H011;28;Mannelijk;Links;2;51;right;no;250;rightarrow;384;true;focus;yes;560723;Chrome;112.0;Windows;10;undefined;undefined;1564 x 1043;1564 x 1043
H011;28;Mannelijk;Links;2;52;left;no;250;leftarrow;381;true;focus;yes;561878;Chrome;112.0;Windows;10;undefined;undefined;1564 x 1043;1564 x 1043
H011;28;Mannelijk;Links;2;53;right;yes;250;rightarrow;448;false;focus;yes;563105;Chrome;112.0;Windows;10;undefined;undefined;1564 x 1043;1564 x 1043
H011;28;Mannelijk;Links;2;54;left;no;200;leftarrow;466;true;focus;yes;564358;Chrome;112.0;Windows;10;undefined;undefined;1564 x 1043;1564 x 1043
H011;28;Mannelijk;Links;2;55;left;no;200;leftarrow;440;true;focus;yes;565568;Chrome;112.0;Windows;10;undefined;undefined;1564 x 1043;1564 x 1043
H011;28;Mannelijk;Links;2;56;right;no;200;undefined;null;false;focus;yes;567598;Chrome;112.0;Windows;10;undefined;undefined;1564 x 1043;1564 x 1043
H011;28;Mannelijk;Links;2;57;left;no;200;leftarrow;381;true;focus;yes;568759;Chrome;112.0;Windows;10;undefined;undefined;1564 x 1043;1564 x 1043
H011;28;Mannelijk;Links;2;58;left;yes;200;leftarrow;392;false;focus;yes;569935;Chrome;112.0;Windows;10;undefined;undefined;1564 x 1043;1564 x 1043
H011;28;Mannelijk;Links;2;59;right;no;150;rightarrow;382;true;focus;yes;571095;Chrome;112.0;Windows;10;undefined;undefined;1564 x 1043;1564 x 1043
H011;28;Mannelijk;Links;2;60;right;no;150;rightarrow;455;true;focus;yes;572335;Chrome;112.0;Windows;10;undefined;undefined;1564 x 1043;1564 x 1043
H011;28;Mannelijk;Links;2;61;right;yes;150;undefined;null;true;focus;yes;574366;Chrome;112.0;Windows;10;undefined;undefined;1564 x 1043;1564 x 1043
H011;28;Mannelijk;Links;2;62;right;no;200;rightarrow;481;true;focus;yes;575631;Chrome;112.0;Windows;10;undefined;undefined;1564 x 1043;1564 x 1043
H011;28;Mannelijk;Links;2;63;left;no;200;leftarrow;376;true;focus;yes;576791;Chrome;112.0;Windows;10;undefined;undefined;1564 x 1043;1564 x 1043
H011;28;Mannelijk;Links;2;64;left;no;200;leftarrow;368;true;focus;yes;577935;Chrome;112.0;Windows;10;undefined;undefined;1564 x 1043;1564 x 1043
H011;28;Mannelijk;Links;2;65;right;yes;200;rightarrow;451;false;focus;yes;579153;Chrome;112.0;Windows;10;undefined;undefined;1564 x 1043;1564 x 1043
H011;28;Mannelijk;Links;2;66;left;no;150;leftarrow;369;true;focus;yes;580304;Chrome;112.0;Windows;10;undefined;undefined;1564 x 1043;1564 x 1043
H011;28;Mannelijk;Links;2;67;right;no;150;rightarrow;385;true;focus;yes;581471;Chrome;112.0;Windows;10;undefined;undefined;1564 x 1043;1564 x 1043
H011;28;Mannelijk;Links;2;68;right;no;150;rightarrow;471;true;focus;yes;582711;Chrome;112.0;Windows;10;undefined;undefined;1564 x 1043;1564 x 1043
H011;28;Mannelijk;Links;2;69;right;no;150;rightarrow;401;true;focus;yes;583891;Chrome;112.0;Windows;10;undefined;undefined;1564 x 1043;1564 x 1043
H011;28;Mannelijk;Links;2;70;left;no;150;leftarrow;472;true;focus;yes;585145;Chrome;112.0;Windows;10;undefined;undefined;1564 x 1043;1564 x 1043
H011;28;Mannelijk;Links;2;71;left;no;150;leftarrow;387;true;focus;yes;586311;Chrome;112.0;Windows;10;undefined;undefined;1564 x 1043;1564 x 1043
H011;28;Mannelijk;Links;2;72;left;yes;150;rightarrow;348;false;focus;yes;587440;Chrome;112.0;Windows;10;undefined;undefined;1564 x 1043;1564 x 1043
H011;28;Mannelijk;Links;2;73;right;yes;100;rightarrow;703;false;focus;yes;588927;Chrome;112.0;Windows;10;undefined;undefined;1564 x 1043;1564 x 1043
H011;28;Mannelijk;Links;2;74;left;yes;50;leftarrow;257;false;focus;yes;589967;Chrome;112.0;Windows;10;undefined;undefined;1564 x 1043;1564 x 1043
H011;28;Mannelijk;Links;2;75;right;no;50;rightarrow;266;true;focus;yes;591008;Chrome;112.0;Windows;10;undefined;undefined;1564 x 1043;1564 x 1043
H011;28;Mannelijk;Links;2;76;right;no;50;rightarrow;422;true;focus;yes;592215;Chrome;112.0;Windows;10;undefined;undefined;1564 x 1043;1564 x 1043
H011;28;Mannelijk;Links;2;77;left;no;50;leftarrow;324;true;focus;yes;593319;Chrome;112.0;Windows;10;undefined;undefined;1564 x 1043;1564 x 1043
H011;28;Mannelijk;Links;2;78;right;no;50;rightarrow;330;true;focus;yes;594426;Chrome;112.0;Windows;10;undefined;undefined;1564 x 1043;1564 x 1043
H011;28;Mannelijk;Links;2;79;left;no;50;leftarrow;370;true;focus;yes;595583;Chrome;112.0;Windows;10;undefined;undefined;1564 x 1043;1564 x 1043
H011;28;Mannelijk;Links;2;80;left;no;50;leftarrow;414;true;focus;yes;596779;Chrome;112.0;Windows;10;undefined;undefined;1564 x 1043;1564 x 1043
H011;28;Mannelijk;Links;2;81;left;no;50;leftarrow;341;true;focus;yes;597906;Chrome;112.0;Windows;10;undefined;undefined;1564 x 1043;1564 x 1043
H011;28;Mannelijk;Links;2;82;right;yes;50;undefined;null;true;focus;yes;599942;Chrome;112.0;Windows;10;undefined;undefined;1564 x 1043;1564 x 1043
H011;28;Mannelijk;Links;2;83;right;no;100;rightarrow;393;true;focus;yes;601109;Chrome;112.0;Windows;10;undefined;undefined;1564 x 1043;1564 x 1043
H011;28;Mannelijk;Links;2;84;left;yes;100;undefined;null;true;focus;yes;603145;Chrome;112.0;Windows;10;undefined;undefined;1564 x 1043;1564 x 1043
H011;28;Mannelijk;Links;2;85;left;no;150;leftarrow;375;true;focus;yes;604311;Chrome;112.0;Windows;10;undefined;undefined;1564 x 1043;1564 x 1043
H011;28;Mannelijk;Links;2;86;right;no;150;rightarrow;440;true;focus;yes;605527;Chrome;112.0;Windows;10;undefined;undefined;1564 x 1043;1564 x 1043
H011;28;Mannelijk;Links;2;87;left;no;150;leftarrow;323;true;focus;yes;606626;Chrome;112.0;Windows;10;undefined;undefined;1564 x 1043;1564 x 1043
H011;28;Mannelijk;Links;2;88;right;no;150;rightarrow;325;true;focus;yes;607730;Chrome;112.0;Windows;10;undefined;undefined;1564 x 1043;1564 x 1043
H011;28;Mannelijk;Links;2;89;right;no;150;rightarrow;384;true;focus;yes;608890;Chrome;112.0;Windows;10;undefined;undefined;1564 x 1043;1564 x 1043
H011;28;Mannelijk;Links;2;90;right;no;150;rightarrow;414;true;focus;yes;610087;Chrome;112.0;Windows;10;undefined;undefined;1564 x 1043;1564 x 1043
H011;28;Mannelijk;Links;2;91;left;no;150;leftarrow;376;true;focus;yes;611249;Chrome;112.0;Windows;10;undefined;undefined;1564 x 1043;1564 x 1043
H011;28;Mannelijk;Links;2;92;right;no;150;rightarrow;351;true;focus;yes;612375;Chrome;112.0;Windows;10;undefined;undefined;1564 x 1043;1564 x 1043
H011;28;Mannelijk;Links;2;93;left;no;150;leftarrow;242;true;focus;yes;613399;Chrome;112.0;Windows;10;undefined;undefined;1564 x 1043;1564 x 1043
H011;28;Mannelijk;Links;2;94;left;no;150;leftarrow;382;true;focus;yes;614543;Chrome;112.0;Windows;10;undefined;undefined;1564 x 1043;1564 x 1043
H011;28;Mannelijk;Links;2;95;right;yes;150;undefined;null;true;focus;yes;616578;Chrome;112.0;Windows;10;undefined;undefined;1564 x 1043;1564 x 1043
H011;28;Mannelijk;Links;2;96;left;yes;200;leftarrow;388;false;focus;yes;617751;Chrome;112.0;Windows;10;undefined;undefined;1564 x 1043;1564 x 1043
H011;28;Mannelijk;Links;2;97;left;no;150;leftarrow;389;true;focus;yes;618919;Chrome;112.0;Windows;10;undefined;undefined;1564 x 1043;1564 x 1043
H011;28;Mannelijk;Links;2;98;right;no;150;rightarrow;399;true;focus;yes;620095;Chrome;112.0;Windows;10;undefined;undefined;1564 x 1043;1564 x 1043
H011;28;Mannelijk;Links;2;99;left;no;150;leftarrow;287;true;focus;yes;621168;Chrome;112.0;Windows;10;undefined;undefined;1564 x 1043;1564 x 1043
H011;28;Mannelijk;Links;2;100;right;no;150;rightarrow;360;true;focus;yes;622308;Chrome;112.0;Windows;10;undefined;undefined;1564 x 1043;1564 x 1043
H011;28;Mannelijk;Links;2;101;right;yes;150;leftarrow;337;false;focus;yes;623420;Chrome;112.0;Windows;10;undefined;undefined;1564 x 1043;1564 x 1043
H011;28;Mannelijk;Links;2;102;left;yes;100;leftarrow;564;false;focus;yes;624769;Chrome;112.0;Windows;10;undefined;undefined;1564 x 1043;1564 x 1043
H011;28;Mannelijk;Links;2;103;left;no;50;leftarrow;403;true;focus;yes;625959;Chrome;112.0;Windows;10;undefined;undefined;1564 x 1043;1564 x 1043
H011;28;Mannelijk;Links;2;104;right;no;50;rightarrow;359;true;focus;yes;627100;Chrome;112.0;Windows;10;undefined;undefined;1564 x 1043;1564 x 1043
H011;28;Mannelijk;Links;2;105;left;no;50;leftarrow;369;true;focus;yes;628245;Chrome;112.0;Windows;10;undefined;undefined;1564 x 1043;1564 x 1043
H011;28;Mannelijk;Links;2;106;left;yes;50;undefined;null;true;focus;yes;630286;Chrome;112.0;Windows;10;undefined;undefined;1564 x 1043;1564 x 1043
H011;28;Mannelijk;Links;2;107;right;no;100;rightarrow;409;true;focus;yes;631468;Chrome;112.0;Windows;10;undefined;undefined;1564 x 1043;1564 x 1043
H011;28;Mannelijk;Links;2;108;left;no;100;leftarrow;414;true;focus;yes;632658;Chrome;112.0;Windows;10;undefined;undefined;1564 x 1043;1564 x 1043
H011;28;Mannelijk;Links;2;109;right;yes;100;undefined;null;true;focus;yes;634693;Chrome;112.0;Windows;10;undefined;undefined;1564 x 1043;1564 x 1043
H011;28;Mannelijk;Links;2;110;right;no;150;rightarrow;408;true;focus;yes;635888;Chrome;112.0;Windows;10;undefined;undefined;1564 x 1043;1564 x 1043
H011;28;Mannelijk;Links;2;111;left;no;150;leftarrow;420;true;focus;yes;637084;Chrome;112.0;Windows;10;undefined;undefined;1564 x 1043;1564 x 1043
H011;28;Mannelijk;Links;2;112;right;no;150;rightarrow;415;true;focus;yes;638280;Chrome;112.0;Windows;10;undefined;undefined;1564 x 1043;1564 x 1043
H011;28;Mannelijk;Links;2;113;left;no;150;leftarrow;299;true;focus;yes;639364;Chrome;112.0;Windows;10;undefined;undefined;1564 x 1043;1564 x 1043
H011;28;Mannelijk;Links;2;114;left;no;150;leftarrow;384;true;focus;yes;640534;Chrome;112.0;Windows;10;undefined;undefined;1564 x 1043;1564 x 1043
H011;28;Mannelijk;Links;2;115;right;no;150;rightarrow;366;true;focus;yes;641685;Chrome;112.0;Windows;10;undefined;undefined;1564 x 1043;1564 x 1043
H011;28;Mannelijk;Links;2;116;left;yes;150;leftarrow;354;false;focus;yes;642806;Chrome;112.0;Windows;10;undefined;undefined;1564 x 1043;1564 x 1043
H011;28;Mannelijk;Links;2;117;right;yes;100;undefined;null;true;focus;yes;644847;Chrome;112.0;Windows;10;undefined;undefined;1564 x 1043;1564 x 1043
H011;28;Mannelijk;Links;2;118;right;no;150;rightarrow;400;true;focus;yes;646018;Chrome;112.0;Windows;10;undefined;undefined;1564 x 1043;1564 x 1043
H011;28;Mannelijk;Links;2;119;right;no;150;rightarrow;408;true;focus;yes;647212;Chrome;112.0;Windows;10;undefined;undefined;1564 x 1043;1564 x 1043
H011;28;Mannelijk;Links;2;120;left;no;150;leftarrow;396;true;focus;yes;648386;Chrome;112.0;Windows;10;undefined;undefined;1564 x 1043;1564 x 1043
H011;28;Mannelijk;Links;2;121;right;no;150;rightarrow;367;true;focus;yes;649527;Chrome;112.0;Windows;10;undefined;undefined;1564 x 1043;1564 x 1043
H011;28;Mannelijk;Links;2;122;right;yes;150;rightarrow;456;false;focus;yes;650764;Chrome;112.0;Windows;10;undefined;undefined;1564 x 1043;1564 x 1043
H011;28;Mannelijk;Links;2;123;left;no;100;leftarrow;399;true;focus;yes;651939;Chrome;112.0;Windows;10;undefined;undefined;1564 x 1043;1564 x 1043
H011;28;Mannelijk;Links;2;124;right;no;100;rightarrow;406;true;focus;yes;653130;Chrome;112.0;Windows;10;undefined;undefined;1564 x 1043;1564 x 1043
H011;28;Mannelijk;Links;2;125;left;no;100;leftarrow;453;true;focus;yes;654364;Chrome;112.0;Windows;10;undefined;undefined;1564 x 1043;1564 x 1043
H011;28;Mannelijk;Links;2;126;left;no;100;leftarrow;452;true;focus;yes;655595;Chrome;112.0;Windows;10;undefined;undefined;1564 x 1043;1564 x 1043
H011;28;Mannelijk;Links;2;127;left;yes;100;undefined;null;true;focus;yes;657641;Chrome;112.0;Windows;10;undefined;undefined;1564 x 1043;1564 x 1043
H011;28;Mannelijk;Links;2;128;right;no;150;rightarrow;428;true;focus;yes;658840;Chrome;112.0;Windows;10;undefined;undefined;1564 x 1043;1564 x 1043
H011;28;Mannelijk;Links;3;1;left;yes;150;leftarrow;358;false;focus;yes;678652;Chrome;112.0;Windows;10;undefined;undefined;1564 x 1043;1564 x 1043
H011;28;Mannelijk;Links;3;2;left;no;100;leftarrow;338;true;focus;yes;679764;Chrome;112.0;Windows;10;undefined;undefined;1564 x 1043;1564 x 1043
H011;28;Mannelijk;Links;3;3;right;no;100;rightarrow;386;true;focus;yes;680916;Chrome;112.0;Windows;10;undefined;undefined;1564 x 1043;1564 x 1043
H011;28;Mannelijk;Links;3;4;left;no;100;leftarrow;341;true;focus;yes;682028;Chrome;112.0;Windows;10;undefined;undefined;1564 x 1043;1564 x 1043
H011;28;Mannelijk;Links;3;5;right;no;100;rightarrow;369;true;focus;yes;683180;Chrome;112.0;Windows;10;undefined;undefined;1564 x 1043;1564 x 1043
H011;28;Mannelijk;Links;3;6;left;no;100;leftarrow;266;true;focus;yes;684239;Chrome;112.0;Windows;10;undefined;undefined;1564 x 1043;1564 x 1043
H011;28;Mannelijk;Links;3;7;right;yes;100;undefined;null;true;focus;yes;686292;Chrome;112.0;Windows;10;undefined;undefined;1564 x 1043;1564 x 1043
H011;28;Mannelijk;Links;3;8;right;no;150;rightarrow;391;true;focus;yes;687453;Chrome;112.0;Windows;10;undefined;undefined;1564 x 1043;1564 x 1043
H011;28;Mannelijk;Links;3;9;left;no;150;leftarrow;356;true;focus;yes;688583;Chrome;112.0;Windows;10;undefined;undefined;1564 x 1043;1564 x 1043
H011;28;Mannelijk;Links;3;10;left;yes;150;leftarrow;329;false;focus;yes;689691;Chrome;112.0;Windows;10;undefined;undefined;1564 x 1043;1564 x 1043
H011;28;Mannelijk;Links;3;11;right;yes;100;rightarrow;290;false;focus;yes;690767;Chrome;112.0;Windows;10;undefined;undefined;1564 x 1043;1564 x 1043
H011;28;Mannelijk;Links;3;12;left;no;50;leftarrow;456;true;focus;yes;692002;Chrome;112.0;Windows;10;undefined;undefined;1564 x 1043;1564 x 1043
H011;28;Mannelijk;Links;3;13;right;no;50;rightarrow;396;true;focus;yes;693177;Chrome;112.0;Windows;10;undefined;undefined;1564 x 1043;1564 x 1043
H011;28;Mannelijk;Links;3;14;right;no;50;rightarrow;450;true;focus;yes;694414;Chrome;112.0;Windows;10;undefined;undefined;1564 x 1043;1564 x 1043
H011;28;Mannelijk;Links;3;15;left;no;50;leftarrow;409;true;focus;yes;695607;Chrome;112.0;Windows;10;undefined;undefined;1564 x 1043;1564 x 1043
H011;28;Mannelijk;Links;3;16;right;no;50;rightarrow;348;true;focus;yes;696732;Chrome;112.0;Windows;10;undefined;undefined;1564 x 1043;1564 x 1043
H011;28;Mannelijk;Links;3;17;left;yes;50;undefined;null;true;focus;yes;698775;Chrome;112.0;Windows;10;undefined;undefined;1564 x 1043;1564 x 1043
H011;28;Mannelijk;Links;3;18;left;no;100;leftarrow;365;true;focus;yes;699916;Chrome;112.0;Windows;10;undefined;undefined;1564 x 1043;1564 x 1043
H011;28;Mannelijk;Links;3;19;right;no;100;rightarrow;364;true;focus;yes;701067;Chrome;112.0;Windows;10;undefined;undefined;1564 x 1043;1564 x 1043
H011;28;Mannelijk;Links;3;20;right;yes;100;undefined;null;true;focus;yes;703113;Chrome;112.0;Windows;10;undefined;undefined;1564 x 1043;1564 x 1043
H011;28;Mannelijk;Links;3;21;right;no;150;rightarrow;366;true;focus;yes;704255;Chrome;112.0;Windows;10;undefined;undefined;1564 x 1043;1564 x 1043
H011;28;Mannelijk;Links;3;22;left;no;150;leftarrow;366;true;focus;yes;705407;Chrome;112.0;Windows;10;undefined;undefined;1564 x 1043;1564 x 1043
H011;28;Mannelijk;Links;3;23;right;no;150;rightarrow;368;true;focus;yes;706558;Chrome;112.0;Windows;10;undefined;undefined;1564 x 1043;1564 x 1043
H011;28;Mannelijk;Links;3;24;left;no;150;leftarrow;301;true;focus;yes;707642;Chrome;112.0;Windows;10;undefined;undefined;1564 x 1043;1564 x 1043
H011;28;Mannelijk;Links;3;25;right;no;150;rightarrow;341;true;focus;yes;708767;Chrome;112.0;Windows;10;undefined;undefined;1564 x 1043;1564 x 1043
H011;28;Mannelijk;Links;3;26;right;no;150;leftarrow;321;false;focus;yes;709863;Chrome;112.0;Windows;10;undefined;undefined;1564 x 1043;1564 x 1043
H011;28;Mannelijk;Links;3;27;left;no;150;leftarrow;439;true;focus;yes;711080;Chrome;112.0;Windows;10;undefined;undefined;1564 x 1043;1564 x 1043
H011;28;Mannelijk;Links;3;28;right;no;150;rightarrow;386;true;focus;yes;712245;Chrome;112.0;Windows;10;undefined;undefined;1564 x 1043;1564 x 1043
H011;28;Mannelijk;Links;3;29;left;no;150;leftarrow;387;true;focus;yes;713415;Chrome;112.0;Windows;10;undefined;undefined;1564 x 1043;1564 x 1043
H011;28;Mannelijk;Links;3;30;left;yes;150;leftarrow;405;false;focus;yes;714599;Chrome;112.0;Windows;10;undefined;undefined;1564 x 1043;1564 x 1043
H011;28;Mannelijk;Links;3;31;left;no;100;leftarrow;444;true;focus;yes;715822;Chrome;112.0;Windows;10;undefined;undefined;1564 x 1043;1564 x 1043
H011;28;Mannelijk;Links;3;32;right;yes;100;rightarrow;625;false;focus;yes;717223;Chrome;112.0;Windows;10;undefined;undefined;1564 x 1043;1564 x 1043
H011;28;Mannelijk;Links;3;33;left;no;50;leftarrow;386;true;focus;yes;718383;Chrome;112.0;Windows;10;undefined;undefined;1564 x 1043;1564 x 1043
H011;28;Mannelijk;Links;3;34;right;no;50;rightarrow;416;true;focus;yes;719582;Chrome;112.0;Windows;10;undefined;undefined;1564 x 1043;1564 x 1043
H011;28;Mannelijk;Links;3;35;left;no;50;leftarrow;473;true;focus;yes;720839;Chrome;112.0;Windows;10;undefined;undefined;1564 x 1043;1564 x 1043
H011;28;Mannelijk;Links;3;36;left;no;50;leftarrow;412;true;focus;yes;722029;Chrome;112.0;Windows;10;undefined;undefined;1564 x 1043;1564 x 1043
H011;28;Mannelijk;Links;3;37;right;yes;50;rightarrow;421;false;focus;yes;723239;Chrome;112.0;Windows;10;undefined;undefined;1564 x 1043;1564 x 1043
H011;28;Mannelijk;Links;3;38;left;yes;50;undefined;null;true;focus;yes;725280;Chrome;112.0;Windows;10;undefined;undefined;1564 x 1043;1564 x 1043
H011;28;Mannelijk;Links;3;39;right;no;100;rightarrow;409;true;focus;yes;726479;Chrome;112.0;Windows;10;undefined;undefined;1564 x 1043;1564 x 1043
H011;28;Mannelijk;Links;3;40;right;no;100;rightarrow;367;true;focus;yes;727623;Chrome;112.0;Windows;10;undefined;undefined;1564 x 1043;1564 x 1043
H011;28;Mannelijk;Links;3;41;left;yes;100;undefined;null;true;focus;yes;729667;Chrome;112.0;Windows;10;undefined;undefined;1564 x 1043;1564 x 1043
H011;28;Mannelijk;Links;3;42;right;no;150;rightarrow;424;true;focus;yes;730879;Chrome;112.0;Windows;10;undefined;undefined;1564 x 1043;1564 x 1043
H011;28;Mannelijk;Links;3;43;right;yes;150;undefined;null;true;focus;yes;732921;Chrome;112.0;Windows;10;undefined;undefined;1564 x 1043;1564 x 1043
H011;28;Mannelijk;Links;3;44;left;no;200;leftarrow;409;true;focus;yes;734117;Chrome;112.0;Windows;10;undefined;undefined;1564 x 1043;1564 x 1043
H011;28;Mannelijk;Links;3;45;left;no;200;leftarrow;425;true;focus;yes;735333;Chrome;112.0;Windows;10;undefined;undefined;1564 x 1043;1564 x 1043
H011;28;Mannelijk;Links;3;46;right;no;200;rightarrow;431;true;focus;yes;736543;Chrome;112.0;Windows;10;undefined;undefined;1564 x 1043;1564 x 1043
H011;28;Mannelijk;Links;3;47;left;no;200;leftarrow;296;true;focus;yes;737623;Chrome;112.0;Windows;10;undefined;undefined;1564 x 1043;1564 x 1043
H011;28;Mannelijk;Links;3;48;right;no;200;rightarrow;396;true;focus;yes;738808;Chrome;112.0;Windows;10;undefined;undefined;1564 x 1043;1564 x 1043
H011;28;Mannelijk;Links;3;49;right;no;200;rightarrow;429;true;focus;yes;740025;Chrome;112.0;Windows;10;undefined;undefined;1564 x 1043;1564 x 1043
H011;28;Mannelijk;Links;3;50;right;no;200;rightarrow;481;true;focus;yes;741295;Chrome;112.0;Windows;10;undefined;undefined;1564 x 1043;1564 x 1043
H011;28;Mannelijk;Links;3;51;right;no;200;rightarrow;454;true;focus;yes;742535;Chrome;112.0;Windows;10;undefined;undefined;1564 x 1043;1564 x 1043
H011;28;Mannelijk;Links;3;52;left;yes;200;undefined;null;true;focus;yes;744569;Chrome;112.0;Windows;10;undefined;undefined;1564 x 1043;1564 x 1043
H011;28;Mannelijk;Links;3;53;left;no;250;leftarrow;386;true;focus;yes;745734;Chrome;112.0;Windows;10;undefined;undefined;1564 x 1043;1564 x 1043
H011;28;Mannelijk;Links;3;54;right;yes;250;rightarrow;427;false;focus;yes;746942;Chrome;112.0;Windows;10;undefined;undefined;1564 x 1043;1564 x 1043
H011;28;Mannelijk;Links;3;55;left;no;200;leftarrow;306;true;focus;yes;748022;Chrome;112.0;Windows;10;undefined;undefined;1564 x 1043;1564 x 1043
H011;28;Mannelijk;Links;3;56;left;no;200;leftarrow;404;true;focus;yes;749206;Chrome;112.0;Windows;10;undefined;undefined;1564 x 1043;1564 x 1043
H011;28;Mannelijk;Links;3;57;left;no;200;leftarrow;476;true;focus;yes;750462;Chrome;112.0;Windows;10;undefined;undefined;1564 x 1043;1564 x 1043
H011;28;Mannelijk;Links;3;58;right;no;200;rightarrow;418;true;focus;yes;751654;Chrome;112.0;Windows;10;undefined;undefined;1564 x 1043;1564 x 1043
H011;28;Mannelijk;Links;3;59;left;no;200;leftarrow;446;true;focus;yes;752870;Chrome;112.0;Windows;10;undefined;undefined;1564 x 1043;1564 x 1043
H011;28;Mannelijk;Links;3;60;right;yes;200;undefined;null;true;focus;yes;754920;Chrome;112.0;Windows;10;undefined;undefined;1564 x 1043;1564 x 1043
H011;28;Mannelijk;Links;3;61;left;no;250;leftarrow;409;true;focus;yes;756115;Chrome;112.0;Windows;10;undefined;undefined;1564 x 1043;1564 x 1043
H011;28;Mannelijk;Links;3;62;right;no;250;rightarrow;395;true;focus;yes;757286;Chrome;112.0;Windows;10;undefined;undefined;1564 x 1043;1564 x 1043
H011;28;Mannelijk;Links;3;63;right;no;250;rightarrow;490;true;focus;yes;758566;Chrome;112.0;Windows;10;undefined;undefined;1564 x 1043;1564 x 1043
H011;28;Mannelijk;Links;3;64;left;yes;250;leftarrow;348;false;focus;yes;759691;Chrome;112.0;Windows;10;undefined;undefined;1564 x 1043;1564 x 1043
H011;28;Mannelijk;Links;3;65;left;no;200;leftarrow;441;true;focus;yes;760917;Chrome;112.0;Windows;10;undefined;undefined;1564 x 1043;1564 x 1043
H011;28;Mannelijk;Links;3;66;right;no;200;rightarrow;431;true;focus;yes;762126;Chrome;112.0;Windows;10;undefined;undefined;1564 x 1043;1564 x 1043
H011;28;Mannelijk;Links;3;67;right;no;200;rightarrow;568;true;focus;yes;763478;Chrome;112.0;Windows;10;undefined;undefined;1564 x 1043;1564 x 1043
H011;28;Mannelijk;Links;3;68;right;no;200;rightarrow;514;true;focus;yes;764775;Chrome;112.0;Windows;10;undefined;undefined;1564 x 1043;1564 x 1043
H011;28;Mannelijk;Links;3;69;left;no;200;leftarrow;477;true;focus;yes;766038;Chrome;112.0;Windows;10;undefined;undefined;1564 x 1043;1564 x 1043
H011;28;Mannelijk;Links;3;70;left;no;200;leftarrow;447;true;focus;yes;767260;Chrome;112.0;Windows;10;undefined;undefined;1564 x 1043;1564 x 1043
H011;28;Mannelijk;Links;3;71;left;yes;200;undefined;null;true;focus;yes;769300;Chrome;112.0;Windows;10;undefined;undefined;1564 x 1043;1564 x 1043
H011;28;Mannelijk;Links;3;72;right;yes;250;rightarrow;408;false;focus;yes;770486;Chrome;112.0;Windows;10;undefined;undefined;1564 x 1043;1564 x 1043
H011;28;Mannelijk;Links;3;73;left;no;200;leftarrow;378;true;focus;yes;771646;Chrome;112.0;Windows;10;undefined;undefined;1564 x 1043;1564 x 1043
H011;28;Mannelijk;Links;3;74;right;yes;200;undefined;null;true;focus;yes;773701;Chrome;112.0;Windows;10;undefined;undefined;1564 x 1043;1564 x 1043
H011;28;Mannelijk;Links;3;75;left;no;250;leftarrow;417;true;focus;yes;774902;Chrome;112.0;Windows;10;undefined;undefined;1564 x 1043;1564 x 1043
H011;28;Mannelijk;Links;3;76;right;no;250;rightarrow;414;true;focus;yes;776101;Chrome;112.0;Windows;10;undefined;undefined;1564 x 1043;1564 x 1043
H011;28;Mannelijk;Links;3;77;left;no;250;leftarrow;458;true;focus;yes;777340;Chrome;112.0;Windows;10;undefined;undefined;1564 x 1043;1564 x 1043
H011;28;Mannelijk;Links;3;78;right;no;250;rightarrow;432;true;focus;yes;778552;Chrome;112.0;Windows;10;undefined;undefined;1564 x 1043;1564 x 1043
H011;28;Mannelijk;Links;3;79;right;no;250;rightarrow;538;true;focus;yes;779877;Chrome;112.0;Windows;10;undefined;undefined;1564 x 1043;1564 x 1043
H011;28;Mannelijk;Links;3;80;left;yes;250;leftarrow;406;false;focus;yes;781062;Chrome;112.0;Windows;10;undefined;undefined;1564 x 1043;1564 x 1043
H011;28;Mannelijk;Links;3;81;right;no;200;rightarrow;380;true;focus;yes;782222;Chrome;112.0;Windows;10;undefined;undefined;1564 x 1043;1564 x 1043
H011;28;Mannelijk;Links;3;82;left;no;200;leftarrow;388;true;focus;yes;783398;Chrome;112.0;Windows;10;undefined;undefined;1564 x 1043;1564 x 1043
H011;28;Mannelijk;Links;3;83;left;no;200;leftarrow;437;true;focus;yes;784614;Chrome;112.0;Windows;10;undefined;undefined;1564 x 1043;1564 x 1043
H011;28;Mannelijk;Links;3;84;right;no;200;rightarrow;380;true;focus;yes;785774;Chrome;112.0;Windows;10;undefined;undefined;1564 x 1043;1564 x 1043
H011;28;Mannelijk;Links;3;85;right;no;200;rightarrow;495;true;focus;yes;787056;Chrome;112.0;Windows;10;undefined;undefined;1564 x 1043;1564 x 1043
H011;28;Mannelijk;Links;3;86;left;no;200;leftarrow;536;true;focus;yes;788380;Chrome;112.0;Windows;10;undefined;undefined;1564 x 1043;1564 x 1043
H011;28;Mannelijk;Links;3;87;right;yes;200;rightarrow;388;false;focus;yes;789550;Chrome;112.0;Windows;10;undefined;undefined;1564 x 1043;1564 x 1043
H011;28;Mannelijk;Links;3;88;left;yes;150;leftarrow;299;false;focus;yes;790630;Chrome;112.0;Windows;10;undefined;undefined;1564 x 1043;1564 x 1043
H011;28;Mannelijk;Links;3;89;left;no;100;leftarrow;496;true;focus;yes;791910;Chrome;112.0;Windows;10;undefined;undefined;1564 x 1043;1564 x 1043
H011;28;Mannelijk;Links;3;90;left;no;100;leftarrow;516;true;focus;yes;793214;Chrome;112.0;Windows;10;undefined;undefined;1564 x 1043;1564 x 1043
H011;28;Mannelijk;Links;3;91;left;no;100;leftarrow;462;true;focus;yes;794462;Chrome;112.0;Windows;10;undefined;undefined;1564 x 1043;1564 x 1043
H011;28;Mannelijk;Links;3;92;right;no;100;rightarrow;339;true;focus;yes;795590;Chrome;112.0;Windows;10;undefined;undefined;1564 x 1043;1564 x 1043
H011;28;Mannelijk;Links;3;93;right;yes;100;undefined;null;true;focus;yes;797632;Chrome;112.0;Windows;10;undefined;undefined;1564 x 1043;1564 x 1043
H011;28;Mannelijk;Links;3;94;left;yes;150;leftarrow;353;false;focus;yes;798772;Chrome;112.0;Windows;10;undefined;undefined;1564 x 1043;1564 x 1043
H011;28;Mannelijk;Links;3;95;right;no;100;rightarrow;357;true;focus;yes;799910;Chrome;112.0;Windows;10;undefined;undefined;1564 x 1043;1564 x 1043
H011;28;Mannelijk;Links;3;96;right;no;100;rightarrow;487;true;focus;yes;801173;Chrome;112.0;Windows;10;undefined;undefined;1564 x 1043;1564 x 1043
H011;28;Mannelijk;Links;3;97;right;no;100;rightarrow;434;true;focus;yes;802390;Chrome;112.0;Windows;10;undefined;undefined;1564 x 1043;1564 x 1043
H011;28;Mannelijk;Links;3;98;left;no;100;leftarrow;392;true;focus;yes;803564;Chrome;112.0;Windows;10;undefined;undefined;1564 x 1043;1564 x 1043
H011;28;Mannelijk;Links;3;99;right;yes;100;undefined;null;true;focus;yes;805618;Chrome;112.0;Windows;10;undefined;undefined;1564 x 1043;1564 x 1043
H011;28;Mannelijk;Links;3;100;left;yes;150;leftarrow;413;false;focus;yes;806819;Chrome;112.0;Windows;10;undefined;undefined;1564 x 1043;1564 x 1043
H011;28;Mannelijk;Links;3;101;left;no;100;leftarrow;550;true;focus;yes;808155;Chrome;112.0;Windows;10;undefined;undefined;1564 x 1043;1564 x 1043
H011;28;Mannelijk;Links;3;102;left;no;100;leftarrow;520;true;focus;yes;809460;Chrome;112.0;Windows;10;undefined;undefined;1564 x 1043;1564 x 1043
H011;28;Mannelijk;Links;3;103;right;no;100;rightarrow;582;true;focus;yes;810822;Chrome;112.0;Windows;10;undefined;undefined;1564 x 1043;1564 x 1043
H011;28;Mannelijk;Links;3;104;right;no;100;leftarrow;299;false;focus;yes;811907;Chrome;112.0;Windows;10;undefined;undefined;1564 x 1043;1564 x 1043
H011;28;Mannelijk;Links;3;105;right;yes;100;rightarrow;415;false;focus;yes;813106;Chrome;112.0;Windows;10;undefined;undefined;1564 x 1043;1564 x 1043
H011;28;Mannelijk;Links;3;106;right;no;50;rightarrow;469;true;focus;yes;814363;Chrome;112.0;Windows;10;undefined;undefined;1564 x 1043;1564 x 1043
H011;28;Mannelijk;Links;3;107;right;no;50;rightarrow;466;true;focus;yes;815610;Chrome;112.0;Windows;10;undefined;undefined;1564 x 1043;1564 x 1043
H011;28;Mannelijk;Links;3;108;left;no;50;leftarrow;417;true;focus;yes;816811;Chrome;112.0;Windows;10;undefined;undefined;1564 x 1043;1564 x 1043
H011;28;Mannelijk;Links;3;109;right;no;50;rightarrow;520;true;focus;yes;818115;Chrome;112.0;Windows;10;undefined;undefined;1564 x 1043;1564 x 1043
H011;28;Mannelijk;Links;3;110;left;no;50;leftarrow;402;true;focus;yes;819299;Chrome;112.0;Windows;10;undefined;undefined;1564 x 1043;1564 x 1043
H011;28;Mannelijk;Links;3;111;left;yes;50;undefined;null;true;focus;yes;821339;Chrome;112.0;Windows;10;undefined;undefined;1564 x 1043;1564 x 1043
H011;28;Mannelijk;Links;3;112;left;no;100;leftarrow;429;true;focus;yes;822545;Chrome;112.0;Windows;10;undefined;undefined;1564 x 1043;1564 x 1043
H011;28;Mannelijk;Links;3;113;right;no;100;rightarrow;419;true;focus;yes;823755;Chrome;112.0;Windows;10;undefined;undefined;1564 x 1043;1564 x 1043
H011;28;Mannelijk;Links;3;114;left;no;100;leftarrow;350;true;focus;yes;824883;Chrome;112.0;Windows;10;undefined;undefined;1564 x 1043;1564 x 1043
H011;28;Mannelijk;Links;3;115;left;no;100;leftarrow;390;true;focus;yes;826058;Chrome;112.0;Windows;10;undefined;undefined;1564 x 1043;1564 x 1043
H011;28;Mannelijk;Links;3;116;right;no;100;rightarrow;392;true;focus;yes;827228;Chrome;112.0;Windows;10;undefined;undefined;1564 x 1043;1564 x 1043
H011;28;Mannelijk;Links;3;117;right;yes;100;undefined;null;true;focus;yes;829281;Chrome;112.0;Windows;10;undefined;undefined;1564 x 1043;1564 x 1043
H011;28;Mannelijk;Links;3;118;right;no;150;rightarrow;446;true;focus;yes;830517;Chrome;112.0;Windows;10;undefined;undefined;1564 x 1043;1564 x 1043
H011;28;Mannelijk;Links;3;119;left;yes;150;leftarrow;409;false;focus;yes;831714;Chrome;112.0;Windows;10;undefined;undefined;1564 x 1043;1564 x 1043
H011;28;Mannelijk;Links;3;120;left;no;100;leftarrow;536;true;focus;yes;833026;Chrome;112.0;Windows;10;undefined;undefined;1564 x 1043;1564 x 1043
H011;28;Mannelijk;Links;3;121;right;no;100;rightarrow;379;true;focus;yes;834186;Chrome;112.0;Windows;10;undefined;undefined;1564 x 1043;1564 x 1043
H011;28;Mannelijk;Links;3;122;left;no;100;leftarrow;389;true;focus;yes;835363;Chrome;112.0;Windows;10;undefined;undefined;1564 x 1043;1564 x 1043
H011;28;Mannelijk;Links;3;123;right;no;100;rightarrow;405;true;focus;yes;836546;Chrome;112.0;Windows;10;undefined;undefined;1564 x 1043;1564 x 1043
H011;28;Mannelijk;Links;3;124;right;no;100;rightarrow;485;true;focus;yes;837811;Chrome;112.0;Windows;10;undefined;undefined;1564 x 1043;1564 x 1043
H011;28;Mannelijk;Links;3;125;left;no;100;leftarrow;424;true;focus;yes;839019;Chrome;112.0;Windows;10;undefined;undefined;1564 x 1043;1564 x 1043
H011;28;Mannelijk;Links;3;126;left;yes;100;undefined;null;true;focus;yes;841060;Chrome;112.0;Windows;10;undefined;undefined;1564 x 1043;1564 x 1043
H011;28;Mannelijk;Links;3;127;left;no;150;leftarrow;479;true;focus;yes;842325;Chrome;112.0;Windows;10;undefined;undefined;1564 x 1043;1564 x 1043
H011;28;Mannelijk;Links;3;128;right;yes;150;rightarrow;448;false;focus;yes;843561;Chrome;112.0;Windows;10;undefined;undefined;1564 x 1043;1564 x 1043
H011;28;Mannelijk;Links;4;1;right;yes;100;rightarrow;398;false;focus;yes;862458;Chrome;112.0;Windows;10;undefined;undefined;1564 x 1043;1564 x 1043
H011;28;Mannelijk;Links;4;2;left;no;50;leftarrow;319;true;focus;yes;863562;Chrome;112.0;Windows;10;undefined;undefined;1564 x 1043;1564 x 1043
H011;28;Mannelijk;Links;4;3;right;no;50;rightarrow;367;true;focus;yes;864716;Chrome;112.0;Windows;10;undefined;undefined;1564 x 1043;1564 x 1043
H011;28;Mannelijk;Links;4;4;left;no;50;leftarrow;339;true;focus;yes;865838;Chrome;112.0;Windows;10;undefined;undefined;1564 x 1043;1564 x 1043
H011;28;Mannelijk;Links;4;5;right;no;50;rightarrow;358;true;focus;yes;866974;Chrome;112.0;Windows;10;undefined;undefined;1564 x 1043;1564 x 1043
H011;28;Mannelijk;Links;4;6;right;no;50;rightarrow;474;true;focus;yes;868225;Chrome;112.0;Windows;10;undefined;undefined;1564 x 1043;1564 x 1043
H011;28;Mannelijk;Links;4;7;left;no;50;leftarrow;331;true;focus;yes;869332;Chrome;112.0;Windows;10;undefined;undefined;1564 x 1043;1564 x 1043
H011;28;Mannelijk;Links;4;8;left;yes;50;undefined;null;true;focus;yes;871373;Chrome;112.0;Windows;10;undefined;undefined;1564 x 1043;1564 x 1043
H011;28;Mannelijk;Links;4;9;right;no;100;rightarrow;340;true;focus;yes;872494;Chrome;112.0;Windows;10;undefined;undefined;1564 x 1043;1564 x 1043
H011;28;Mannelijk;Links;4;10;right;yes;100;undefined;null;true;focus;yes;874534;Chrome;112.0;Windows;10;undefined;undefined;1564 x 1043;1564 x 1043
H011;28;Mannelijk;Links;4;11;right;no;150;rightarrow;387;true;focus;yes;875711;Chrome;112.0;Windows;10;undefined;undefined;1564 x 1043;1564 x 1043
H011;28;Mannelijk;Links;4;12;right;no;150;rightarrow;412;true;focus;yes;876902;Chrome;112.0;Windows;10;undefined;undefined;1564 x 1043;1564 x 1043
H011;28;Mannelijk;Links;4;13;left;no;150;leftarrow;404;true;focus;yes;878094;Chrome;112.0;Windows;10;undefined;undefined;1564 x 1043;1564 x 1043
H011;28;Mannelijk;Links;4;14;left;no;150;leftarrow;505;true;focus;yes;879381;Chrome;112.0;Windows;10;undefined;undefined;1564 x 1043;1564 x 1043
H011;28;Mannelijk;Links;4;15;left;yes;150;undefined;null;true;focus;yes;881421;Chrome;112.0;Windows;10;undefined;undefined;1564 x 1043;1564 x 1043
H011;28;Mannelijk;Links;4;16;left;no;200;leftarrow;411;true;focus;yes;882623;Chrome;112.0;Windows;10;undefined;undefined;1564 x 1043;1564 x 1043
H011;28;Mannelijk;Links;4;17;left;no;200;leftarrow;364;true;focus;yes;883775;Chrome;112.0;Windows;10;undefined;undefined;1564 x 1043;1564 x 1043
H011;28;Mannelijk;Links;4;18;left;no;200;leftarrow;380;true;focus;yes;884942;Chrome;112.0;Windows;10;undefined;undefined;1564 x 1043;1564 x 1043
H011;28;Mannelijk;Links;4;19;right;no;200;rightarrow;541;true;focus;yes;886271;Chrome;112.0;Windows;10;undefined;undefined;1564 x 1043;1564 x 1043
H011;28;Mannelijk;Links;4;20;left;yes;200;leftarrow;367;false;focus;yes;887414;Chrome;112.0;Windows;10;undefined;undefined;1564 x 1043;1564 x 1043
H011;28;Mannelijk;Links;4;21;left;no;150;leftarrow;423;true;focus;yes;888622;Chrome;112.0;Windows;10;undefined;undefined;1564 x 1043;1564 x 1043
H011;28;Mannelijk;Links;4;22;right;no;150;rightarrow;430;true;focus;yes;889829;Chrome;112.0;Windows;10;undefined;undefined;1564 x 1043;1564 x 1043
H011;28;Mannelijk;Links;4;23;right;yes;150;rightarrow;390;false;focus;yes;891006;Chrome;112.0;Windows;10;undefined;undefined;1564 x 1043;1564 x 1043
H011;28;Mannelijk;Links;4;24;right;no;100;rightarrow;504;true;focus;yes;892287;Chrome;112.0;Windows;10;undefined;undefined;1564 x 1043;1564 x 1043
H011;28;Mannelijk;Links;4;25;left;yes;100;undefined;null;true;focus;yes;894328;Chrome;112.0;Windows;10;undefined;undefined;1564 x 1043;1564 x 1043
H011;28;Mannelijk;Links;4;26;right;no;150;rightarrow;440;true;focus;yes;895558;Chrome;112.0;Windows;10;undefined;undefined;1564 x 1043;1564 x 1043
H011;28;Mannelijk;Links;4;27;right;no;150;rightarrow;461;true;focus;yes;896800;Chrome;112.0;Windows;10;undefined;undefined;1564 x 1043;1564 x 1043
H011;28;Mannelijk;Links;4;28;left;no;150;leftarrow;434;true;focus;yes;898023;Chrome;112.0;Windows;10;undefined;undefined;1564 x 1043;1564 x 1043
H011;28;Mannelijk;Links;4;29;left;no;150;leftarrow;409;true;focus;yes;899214;Chrome;112.0;Windows;10;undefined;undefined;1564 x 1043;1564 x 1043
H011;28;Mannelijk;Links;4;30;right;yes;150;rightarrow;352;false;focus;yes;900360;Chrome;112.0;Windows;10;undefined;undefined;1564 x 1043;1564 x 1043
H011;28;Mannelijk;Links;4;31;right;no;100;rightarrow;581;true;focus;yes;901721;Chrome;112.0;Windows;10;undefined;undefined;1564 x 1043;1564 x 1043
H011;28;Mannelijk;Links;4;32;left;no;100;leftarrow;386;true;focus;yes;902894;Chrome;112.0;Windows;10;undefined;undefined;1564 x 1043;1564 x 1043
H011;28;Mannelijk;Links;4;33;right;no;100;rightarrow;419;true;focus;yes;904094;Chrome;112.0;Windows;10;undefined;undefined;1564 x 1043;1564 x 1043
H011;28;Mannelijk;Links;4;34;right;yes;100;undefined;null;true;focus;yes;906142;Chrome;112.0;Windows;10;undefined;undefined;1564 x 1043;1564 x 1043
H011;28;Mannelijk;Links;4;35;left;yes;150;leftarrow;370;false;focus;yes;907286;Chrome;112.0;Windows;10;undefined;undefined;1564 x 1043;1564 x 1043
H011;28;Mannelijk;Links;4;36;left;no;100;leftarrow;537;true;focus;yes;908599;Chrome;112.0;Windows;10;undefined;undefined;1564 x 1043;1564 x 1043
H011;28;Mannelijk;Links;4;37;left;no;100;leftarrow;459;true;focus;yes;909838;Chrome;112.0;Windows;10;undefined;undefined;1564 x 1043;1564 x 1043
H011;28;Mannelijk;Links;4;38;right;no;100;rightarrow;589;true;focus;yes;911204;Chrome;112.0;Windows;10;undefined;undefined;1564 x 1043;1564 x 1043
H011;28;Mannelijk;Links;4;39;left;no;100;leftarrow;433;true;focus;yes;912415;Chrome;112.0;Windows;10;undefined;undefined;1564 x 1043;1564 x 1043
H011;28;Mannelijk;Links;4;40;right;no;100;rightarrow;472;true;focus;yes;913670;Chrome;112.0;Windows;10;undefined;undefined;1564 x 1043;1564 x 1043
H011;28;Mannelijk;Links;4;41;right;no;100;rightarrow;516;true;focus;yes;914966;Chrome;112.0;Windows;10;undefined;undefined;1564 x 1043;1564 x 1043
H011;28;Mannelijk;Links;4;42;left;no;100;leftarrow;438;true;focus;yes;916190;Chrome;112.0;Windows;10;undefined;undefined;1564 x 1043;1564 x 1043
H011;28;Mannelijk;Links;4;43;right;no;100;rightarrow;431;true;focus;yes;917398;Chrome;112.0;Windows;10;undefined;undefined;1564 x 1043;1564 x 1043
H011;28;Mannelijk;Links;4;44;left;yes;100;undefined;null;true;focus;yes;919445;Chrome;112.0;Windows;10;undefined;undefined;1564 x 1043;1564 x 1043
H011;28;Mannelijk;Links;4;45;left;no;150;leftarrow;346;true;focus;yes;920583;Chrome;112.0;Windows;10;undefined;undefined;1564 x 1043;1564 x 1043
H011;28;Mannelijk;Links;4;46;right;no;150;rightarrow;394;true;focus;yes;921765;Chrome;112.0;Windows;10;undefined;undefined;1564 x 1043;1564 x 1043
H011;28;Mannelijk;Links;4;47;right;yes;150;rightarrow;363;false;focus;yes;922918;Chrome;112.0;Windows;10;undefined;undefined;1564 x 1043;1564 x 1043
H011;28;Mannelijk;Links;4;48;left;no;100;leftarrow;300;true;focus;yes;924005;Chrome;112.0;Windows;10;undefined;undefined;1564 x 1043;1564 x 1043
H011;28;Mannelijk;Links;4;49;left;no;100;leftarrow;480;true;focus;yes;925269;Chrome;112.0;Windows;10;undefined;undefined;1564 x 1043;1564 x 1043
H011;28;Mannelijk;Links;4;50;left;no;100;leftarrow;356;true;focus;yes;926413;Chrome;112.0;Windows;10;undefined;undefined;1564 x 1043;1564 x 1043
H011;28;Mannelijk;Links;4;51;left;no;100;leftarrow;344;true;focus;yes;927535;Chrome;112.0;Windows;10;undefined;undefined;1564 x 1043;1564 x 1043
H011;28;Mannelijk;Links;4;52;right;no;100;rightarrow;579;true;focus;yes;928904;Chrome;112.0;Windows;10;undefined;undefined;1564 x 1043;1564 x 1043
H011;28;Mannelijk;Links;4;53;left;yes;100;leftarrow;281;false;focus;yes;929973;Chrome;112.0;Windows;10;undefined;undefined;1564 x 1043;1564 x 1043
H011;28;Mannelijk;Links;4;54;right;no;50;rightarrow;365;true;focus;yes;931125;Chrome;112.0;Windows;10;undefined;undefined;1564 x 1043;1564 x 1043
H011;28;Mannelijk;Links;4;55;right;no;50;rightarrow;444;true;focus;yes;932356;Chrome;112.0;Windows;10;undefined;undefined;1564 x 1043;1564 x 1043
H011;28;Mannelijk;Links;4;56;right;yes;50;undefined;null;true;focus;yes;934403;Chrome;112.0;Windows;10;undefined;undefined;1564 x 1043;1564 x 1043
H011;28;Mannelijk;Links;4;57;left;yes;100;undefined;null;true;focus;yes;936456;Chrome;112.0;Windows;10;undefined;undefined;1564 x 1043;1564 x 1043
H011;28;Mannelijk;Links;4;58;right;no;150;rightarrow;373;true;focus;yes;937622;Chrome;112.0;Windows;10;undefined;undefined;1564 x 1043;1564 x 1043
H011;28;Mannelijk;Links;4;59;left;no;150;leftarrow;287;true;focus;yes;938685;Chrome;112.0;Windows;10;undefined;undefined;1564 x 1043;1564 x 1043
H011;28;Mannelijk;Links;4;60;right;no;150;rightarrow;340;true;focus;yes;939805;Chrome;112.0;Windows;10;undefined;undefined;1564 x 1043;1564 x 1043
H011;28;Mannelijk;Links;4;61;left;no;150;leftarrow;333;true;focus;yes;940918;Chrome;112.0;Windows;10;undefined;undefined;1564 x 1043;1564 x 1043
H011;28;Mannelijk;Links;4;62;right;no;150;rightarrow;363;true;focus;yes;942064;Chrome;112.0;Windows;10;undefined;undefined;1564 x 1043;1564 x 1043
H011;28;Mannelijk;Links;4;63;right;yes;150;undefined;null;true;focus;yes;944103;Chrome;112.0;Windows;10;undefined;undefined;1564 x 1043;1564 x 1043
H011;28;Mannelijk;Links;4;64;left;no;200;leftarrow;389;true;focus;yes;945276;Chrome;112.0;Windows;10;undefined;undefined;1564 x 1043;1564 x 1043
H011;28;Mannelijk;Links;4;65;left;yes;200;leftarrow;384;false;focus;yes;946437;Chrome;112.0;Windows;10;undefined;undefined;1564 x 1043;1564 x 1043
H011;28;Mannelijk;Links;4;66;right;no;150;rightarrow;384;true;focus;yes;947605;Chrome;112.0;Windows;10;undefined;undefined;1564 x 1043;1564 x 1043
H011;28;Mannelijk;Links;4;67;left;no;150;leftarrow;416;true;focus;yes;948806;Chrome;112.0;Windows;10;undefined;undefined;1564 x 1043;1564 x 1043
H011;28;Mannelijk;Links;4;68;right;yes;150;undefined;null;true;focus;yes;950853;Chrome;112.0;Windows;10;undefined;undefined;1564 x 1043;1564 x 1043
H011;28;Mannelijk;Links;4;69;left;no;200;leftarrow;341;true;focus;yes;951982;Chrome;112.0;Windows;10;undefined;undefined;1564 x 1043;1564 x 1043
H011;28;Mannelijk;Links;4;70;left;no;200;leftarrow;486;true;focus;yes;953245;Chrome;112.0;Windows;10;undefined;undefined;1564 x 1043;1564 x 1043
H011;28;Mannelijk;Links;4;71;right;no;200;rightarrow;395;true;focus;yes;954422;Chrome;112.0;Windows;10;undefined;undefined;1564 x 1043;1564 x 1043
H011;28;Mannelijk;Links;4;72;right;no;200;rightarrow;513;true;focus;yes;955723;Chrome;112.0;Windows;10;undefined;undefined;1564 x 1043;1564 x 1043
H011;28;Mannelijk;Links;4;73;left;no;200;leftarrow;431;true;focus;yes;956941;Chrome;112.0;Windows;10;undefined;undefined;1564 x 1043;1564 x 1043
H011;28;Mannelijk;Links;4;74;right;no;200;rightarrow;436;true;focus;yes;958165;Chrome;112.0;Windows;10;undefined;undefined;1564 x 1043;1564 x 1043
H011;28;Mannelijk;Links;4;75;right;no;200;rightarrow;508;true;focus;yes;959453;Chrome;112.0;Windows;10;undefined;undefined;1564 x 1043;1564 x 1043
H011;28;Mannelijk;Links;4;76;right;no;200;rightarrow;480;true;focus;yes;960710;Chrome;112.0;Windows;10;undefined;undefined;1564 x 1043;1564 x 1043
H011;28;Mannelijk;Links;4;77;left;no;200;leftarrow;420;true;focus;yes;961917;Chrome;112.0;Windows;10;undefined;undefined;1564 x 1043;1564 x 1043
H011;28;Mannelijk;Links;4;78;left;no;200;leftarrow;451;true;focus;yes;963149;Chrome;112.0;Windows;10;undefined;undefined;1564 x 1043;1564 x 1043
H011;28;Mannelijk;Links;4;79;right;yes;200;undefined;null;true;focus;yes;965186;Chrome;112.0;Windows;10;undefined;undefined;1564 x 1043;1564 x 1043
H011;28;Mannelijk;Links;4;80;left;yes;250;leftarrow;395;false;focus;yes;966364;Chrome;112.0;Windows;10;undefined;undefined;1564 x 1043;1564 x 1043
H011;28;Mannelijk;Links;4;81;left;no;200;leftarrow;438;true;focus;yes;967590;Chrome;112.0;Windows;10;undefined;undefined;1564 x 1043;1564 x 1043
H011;28;Mannelijk;Links;4;82;right;yes;200;rightarrow;421;false;focus;yes;968789;Chrome;112.0;Windows;10;undefined;undefined;1564 x 1043;1564 x 1043
H011;28;Mannelijk;Links;4;83;right;no;150;rightarrow;419;true;focus;yes;969989;Chrome;112.0;Windows;10;undefined;undefined;1564 x 1043;1564 x 1043
H011;28;Mannelijk;Links;4;84;left;yes;150;undefined;null;true;focus;yes;972033;Chrome;112.0;Windows;10;undefined;undefined;1564 x 1043;1564 x 1043
H011;28;Mannelijk;Links;4;85;left;no;200;leftarrow;535;true;focus;yes;973357;Chrome;112.0;Windows;10;undefined;undefined;1564 x 1043;1564 x 1043
H011;28;Mannelijk;Links;4;86;right;no;200;rightarrow;380;true;focus;yes;974520;Chrome;112.0;Windows;10;undefined;undefined;1564 x 1043;1564 x 1043
H011;28;Mannelijk;Links;4;87;right;no;200;rightarrow;432;true;focus;yes;975741;Chrome;112.0;Windows;10;undefined;undefined;1564 x 1043;1564 x 1043
H011;28;Mannelijk;Links;4;88;left;no;200;leftarrow;448;true;focus;yes;976972;Chrome;112.0;Windows;10;undefined;undefined;1564 x 1043;1564 x 1043
H011;28;Mannelijk;Links;4;89;right;no;200;rightarrow;422;true;focus;yes;978181;Chrome;112.0;Windows;10;undefined;undefined;1564 x 1043;1564 x 1043
H011;28;Mannelijk;Links;4;90;right;no;200;leftarrow;350;false;focus;yes;979310;Chrome;112.0;Windows;10;undefined;undefined;1564 x 1043;1564 x 1043
H011;28;Mannelijk;Links;4;91;right;no;200;rightarrow;431;true;focus;yes;980525;Chrome;112.0;Windows;10;undefined;undefined;1564 x 1043;1564 x 1043
H011;28;Mannelijk;Links;4;92;left;no;200;leftarrow;453;true;focus;yes;981749;Chrome;112.0;Windows;10;undefined;undefined;1564 x 1043;1564 x 1043
H011;28;Mannelijk;Links;4;93;left;no;200;leftarrow;496;true;focus;yes;983023;Chrome;112.0;Windows;10;undefined;undefined;1564 x 1043;1564 x 1043
H011;28;Mannelijk;Links;4;94;right;yes;200;undefined;null;true;focus;yes;985079;Chrome;112.0;Windows;10;undefined;undefined;1564 x 1043;1564 x 1043
H011;28;Mannelijk;Links;4;95;left;no;250;leftarrow;406;true;focus;yes;986269;Chrome;112.0;Windows;10;undefined;undefined;1564 x 1043;1564 x 1043
H011;28;Mannelijk;Links;4;96;left;yes;250;leftarrow;395;false;focus;yes;987443;Chrome;112.0;Windows;10;undefined;undefined;1564 x 1043;1564 x 1043
H011;28;Mannelijk;Links;4;97;left;no;200;leftarrow;454;true;focus;yes;988686;Chrome;112.0;Windows;10;undefined;undefined;1564 x 1043;1564 x 1043
H011;28;Mannelijk;Links;4;98;right;no;200;rightarrow;459;true;focus;yes;989925;Chrome;112.0;Windows;10;undefined;undefined;1564 x 1043;1564 x 1043
H011;28;Mannelijk;Links;4;99;right;yes;200;undefined;null;true;focus;yes;991953;Chrome;112.0;Windows;10;undefined;undefined;1564 x 1043;1564 x 1043
H011;28;Mannelijk;Links;4;100;right;no;250;rightarrow;479;true;focus;yes;993215;Chrome;112.0;Windows;10;undefined;undefined;1564 x 1043;1564 x 1043
H011;28;Mannelijk;Links;4;101;left;no;250;leftarrow;417;true;focus;yes;994420;Chrome;112.0;Windows;10;undefined;undefined;1564 x 1043;1564 x 1043
H011;28;Mannelijk;Links;4;102;left;yes;250;leftarrow;441;false;focus;yes;995645;Chrome;112.0;Windows;10;undefined;undefined;1564 x 1043;1564 x 1043
H011;28;Mannelijk;Links;4;103;right;no;200;rightarrow;362;true;focus;yes;996800;Chrome;112.0;Windows;10;undefined;undefined;1564 x 1043;1564 x 1043
H011;28;Mannelijk;Links;4;104;left;no;200;leftarrow;428;true;focus;yes;998019;Chrome;112.0;Windows;10;undefined;undefined;1564 x 1043;1564 x 1043
H011;28;Mannelijk;Links;4;105;left;no;200;leftarrow;470;true;focus;yes;999277;Chrome;112.0;Windows;10;undefined;undefined;1564 x 1043;1564 x 1043
H011;28;Mannelijk;Links;4;106;left;no;200;leftarrow;461;true;focus;yes;1000519;Chrome;112.0;Windows;10;undefined;undefined;1564 x 1043;1564 x 1043
H011;28;Mannelijk;Links;4;107;left;yes;200;undefined;null;true;focus;yes;1002562;Chrome;112.0;Windows;10;undefined;undefined;1564 x 1043;1564 x 1043
H011;28;Mannelijk;Links;4;108;right;no;250;rightarrow;430;true;focus;yes;1003773;Chrome;112.0;Windows;10;undefined;undefined;1564 x 1043;1564 x 1043
H011;28;Mannelijk;Links;4;109;left;no;250;leftarrow;413;true;focus;yes;1004973;Chrome;112.0;Windows;10;undefined;undefined;1564 x 1043;1564 x 1043
H011;28;Mannelijk;Links;4;110;right;no;250;rightarrow;467;true;focus;yes;1006228;Chrome;112.0;Windows;10;undefined;undefined;1564 x 1043;1564 x 1043
H011;28;Mannelijk;Links;4;111;right;yes;250;rightarrow;425;false;focus;yes;1007437;Chrome;112.0;Windows;10;undefined;undefined;1564 x 1043;1564 x 1043
H011;28;Mannelijk;Links;4;112;right;no;200;rightarrow;519;true;focus;yes;1008730;Chrome;112.0;Windows;10;undefined;undefined;1564 x 1043;1564 x 1043
H011;28;Mannelijk;Links;4;113;left;no;200;leftarrow;435;true;focus;yes;1009949;Chrome;112.0;Windows;10;undefined;undefined;1564 x 1043;1564 x 1043
H011;28;Mannelijk;Links;4;114;right;no;200;rightarrow;457;true;focus;yes;1011189;Chrome;112.0;Windows;10;undefined;undefined;1564 x 1043;1564 x 1043
H011;28;Mannelijk;Links;4;115;left;no;200;leftarrow;502;true;focus;yes;1012469;Chrome;112.0;Windows;10;undefined;undefined;1564 x 1043;1564 x 1043
H011;28;Mannelijk;Links;4;116;right;no;200;rightarrow;446;true;focus;yes;1013696;Chrome;112.0;Windows;10;undefined;undefined;1564 x 1043;1564 x 1043
H011;28;Mannelijk;Links;4;117;left;no;200;leftarrow;386;true;focus;yes;1014869;Chrome;112.0;Windows;10;undefined;undefined;1564 x 1043;1564 x 1043
H011;28;Mannelijk;Links;4;118;left;yes;200;undefined;null;true;focus;yes;1016902;Chrome;112.0;Windows;10;undefined;undefined;1564 x 1043;1564 x 1043
H011;28;Mannelijk;Links;4;119;right;no;250;rightarrow;422;true;focus;yes;1018109;Chrome;112.0;Windows;10;undefined;undefined;1564 x 1043;1564 x 1043
H011;28;Mannelijk;Links;4;120;right;yes;250;rightarrow;420;false;focus;yes;1019307;Chrome;112.0;Windows;10;undefined;undefined;1564 x 1043;1564 x 1043
H011;28;Mannelijk;Links;4;121;right;yes;200;undefined;null;true;focus;yes;1021354;Chrome;112.0;Windows;10;undefined;undefined;1564 x 1043;1564 x 1043
H011;28;Mannelijk;Links;4;122;right;no;250;rightarrow;396;true;focus;yes;1022535;Chrome;112.0;Windows;10;undefined;undefined;1564 x 1043;1564 x 1043
H011;28;Mannelijk;Links;4;123;left;no;250;leftarrow;433;true;focus;yes;1023757;Chrome;112.0;Windows;10;undefined;undefined;1564 x 1043;1564 x 1043
H011;28;Mannelijk;Links;4;124;left;no;250;leftarrow;528;true;focus;yes;1025069;Chrome;112.0;Windows;10;undefined;undefined;1564 x 1043;1564 x 1043
H011;28;Mannelijk;Links;4;125;left;yes;250;leftarrow;378;false;focus;yes;1026237;Chrome;112.0;Windows;10;undefined;undefined;1564 x 1043;1564 x 1043
H011;28;Mannelijk;Links;4;126;right;no;200;rightarrow;338;true;focus;yes;1027365;Chrome;112.0;Windows;10;undefined;undefined;1564 x 1043;1564 x 1043
H011;28;Mannelijk;Links;4;127;right;no;200;rightarrow;398;true;focus;yes;1028541;Chrome;112.0;Windows;10;undefined;undefined;1564 x 1043;1564 x 1043
H011;28;Mannelijk;Links;4;128;left;no;200;leftarrow;485;true;focus;yes;1029813;Chrome;112.0;Windows;10;undefined;undefined;1564 x 1043;1564 x 1043
H011;28;Mannelijk;Links;5;1;right;no;200;rightarrow;385;true;focus;yes;1051629;Chrome;112.0;Windows;10;undefined;undefined;1564 x 1043;1564 x 1043
H011;28;Mannelijk;Links;5;2;right;no;200;rightarrow;363;true;focus;yes;1052773;Chrome;112.0;Windows;10;undefined;undefined;1564 x 1043;1564 x 1043
H011;28;Mannelijk;Links;5;3;left;yes;200;leftarrow;380;false;focus;yes;1053941;Chrome;112.0;Windows;10;undefined;undefined;1564 x 1043;1564 x 1043
H011;28;Mannelijk;Links;5;4;right;no;150;rightarrow;362;true;focus;yes;1055093;Chrome;112.0;Windows;10;undefined;undefined;1564 x 1043;1564 x 1043
H011;28;Mannelijk;Links;5;5;left;no;150;leftarrow;414;true;focus;yes;1056293;Chrome;112.0;Windows;10;undefined;undefined;1564 x 1043;1564 x 1043
H011;28;Mannelijk;Links;5;6;right;yes;150;undefined;null;true;focus;yes;1058344;Chrome;112.0;Windows;10;undefined;undefined;1564 x 1043;1564 x 1043
H011;28;Mannelijk;Links;5;7;left;no;200;leftarrow;400;true;focus;yes;1059533;Chrome;112.0;Windows;10;undefined;undefined;1564 x 1043;1564 x 1043
H011;28;Mannelijk;Links;5;8;left;no;200;leftarrow;385;true;focus;yes;1060701;Chrome;112.0;Windows;10;undefined;undefined;1564 x 1043;1564 x 1043
H011;28;Mannelijk;Links;5;9;right;no;200;rightarrow;450;true;focus;yes;1061933;Chrome;112.0;Windows;10;undefined;undefined;1564 x 1043;1564 x 1043
H011;28;Mannelijk;Links;5;10;right;yes;200;undefined;null;true;focus;yes;1063984;Chrome;112.0;Windows;10;undefined;undefined;1564 x 1043;1564 x 1043
H011;28;Mannelijk;Links;5;11;right;no;250;rightarrow;464;true;focus;yes;1065232;Chrome;112.0;Windows;10;undefined;undefined;1564 x 1043;1564 x 1043
H011;28;Mannelijk;Links;5;12;left;no;250;leftarrow;402;true;focus;yes;1066421;Chrome;112.0;Windows;10;undefined;undefined;1564 x 1043;1564 x 1043
H011;28;Mannelijk;Links;5;13;right;no;250;rightarrow;360;true;focus;yes;1067566;Chrome;112.0;Windows;10;undefined;undefined;1564 x 1043;1564 x 1043
H011;28;Mannelijk;Links;5;14;left;no;250;leftarrow;345;true;focus;yes;1068700;Chrome;112.0;Windows;10;undefined;undefined;1564 x 1043;1564 x 1043
H011;28;Mannelijk;Links;5;15;left;no;250;leftarrow;496;true;focus;yes;1069987;Chrome;112.0;Windows;10;undefined;undefined;1564 x 1043;1564 x 1043
H011;28;Mannelijk;Links;5;16;left;yes;250;leftarrow;385;false;focus;yes;1071157;Chrome;112.0;Windows;10;undefined;undefined;1564 x 1043;1564 x 1043
H011;28;Mannelijk;Links;5;17;right;no;200;rightarrow;399;true;focus;yes;1072335;Chrome;112.0;Windows;10;undefined;undefined;1564 x 1043;1564 x 1043
H011;28;Mannelijk;Links;5;18;left;no;200;leftarrow;432;true;focus;yes;1073557;Chrome;112.0;Windows;10;undefined;undefined;1564 x 1043;1564 x 1043
H011;28;Mannelijk;Links;5;19;right;yes;200;undefined;null;true;focus;yes;1075602;Chrome;112.0;Windows;10;undefined;undefined;1564 x 1043;1564 x 1043
H011;28;Mannelijk;Links;5;20;left;no;250;leftarrow;398;true;focus;yes;1076792;Chrome;112.0;Windows;10;undefined;undefined;1564 x 1043;1564 x 1043
H011;28;Mannelijk;Links;5;21;left;no;250;leftarrow;394;true;focus;yes;1077973;Chrome;112.0;Windows;10;undefined;undefined;1564 x 1043;1564 x 1043
H011;28;Mannelijk;Links;5;22;right;no;250;rightarrow;397;true;focus;yes;1079158;Chrome;112.0;Windows;10;undefined;undefined;1564 x 1043;1564 x 1043
H011;28;Mannelijk;Links;5;23;right;no;250;rightarrow;435;true;focus;yes;1080381;Chrome;112.0;Windows;10;undefined;undefined;1564 x 1043;1564 x 1043
H011;28;Mannelijk;Links;5;24;left;yes;250;leftarrow;402;false;focus;yes;1081565;Chrome;112.0;Windows;10;undefined;undefined;1564 x 1043;1564 x 1043
H011;28;Mannelijk;Links;5;25;right;no;200;rightarrow;346;true;focus;yes;1082693;Chrome;112.0;Windows;10;undefined;undefined;1564 x 1043;1564 x 1043
H011;28;Mannelijk;Links;5;26;right;yes;200;undefined;null;true;focus;yes;1084733;Chrome;112.0;Windows;10;undefined;undefined;1564 x 1043;1564 x 1043
H011;28;Mannelijk;Links;5;27;left;no;250;leftarrow;393;true;focus;yes;1085910;Chrome;112.0;Windows;10;undefined;undefined;1564 x 1043;1564 x 1043
H011;28;Mannelijk;Links;5;28;left;no;250;leftarrow;488;true;focus;yes;1087190;Chrome;112.0;Windows;10;undefined;undefined;1564 x 1043;1564 x 1043
H011;28;Mannelijk;Links;5;29;left;yes;250;leftarrow;461;false;focus;yes;1088430;Chrome;112.0;Windows;10;undefined;undefined;1564 x 1043;1564 x 1043
H011;28;Mannelijk;Links;5;30;left;no;200;leftarrow;482;true;focus;yes;1089701;Chrome;112.0;Windows;10;undefined;undefined;1564 x 1043;1564 x 1043
H011;28;Mannelijk;Links;5;31;right;no;200;rightarrow;646;true;focus;yes;1091131;Chrome;112.0;Windows;10;undefined;undefined;1564 x 1043;1564 x 1043
H011;28;Mannelijk;Links;5;32;right;no;200;rightarrow;363;true;focus;yes;1092285;Chrome;112.0;Windows;10;undefined;undefined;1564 x 1043;1564 x 1043
H011;28;Mannelijk;Links;5;33;right;no;200;undefined;null;false;focus;yes;1094330;Chrome;112.0;Windows;10;undefined;undefined;1564 x 1043;1564 x 1043
H011;28;Mannelijk;Links;5;34;left;no;200;leftarrow;401;true;focus;yes;1095525;Chrome;112.0;Windows;10;undefined;undefined;1564 x 1043;1564 x 1043
H011;28;Mannelijk;Links;5;35;left;no;200;leftarrow;354;true;focus;yes;1096661;Chrome;112.0;Windows;10;undefined;undefined;1564 x 1043;1564 x 1043
H011;28;Mannelijk;Links;5;36;right;yes;200;undefined;null;true;focus;yes;1098708;Chrome;112.0;Windows;10;undefined;undefined;1564 x 1043;1564 x 1043
H011;28;Mannelijk;Links;5;37;left;no;250;leftarrow;394;true;focus;yes;1099887;Chrome;112.0;Windows;10;undefined;undefined;1564 x 1043;1564 x 1043
H011;28;Mannelijk;Links;5;38;right;no;250;rightarrow;408;true;focus;yes;1101085;Chrome;112.0;Windows;10;undefined;undefined;1564 x 1043;1564 x 1043
H011;28;Mannelijk;Links;5;39;left;yes;250;leftarrow;381;false;focus;yes;1102258;Chrome;112.0;Windows;10;undefined;undefined;1564 x 1043;1564 x 1043
H011;28;Mannelijk;Links;5;40;right;no;200;rightarrow;335;true;focus;yes;1103381;Chrome;112.0;Windows;10;undefined;undefined;1564 x 1043;1564 x 1043
H011;28;Mannelijk;Links;5;41;right;no;200;rightarrow;361;true;focus;yes;1104526;Chrome;112.0;Windows;10;undefined;undefined;1564 x 1043;1564 x 1043
H011;28;Mannelijk;Links;5;42;right;yes;200;rightarrow;333;false;focus;yes;1105646;Chrome;112.0;Windows;10;undefined;undefined;1564 x 1043;1564 x 1043
H011;28;Mannelijk;Links;5;43;left;yes;150;undefined;null;true;focus;yes;1107695;Chrome;112.0;Windows;10;undefined;undefined;1564 x 1043;1564 x 1043
H011;28;Mannelijk;Links;5;44;right;no;200;rightarrow;418;true;focus;yes;1108902;Chrome;112.0;Windows;10;undefined;undefined;1564 x 1043;1564 x 1043
H011;28;Mannelijk;Links;5;45;left;no;200;leftarrow;355;true;focus;yes;1110038;Chrome;112.0;Windows;10;undefined;undefined;1564 x 1043;1564 x 1043
H011;28;Mannelijk;Links;5;46;left;no;200;leftarrow;467;true;focus;yes;1111286;Chrome;112.0;Windows;10;undefined;undefined;1564 x 1043;1564 x 1043
H011;28;Mannelijk;Links;5;47;left;no;200;leftarrow;390;true;focus;yes;1112460;Chrome;112.0;Windows;10;undefined;undefined;1564 x 1043;1564 x 1043
H011;28;Mannelijk;Links;5;48;right;no;200;rightarrow;503;true;focus;yes;1113757;Chrome;112.0;Windows;10;undefined;undefined;1564 x 1043;1564 x 1043
H011;28;Mannelijk;Links;5;49;right;no;200;rightarrow;421;true;focus;yes;1114957;Chrome;112.0;Windows;10;undefined;undefined;1564 x 1043;1564 x 1043
H011;28;Mannelijk;Links;5;50;left;no;200;leftarrow;387;true;focus;yes;1116126;Chrome;112.0;Windows;10;undefined;undefined;1564 x 1043;1564 x 1043
H011;28;Mannelijk;Links;5;51;left;yes;200;leftarrow;391;false;focus;yes;1117294;Chrome;112.0;Windows;10;undefined;undefined;1564 x 1043;1564 x 1043
H011;28;Mannelijk;Links;5;52;right;no;150;rightarrow;412;true;focus;yes;1118501;Chrome;112.0;Windows;10;undefined;undefined;1564 x 1043;1564 x 1043
H011;28;Mannelijk;Links;5;53;left;no;150;leftarrow;420;true;focus;yes;1119710;Chrome;112.0;Windows;10;undefined;undefined;1564 x 1043;1564 x 1043
H011;28;Mannelijk;Links;5;54;right;no;150;rightarrow;444;true;focus;yes;1120936;Chrome;112.0;Windows;10;undefined;undefined;1564 x 1043;1564 x 1043
H011;28;Mannelijk;Links;5;55;left;no;150;leftarrow;484;true;focus;yes;1122205;Chrome;112.0;Windows;10;undefined;undefined;1564 x 1043;1564 x 1043
H011;28;Mannelijk;Links;5;56;right;yes;150;undefined;null;true;focus;yes;1124253;Chrome;112.0;Windows;10;undefined;undefined;1564 x 1043;1564 x 1043
H011;28;Mannelijk;Links;5;57;left;no;200;leftarrow;405;true;focus;yes;1125436;Chrome;112.0;Windows;10;undefined;undefined;1564 x 1043;1564 x 1043
H011;28;Mannelijk;Links;5;58;right;no;200;rightarrow;504;true;focus;yes;1126733;Chrome;112.0;Windows;10;undefined;undefined;1564 x 1043;1564 x 1043
H011;28;Mannelijk;Links;5;59;right;no;200;rightarrow;397;true;focus;yes;1127910;Chrome;112.0;Windows;10;undefined;undefined;1564 x 1043;1564 x 1043
H011;28;Mannelijk;Links;5;60;right;yes;200;rightarrow;381;false;focus;yes;1129078;Chrome;112.0;Windows;10;undefined;undefined;1564 x 1043;1564 x 1043
H011;28;Mannelijk;Links;5;61;left;no;150;leftarrow;365;true;focus;yes;1130229;Chrome;112.0;Windows;10;undefined;undefined;1564 x 1043;1564 x 1043
H011;28;Mannelijk;Links;5;62;left;yes;150;undefined;null;true;focus;yes;1132267;Chrome;112.0;Windows;10;undefined;undefined;1564 x 1043;1564 x 1043
H011;28;Mannelijk;Links;5;63;left;no;200;leftarrow;395;true;focus;yes;1133445;Chrome;112.0;Windows;10;undefined;undefined;1564 x 1043;1564 x 1043
H011;28;Mannelijk;Links;5;64;right;no;200;rightarrow;421;true;focus;yes;1134654;Chrome;112.0;Windows;10;undefined;undefined;1564 x 1043;1564 x 1043
H011;28;Mannelijk;Links;5;65;right;no;200;rightarrow;378;true;focus;yes;1135812;Chrome;112.0;Windows;10;undefined;undefined;1564 x 1043;1564 x 1043
H011;28;Mannelijk;Links;5;66;left;no;200;leftarrow;462;true;focus;yes;1137064;Chrome;112.0;Windows;10;undefined;undefined;1564 x 1043;1564 x 1043
H011;28;Mannelijk;Links;5;67;right;no;200;rightarrow;424;true;focus;yes;1138278;Chrome;112.0;Windows;10;undefined;undefined;1564 x 1043;1564 x 1043
H011;28;Mannelijk;Links;5;68;right;yes;200;undefined;null;true;focus;yes;1140336;Chrome;112.0;Windows;10;undefined;undefined;1564 x 1043;1564 x 1043
H011;28;Mannelijk;Links;5;69;left;no;250;leftarrow;371;true;focus;yes;1141493;Chrome;112.0;Windows;10;undefined;undefined;1564 x 1043;1564 x 1043
H011;28;Mannelijk;Links;5;70;right;no;250;rightarrow;372;true;focus;yes;1142646;Chrome;112.0;Windows;10;undefined;undefined;1564 x 1043;1564 x 1043
H011;28;Mannelijk;Links;5;71;left;no;250;leftarrow;365;true;focus;yes;1143806;Chrome;112.0;Windows;10;undefined;undefined;1564 x 1043;1564 x 1043
H011;28;Mannelijk;Links;5;72;left;yes;250;leftarrow;391;false;focus;yes;1144981;Chrome;112.0;Windows;10;undefined;undefined;1564 x 1043;1564 x 1043
H011;28;Mannelijk;Links;5;73;left;no;200;leftarrow;430;true;focus;yes;1146188;Chrome;112.0;Windows;10;undefined;undefined;1564 x 1043;1564 x 1043
H011;28;Mannelijk;Links;5;74;left;yes;200;leftarrow;373;false;focus;yes;1147349;Chrome;112.0;Windows;10;undefined;undefined;1564 x 1043;1564 x 1043
H011;28;Mannelijk;Links;5;75;right;no;150;rightarrow;446;true;focus;yes;1148573;Chrome;112.0;Windows;10;undefined;undefined;1564 x 1043;1564 x 1043
H011;28;Mannelijk;Links;5;76;left;no;150;leftarrow;461;true;focus;yes;1149823;Chrome;112.0;Windows;10;undefined;undefined;1564 x 1043;1564 x 1043
H011;28;Mannelijk;Links;5;77;right;no;150;rightarrow;362;true;focus;yes;1150974;Chrome;112.0;Windows;10;undefined;undefined;1564 x 1043;1564 x 1043
H011;28;Mannelijk;Links;5;78;right;yes;150;leftarrow;283;false;focus;yes;1152036;Chrome;112.0;Windows;10;undefined;undefined;1564 x 1043;1564 x 1043
H011;28;Mannelijk;Links;5;79;right;no;100;rightarrow;447;true;focus;yes;1153269;Chrome;112.0;Windows;10;undefined;undefined;1564 x 1043;1564 x 1043
H011;28;Mannelijk;Links;5;80;left;no;100;leftarrow;534;true;focus;yes;1154598;Chrome;112.0;Windows;10;undefined;undefined;1564 x 1043;1564 x 1043
H011;28;Mannelijk;Links;5;81;left;no;100;leftarrow;536;true;focus;yes;1155918;Chrome;112.0;Windows;10;undefined;undefined;1564 x 1043;1564 x 1043
H011;28;Mannelijk;Links;5;82;left;no;100;leftarrow;450;true;focus;yes;1157149;Chrome;112.0;Windows;10;undefined;undefined;1564 x 1043;1564 x 1043
H011;28;Mannelijk;Links;5;83;right;yes;100;undefined;null;true;focus;yes;1159193;Chrome;112.0;Windows;10;undefined;undefined;1564 x 1043;1564 x 1043
H011;28;Mannelijk;Links;5;84;left;no;150;leftarrow;428;true;focus;yes;1160413;Chrome;112.0;Windows;10;undefined;undefined;1564 x 1043;1564 x 1043
H011;28;Mannelijk;Links;5;85;right;no;150;rightarrow;449;true;focus;yes;1161649;Chrome;112.0;Windows;10;undefined;undefined;1564 x 1043;1564 x 1043
H011;28;Mannelijk;Links;5;86;right;no;150;rightarrow;453;true;focus;yes;1162894;Chrome;112.0;Windows;10;undefined;undefined;1564 x 1043;1564 x 1043
H011;28;Mannelijk;Links;5;87;left;yes;150;undefined;null;true;focus;yes;1164951;Chrome;112.0;Windows;10;undefined;undefined;1564 x 1043;1564 x 1043
H011;28;Mannelijk;Links;5;88;right;no;200;rightarrow;466;true;focus;yes;1166205;Chrome;112.0;Windows;10;undefined;undefined;1564 x 1043;1564 x 1043
H011;28;Mannelijk;Links;5;89;right;no;200;rightarrow;414;true;focus;yes;1167403;Chrome;112.0;Windows;10;undefined;undefined;1564 x 1043;1564 x 1043
H011;28;Mannelijk;Links;5;90;left;no;200;leftarrow;447;true;focus;yes;1168637;Chrome;112.0;Windows;10;undefined;undefined;1564 x 1043;1564 x 1043
H011;28;Mannelijk;Links;5;91;left;yes;200;undefined;null;true;focus;yes;1170689;Chrome;112.0;Windows;10;undefined;undefined;1564 x 1043;1564 x 1043
H011;28;Mannelijk;Links;5;92;left;no;250;leftarrow;417;true;focus;yes;1171893;Chrome;112.0;Windows;10;undefined;undefined;1564 x 1043;1564 x 1043
H011;28;Mannelijk;Links;5;93;left;no;250;leftarrow;408;true;focus;yes;1173085;Chrome;112.0;Windows;10;undefined;undefined;1564 x 1043;1564 x 1043
H011;28;Mannelijk;Links;5;94;right;no;250;rightarrow;424;true;focus;yes;1174301;Chrome;112.0;Windows;10;undefined;undefined;1564 x 1043;1564 x 1043
H011;28;Mannelijk;Links;5;95;right;yes;250;undefined;null;true;focus;yes;1176349;Chrome;112.0;Windows;10;undefined;undefined;1564 x 1043;1564 x 1043
H011;28;Mannelijk;Links;5;96;right;no;300;rightarrow;547;true;focus;yes;1177675;Chrome;112.0;Windows;10;undefined;undefined;1564 x 1043;1564 x 1043
H011;28;Mannelijk;Links;5;97;right;no;300;rightarrow;381;true;focus;yes;1178846;Chrome;112.0;Windows;10;undefined;undefined;1564 x 1043;1564 x 1043
H011;28;Mannelijk;Links;5;98;right;yes;300;rightarrow;414;false;focus;yes;1180045;Chrome;112.0;Windows;10;undefined;undefined;1564 x 1043;1564 x 1043
H011;28;Mannelijk;Links;5;99;left;no;250;leftarrow;364;true;focus;yes;1181197;Chrome;112.0;Windows;10;undefined;undefined;1564 x 1043;1564 x 1043
H011;28;Mannelijk;Links;5;100;left;no;250;leftarrow;413;true;focus;yes;1182397;Chrome;112.0;Windows;10;undefined;undefined;1564 x 1043;1564 x 1043
H011;28;Mannelijk;Links;5;101;right;no;250;rightarrow;532;true;focus;yes;1183717;Chrome;112.0;Windows;10;undefined;undefined;1564 x 1043;1564 x 1043
H011;28;Mannelijk;Links;5;102;right;no;250;rightarrow;536;true;focus;yes;1185037;Chrome;112.0;Windows;10;undefined;undefined;1564 x 1043;1564 x 1043
H011;28;Mannelijk;Links;5;103;left;no;250;leftarrow;474;true;focus;yes;1186293;Chrome;112.0;Windows;10;undefined;undefined;1564 x 1043;1564 x 1043
H011;28;Mannelijk;Links;5;104;left;yes;250;undefined;null;true;focus;yes;1188338;Chrome;112.0;Windows;10;undefined;undefined;1564 x 1043;1564 x 1043
H011;28;Mannelijk;Links;5;105;left;no;300;leftarrow;468;true;focus;yes;1189590;Chrome;112.0;Windows;10;undefined;undefined;1564 x 1043;1564 x 1043
H011;28;Mannelijk;Links;5;106;left;no;300;leftarrow;395;true;focus;yes;1190768;Chrome;112.0;Windows;10;undefined;undefined;1564 x 1043;1564 x 1043
H011;28;Mannelijk;Links;5;107;right;no;300;rightarrow;465;true;focus;yes;1192021;Chrome;112.0;Windows;10;undefined;undefined;1564 x 1043;1564 x 1043
H011;28;Mannelijk;Links;5;108;left;no;300;leftarrow;344;true;focus;yes;1193151;Chrome;112.0;Windows;10;undefined;undefined;1564 x 1043;1564 x 1043
H011;28;Mannelijk;Links;5;109;right;yes;300;rightarrow;438;false;focus;yes;1194381;Chrome;112.0;Windows;10;undefined;undefined;1564 x 1043;1564 x 1043
H011;28;Mannelijk;Links;5;110;right;no;250;rightarrow;518;true;focus;yes;1195677;Chrome;112.0;Windows;10;undefined;undefined;1564 x 1043;1564 x 1043
H011;28;Mannelijk;Links;5;111;right;no;250;rightarrow;456;true;focus;yes;1196917;Chrome;112.0;Windows;10;undefined;undefined;1564 x 1043;1564 x 1043
H011;28;Mannelijk;Links;5;112;left;yes;250;leftarrow;415;false;focus;yes;1198125;Chrome;112.0;Windows;10;undefined;undefined;1564 x 1043;1564 x 1043
H011;28;Mannelijk;Links;5;113;left;no;200;leftarrow;496;true;focus;yes;1199406;Chrome;112.0;Windows;10;undefined;undefined;1564 x 1043;1564 x 1043
H011;28;Mannelijk;Links;5;114;right;no;200;rightarrow;456;true;focus;yes;1200651;Chrome;112.0;Windows;10;undefined;undefined;1564 x 1043;1564 x 1043
H011;28;Mannelijk;Links;5;115;left;yes;200;undefined;null;true;focus;yes;1202682;Chrome;112.0;Windows;10;undefined;undefined;1564 x 1043;1564 x 1043
H011;28;Mannelijk;Links;5;116;left;no;250;leftarrow;438;true;focus;yes;1203902;Chrome;112.0;Windows;10;undefined;undefined;1564 x 1043;1564 x 1043
H011;28;Mannelijk;Links;5;117;right;no;250;rightarrow;463;true;focus;yes;1205144;Chrome;112.0;Windows;10;undefined;undefined;1564 x 1043;1564 x 1043
H011;28;Mannelijk;Links;5;118;right;yes;250;rightarrow;441;false;focus;yes;1206373;Chrome;112.0;Windows;10;undefined;undefined;1564 x 1043;1564 x 1043
H011;28;Mannelijk;Links;5;119;left;no;200;leftarrow;390;true;focus;yes;1207541;Chrome;112.0;Windows;10;undefined;undefined;1564 x 1043;1564 x 1043
H011;28;Mannelijk;Links;5;120;right;no;200;rightarrow;566;true;focus;yes;1208901;Chrome;112.0;Windows;10;undefined;undefined;1564 x 1043;1564 x 1043
H011;28;Mannelijk;Links;5;121;right;yes;200;undefined;null;true;focus;yes;1210950;Chrome;112.0;Windows;10;undefined;undefined;1564 x 1043;1564 x 1043
H011;28;Mannelijk;Links;5;122;left;no;250;leftarrow;434;true;focus;yes;1212171;Chrome;112.0;Windows;10;undefined;undefined;1564 x 1043;1564 x 1043
H011;28;Mannelijk;Links;5;123;left;yes;250;leftarrow;385;false;focus;yes;1213341;Chrome;112.0;Windows;10;undefined;undefined;1564 x 1043;1564 x 1043
H011;28;Mannelijk;Links;5;124;right;no;200;rightarrow;308;true;focus;yes;1214429;Chrome;112.0;Windows;10;undefined;undefined;1564 x 1043;1564 x 1043
H011;28;Mannelijk;Links;5;125;left;no;200;leftarrow;350;true;focus;yes;1215573;Chrome;112.0;Windows;10;undefined;undefined;1564 x 1043;1564 x 1043
H011;28;Mannelijk;Links;5;126;right;no;200;rightarrow;368;true;focus;yes;1216725;Chrome;112.0;Windows;10;undefined;undefined;1564 x 1043;1564 x 1043
H011;28;Mannelijk;Links;5;127;right;no;200;rightarrow;491;true;focus;yes;1217997;Chrome;112.0;Windows;10;undefined;undefined;1564 x 1043;1564 x 1043
H011;28;Mannelijk;Links;5;128;left;no;200;leftarrow;614;true;focus;yes;1219389;Chrome;112.0;Windows;10;undefined;undefined;1564 x 1043;1564 x 1043
H011;28;Mannelijk;Links;6;1;right;no;200;rightarrow;380;true;focus;yes;1238805;Chrome;112.0;Windows;10;undefined;undefined;1564 x 1043;1564 x 1043
H011;28;Mannelijk;Links;6;2;left;no;200;leftarrow;363;true;focus;yes;1239951;Chrome;112.0;Windows;10;undefined;undefined;1564 x 1043;1564 x 1043
H011;28;Mannelijk;Links;6;3;left;no;200;leftarrow;385;true;focus;yes;1241125;Chrome;112.0;Windows;10;undefined;undefined;1564 x 1043;1564 x 1043
H011;28;Mannelijk;Links;6;4;right;no;200;rightarrow;431;true;focus;yes;1242337;Chrome;112.0;Windows;10;undefined;undefined;1564 x 1043;1564 x 1043
H011;28;Mannelijk;Links;6;5;right;yes;200;undefined;null;true;focus;yes;1244391;Chrome;112.0;Windows;10;undefined;undefined;1564 x 1043;1564 x 1043
H011;28;Mannelijk;Links;6;6;left;yes;250;leftarrow;371;false;focus;yes;1245549;Chrome;112.0;Windows;10;undefined;undefined;1564 x 1043;1564 x 1043
H011;28;Mannelijk;Links;6;7;left;no;200;leftarrow;402;true;focus;yes;1246747;Chrome;112.0;Windows;10;undefined;undefined;1564 x 1043;1564 x 1043
H011;28;Mannelijk;Links;6;8;right;no;200;rightarrow;381;true;focus;yes;1247909;Chrome;112.0;Windows;10;undefined;undefined;1564 x 1043;1564 x 1043
H011;28;Mannelijk;Links;6;9;left;no;200;leftarrow;380;true;focus;yes;1249077;Chrome;112.0;Windows;10;undefined;undefined;1564 x 1043;1564 x 1043
H011;28;Mannelijk;Links;6;10;right;no;200;rightarrow;358;true;focus;yes;1250221;Chrome;112.0;Windows;10;undefined;undefined;1564 x 1043;1564 x 1043
H011;28;Mannelijk;Links;6;11;left;no;200;leftarrow;399;true;focus;yes;1251413;Chrome;112.0;Windows;10;undefined;undefined;1564 x 1043;1564 x 1043
H011;28;Mannelijk;Links;6;12;right;no;200;rightarrow;406;true;focus;yes;1252589;Chrome;112.0;Windows;10;undefined;undefined;1564 x 1043;1564 x 1043
H011;28;Mannelijk;Links;6;13;left;no;200;leftarrow;432;true;focus;yes;1253813;Chrome;112.0;Windows;10;undefined;undefined;1564 x 1043;1564 x 1043
H011;28;Mannelijk;Links;6;14;right;yes;200;undefined;null;true;focus;yes;1255865;Chrome;112.0;Windows;10;undefined;undefined;1564 x 1043;1564 x 1043
H011;28;Mannelijk;Links;6;15;right;no;250;rightarrow;385;true;focus;yes;1257035;Chrome;112.0;Windows;10;undefined;undefined;1564 x 1043;1564 x 1043
H011;28;Mannelijk;Links;6;16;left;yes;250;leftarrow;419;false;focus;yes;1258237;Chrome;112.0;Windows;10;undefined;undefined;1564 x 1043;1564 x 1043
H011;28;Mannelijk;Links;6;17;left;no;200;leftarrow;491;true;focus;yes;1259509;Chrome;112.0;Windows;10;undefined;undefined;1564 x 1043;1564 x 1043
H011;28;Mannelijk;Links;6;18;left;no;200;leftarrow;476;true;focus;yes;1260780;Chrome;112.0;Windows;10;undefined;undefined;1564 x 1043;1564 x 1043
H011;28;Mannelijk;Links;6;19;right;no;200;rightarrow;537;true;focus;yes;1262109;Chrome;112.0;Windows;10;undefined;undefined;1564 x 1043;1564 x 1043
H011;28;Mannelijk;Links;6;20;left;no;200;leftarrow;443;true;focus;yes;1263333;Chrome;112.0;Windows;10;undefined;undefined;1564 x 1043;1564 x 1043
H011;28;Mannelijk;Links;6;21;left;yes;200;undefined;null;true;focus;yes;1265387;Chrome;112.0;Windows;10;undefined;undefined;1564 x 1043;1564 x 1043
H011;28;Mannelijk;Links;6;22;right;no;250;rightarrow;408;true;focus;yes;1266582;Chrome;112.0;Windows;10;undefined;undefined;1564 x 1043;1564 x 1043
H011;28;Mannelijk;Links;6;23;right;no;250;rightarrow;483;true;focus;yes;1267858;Chrome;112.0;Windows;10;undefined;undefined;1564 x 1043;1564 x 1043
H011;28;Mannelijk;Links;6;24;right;yes;250;rightarrow;410;false;focus;yes;1269054;Chrome;112.0;Windows;10;undefined;undefined;1564 x 1043;1564 x 1043
H011;28;Mannelijk;Links;6;25;left;yes;200;leftarrow;386;false;focus;yes;1270229;Chrome;112.0;Windows;10;undefined;undefined;1564 x 1043;1564 x 1043
H011;28;Mannelijk;Links;6;26;right;yes;150;undefined;null;true;focus;yes;1272276;Chrome;112.0;Windows;10;undefined;undefined;1564 x 1043;1564 x 1043
H011;28;Mannelijk;Links;6;27;left;no;200;leftarrow;350;true;focus;yes;1273413;Chrome;112.0;Windows;10;undefined;undefined;1564 x 1043;1564 x 1043
