participantID;age;gender;handedness;block_i;trial_i;stim;signal;SSD;response;rt;correct;focus;Fullscreen;time_elapsed;browser_name;browser_version;os_name;os_version;tablet;mobile;screen_resolution;window_resolution
H035;22;Vrouwelijk;Rechts;0;1;left;no;200;leftarrow;458;true;focus;yes;131783;Chrome;112.0;Windows;10;undefined;undefined;1280 x 720;1280 x 720
H035;22;Vrouwelijk;Rechts;0;2;right;yes;200;rightarrow;387;false;focus;yes;133717;Chrome;112.0;Windows;10;undefined;undefined;1280 x 720;1280 x 720
H035;22;Vrouwelijk;Rechts;0;3;left;no;150;leftarrow;391;true;focus;yes;135660;Chrome;112.0;Windows;10;undefined;undefined;1280 x 720;1280 x 720
H035;22;Vrouwelijk;Rechts;0;4;left;yes;150;leftarrow;366;false;focus;yes;137562;Chrome;112.0;Windows;10;undefined;undefined;1280 x 720;1280 x 720
H035;22;Vrouwelijk;Rechts;0;5;right;no;100;rightarrow;369;true;focus;yes;139453;Chrome;112.0;Windows;10;undefined;undefined;1280 x 720;1280 x 720
H035;22;Vrouwelijk;Rechts;0;6;right;no;100;rightarrow;464;true;focus;yes;141457;Chrome;112.0;Windows;10;undefined;undefined;1280 x 720;1280 x 720
H035;22;Vrouwelijk;Rechts;0;7;right;no;100;rightarrow;495;true;focus;yes;143481;Chrome;112.0;Windows;10;undefined;undefined;1280 x 720;1280 x 720
H035;22;Vrouwelijk;Rechts;0;8;left;no;100;leftarrow;386;true;focus;yes;145424;Chrome;112.0;Windows;10;undefined;undefined;1280 x 720;1280 x 720
H035;22;Vrouwelijk;Rechts;1;1;left;no;100;leftarrow;405;true;focus;yes;166551;Chrome;112.0;Windows;10;undefined;undefined;1280 x 720;1280 x 720
H035;22;Vrouwelijk;Rechts;1;2;left;no;100;leftarrow;399;true;focus;yes;167716;Chrome;112.0;Windows;10;undefined;undefined;1280 x 720;1280 x 720
H035;22;Vrouwelijk;Rechts;1;3;right;yes;100;rightarrow;480;false;focus;yes;168979;Chrome;112.0;Windows;10;undefined;undefined;1280 x 720;1280 x 720
H035;22;Vrouwelijk;Rechts;1;4;right;no;50;rightarrow;619;true;focus;yes;170377;Chrome;112.0;Windows;10;undefined;undefined;1280 x 720;1280 x 720
H035;22;Vrouwelijk;Rechts;1;5;right;no;50;rightarrow;350;true;focus;yes;171514;Chrome;112.0;Windows;10;undefined;undefined;1280 x 720;1280 x 720
H035;22;Vrouwelijk;Rechts;1;6;left;yes;50;undefined;null;true;focus;yes;173554;Chrome;112.0;Windows;10;undefined;undefined;1280 x 720;1280 x 720
H035;22;Vrouwelijk;Rechts;1;7;left;no;100;leftarrow;521;true;focus;yes;174856;Chrome;112.0;Windows;10;undefined;undefined;1280 x 720;1280 x 720
H035;22;Vrouwelijk;Rechts;1;8;right;no;100;rightarrow;423;true;focus;yes;176063;Chrome;112.0;Windows;10;undefined;undefined;1280 x 720;1280 x 720
H035;22;Vrouwelijk;Rechts;1;9;right;yes;100;rightarrow;392;false;focus;yes;177235;Chrome;112.0;Windows;10;undefined;undefined;1280 x 720;1280 x 720
H035;22;Vrouwelijk;Rechts;1;10;right;no;50;rightarrow;397;true;focus;yes;178397;Chrome;112.0;Windows;10;undefined;undefined;1280 x 720;1280 x 720
H035;22;Vrouwelijk;Rechts;1;11;right;no;50;rightarrow;371;true;focus;yes;179561;Chrome;112.0;Windows;10;undefined;undefined;1280 x 720;1280 x 720
H035;22;Vrouwelijk;Rechts;1;12;left;no;50;leftarrow;603;true;focus;yes;180942;Chrome;112.0;Windows;10;undefined;undefined;1280 x 720;1280 x 720
H035;22;Vrouwelijk;Rechts;1;13;left;no;50;leftarrow;377;true;focus;yes;182089;Chrome;112.0;Windows;10;undefined;undefined;1280 x 720;1280 x 720
H035;22;Vrouwelijk;Rechts;1;14;right;no;50;rightarrow;763;true;focus;yes;183618;Chrome;112.0;Windows;10;undefined;undefined;1280 x 720;1280 x 720
H035;22;Vrouwelijk;Rechts;1;15;left;no;50;leftarrow;359;true;focus;yes;184765;Chrome;112.0;Windows;10;undefined;undefined;1280 x 720;1280 x 720
H035;22;Vrouwelijk;Rechts;1;16;left;yes;50;undefined;null;true;focus;yes;186793;Chrome;112.0;Windows;10;undefined;undefined;1280 x 720;1280 x 720
H035;22;Vrouwelijk;Rechts;1;17;right;no;100;rightarrow;323;true;focus;yes;187901;Chrome;112.0;Windows;10;undefined;undefined;1280 x 720;1280 x 720
H035;22;Vrouwelijk;Rechts;1;18;right;no;100;rightarrow;336;true;focus;yes;189017;Chrome;112.0;Windows;10;undefined;undefined;1280 x 720;1280 x 720
H035;22;Vrouwelijk;Rechts;1;19;left;no;100;leftarrow;338;true;focus;yes;190135;Chrome;112.0;Windows;10;undefined;undefined;1280 x 720;1280 x 720
H035;22;Vrouwelijk;Rechts;1;20;left;yes;100;undefined;null;true;focus;yes;192146;Chrome;112.0;Windows;10;undefined;undefined;1280 x 720;1280 x 720
H035;22;Vrouwelijk;Rechts;1;21;right;no;150;rightarrow;374;true;focus;yes;193306;Chrome;112.0;Windows;10;undefined;undefined;1280 x 720;1280 x 720
H035;22;Vrouwelijk;Rechts;1;22;left;no;150;leftarrow;376;true;focus;yes;194458;Chrome;112.0;Windows;10;undefined;undefined;1280 x 720;1280 x 720
H035;22;Vrouwelijk;Rechts;1;23;left;no;150;leftarrow;372;true;focus;yes;195611;Chrome;112.0;Windows;10;undefined;undefined;1280 x 720;1280 x 720
H035;22;Vrouwelijk;Rechts;1;24;right;yes;150;undefined;null;true;focus;yes;197660;Chrome;112.0;Windows;10;undefined;undefined;1280 x 720;1280 x 720
H035;22;Vrouwelijk;Rechts;1;25;left;yes;200;leftarrow;356;false;focus;yes;198797;Chrome;112.0;Windows;10;undefined;undefined;1280 x 720;1280 x 720
H035;22;Vrouwelijk;Rechts;1;26;right;no;150;rightarrow;463;true;focus;yes;200044;Chrome;112.0;Windows;10;undefined;undefined;1280 x 720;1280 x 720
H035;22;Vrouwelijk;Rechts;1;27;left;no;150;leftarrow;407;true;focus;yes;201225;Chrome;112.0;Windows;10;undefined;undefined;1280 x 720;1280 x 720
H035;22;Vrouwelijk;Rechts;1;28;left;no;150;leftarrow;424;true;focus;yes;202418;Chrome;112.0;Windows;10;undefined;undefined;1280 x 720;1280 x 720
H035;22;Vrouwelijk;Rechts;1;29;left;no;150;leftarrow;391;true;focus;yes;203587;Chrome;112.0;Windows;10;undefined;undefined;1280 x 720;1280 x 720
H035;22;Vrouwelijk;Rechts;1;30;right;no;150;rightarrow;448;true;focus;yes;204813;Chrome;112.0;Windows;10;undefined;undefined;1280 x 720;1280 x 720
H035;22;Vrouwelijk;Rechts;1;31;right;no;150;rightarrow;311;true;focus;yes;205899;Chrome;112.0;Windows;10;undefined;undefined;1280 x 720;1280 x 720
H035;22;Vrouwelijk;Rechts;1;32;right;yes;150;rightarrow;341;false;focus;yes;207012;Chrome;112.0;Windows;10;undefined;undefined;1280 x 720;1280 x 720
H035;22;Vrouwelijk;Rechts;1;33;left;no;100;leftarrow;477;true;focus;yes;208249;Chrome;112.0;Windows;10;undefined;undefined;1280 x 720;1280 x 720
H035;22;Vrouwelijk;Rechts;1;34;right;no;100;rightarrow;498;true;focus;yes;209532;Chrome;112.0;Windows;10;undefined;undefined;1280 x 720;1280 x 720
H035;22;Vrouwelijk;Rechts;1;35;left;no;100;leftarrow;427;true;focus;yes;210719;Chrome;112.0;Windows;10;undefined;undefined;1280 x 720;1280 x 720
H035;22;Vrouwelijk;Rechts;1;36;left;no;100;leftarrow;352;true;focus;yes;211857;Chrome;112.0;Windows;10;undefined;undefined;1280 x 720;1280 x 720
H035;22;Vrouwelijk;Rechts;1;37;right;no;100;rightarrow;417;true;focus;yes;213044;Chrome;112.0;Windows;10;undefined;undefined;1280 x 720;1280 x 720
H035;22;Vrouwelijk;Rechts;1;38;right;no;100;rightarrow;323;true;focus;yes;214155;Chrome;112.0;Windows;10;undefined;undefined;1280 x 720;1280 x 720
H035;22;Vrouwelijk;Rechts;1;39;left;yes;100;undefined;null;true;focus;yes;216187;Chrome;112.0;Windows;10;undefined;undefined;1280 x 720;1280 x 720
H035;22;Vrouwelijk;Rechts;1;40;right;yes;150;rightarrow;346;false;focus;yes;217302;Chrome;112.0;Windows;10;undefined;undefined;1280 x 720;1280 x 720
H035;22;Vrouwelijk;Rechts;1;41;right;no;100;rightarrow;399;true;focus;yes;218475;Chrome;112.0;Windows;10;undefined;undefined;1280 x 720;1280 x 720
H035;22;Vrouwelijk;Rechts;1;42;left;no;100;leftarrow;345;true;focus;yes;219592;Chrome;112.0;Windows;10;undefined;undefined;1280 x 720;1280 x 720
H035;22;Vrouwelijk;Rechts;1;43;right;yes;100;undefined;null;true;focus;yes;221637;Chrome;112.0;Windows;10;undefined;undefined;1280 x 720;1280 x 720
H035;22;Vrouwelijk;Rechts;1;44;right;no;150;rightarrow;362;true;focus;yes;222772;Chrome;112.0;Windows;10;undefined;undefined;1280 x 720;1280 x 720
H035;22;Vrouwelijk;Rechts;1;45;right;no;150;rightarrow;418;true;focus;yes;223964;Chrome;112.0;Windows;10;undefined;undefined;1280 x 720;1280 x 720
H035;22;Vrouwelijk;Rechts;1;46;left;no;150;leftarrow;355;true;focus;yes;225102;Chrome;112.0;Windows;10;undefined;undefined;1280 x 720;1280 x 720
H035;22;Vrouwelijk;Rechts;1;47;left;yes;150;leftarrow;379;false;focus;yes;226250;Chrome;112.0;Windows;10;undefined;undefined;1280 x 720;1280 x 720
H035;22;Vrouwelijk;Rechts;1;48;left;no;100;leftarrow;390;true;focus;yes;227411;Chrome;112.0;Windows;10;undefined;undefined;1280 x 720;1280 x 720
H035;22;Vrouwelijk;Rechts;1;49;right;no;100;rightarrow;416;true;focus;yes;228605;Chrome;112.0;Windows;10;undefined;undefined;1280 x 720;1280 x 720
H035;22;Vrouwelijk;Rechts;1;50;left;no;100;leftarrow;373;true;focus;yes;229772;Chrome;112.0;Windows;10;undefined;undefined;1280 x 720;1280 x 720
H035;22;Vrouwelijk;Rechts;1;51;right;yes;100;undefined;null;true;focus;yes;231799;Chrome;112.0;Windows;10;undefined;undefined;1280 x 720;1280 x 720
H035;22;Vrouwelijk;Rechts;1;52;left;no;150;leftarrow;430;true;focus;yes;233003;Chrome;112.0;Windows;10;undefined;undefined;1280 x 720;1280 x 720
H035;22;Vrouwelijk;Rechts;1;53;left;yes;150;undefined;null;true;focus;yes;235030;Chrome;112.0;Windows;10;undefined;undefined;1280 x 720;1280 x 720
H035;22;Vrouwelijk;Rechts;1;54;right;no;200;rightarrow;331;true;focus;yes;236135;Chrome;112.0;Windows;10;undefined;undefined;1280 x 720;1280 x 720
H035;22;Vrouwelijk;Rechts;1;56;left;no;200;leftarrow;376;true;focus;yes;238398;Chrome;112.0;Windows;10;undefined;undefined;1280 x 720;1280 x 720
H035;22;Vrouwelijk;Rechts;1;57;right;no;200;rightarrow;324;true;focus;yes;239501;Chrome;112.0;Windows;10;undefined;undefined;1280 x 720;1280 x 720
H035;22;Vrouwelijk;Rechts;1;55;right;no;200;rightarrow;348;true;focus;yes;237252;Chrome;112.0;Windows;10;undefined;undefined;1280 x 720;1280 x 720
H035;22;Vrouwelijk;Rechts;1;58;right;no;200;rightarrow;381;true;focus;yes;240654;Chrome;112.0;Windows;10;undefined;undefined;1280 x 720;1280 x 720
H035;22;Vrouwelijk;Rechts;1;59;right;yes;200;rightarrow;309;false;focus;yes;241731;Chrome;112.0;Windows;10;undefined;undefined;1280 x 720;1280 x 720
H035;22;Vrouwelijk;Rechts;1;60;right;no;150;rightarrow;453;true;focus;yes;242943;Chrome;112.0;Windows;10;undefined;undefined;1280 x 720;1280 x 720
H035;22;Vrouwelijk;Rechts;1;61;left;no;150;leftarrow;323;true;focus;yes;244034;Chrome;112.0;Windows;10;undefined;undefined;1280 x 720;1280 x 720
H035;22;Vrouwelijk;Rechts;1;62;left;no;150;leftarrow;353;true;focus;yes;245168;Chrome;112.0;Windows;10;undefined;undefined;1280 x 720;1280 x 720
H035;22;Vrouwelijk;Rechts;1;63;left;yes;150;leftarrow;332;false;focus;yes;246270;Chrome;112.0;Windows;10;undefined;undefined;1280 x 720;1280 x 720
H035;22;Vrouwelijk;Rechts;1;64;left;no;100;leftarrow;431;true;focus;yes;247456;Chrome;112.0;Windows;10;undefined;undefined;1280 x 720;1280 x 720
H035;22;Vrouwelijk;Rechts;1;65;right;no;100;rightarrow;527;true;focus;yes;248756;Chrome;112.0;Windows;10;undefined;undefined;1280 x 720;1280 x 720
H035;22;Vrouwelijk;Rechts;1;66;left;no;100;leftarrow;383;true;focus;yes;249917;Chrome;112.0;Windows;10;undefined;undefined;1280 x 720;1280 x 720
H035;22;Vrouwelijk;Rechts;1;67;left;no;100;leftarrow;355;true;focus;yes;251048;Chrome;112.0;Windows;10;undefined;undefined;1280 x 720;1280 x 720
H035;22;Vrouwelijk;Rechts;1;68;right;yes;100;undefined;null;true;focus;yes;253095;Chrome;112.0;Windows;10;undefined;undefined;1280 x 720;1280 x 720
H035;22;Vrouwelijk;Rechts;1;69;right;no;150;rightarrow;342;true;focus;yes;254209;Chrome;112.0;Windows;10;undefined;undefined;1280 x 720;1280 x 720
H035;22;Vrouwelijk;Rechts;1;70;right;no;150;rightarrow;294;true;focus;yes;255276;Chrome;112.0;Windows;10;undefined;undefined;1280 x 720;1280 x 720
H035;22;Vrouwelijk;Rechts;1;71;left;yes;150;undefined;null;true;focus;yes;257308;Chrome;112.0;Windows;10;undefined;undefined;1280 x 720;1280 x 720
H035;22;Vrouwelijk;Rechts;1;72;left;no;200;leftarrow;372;true;focus;yes;258447;Chrome;112.0;Windows;10;undefined;undefined;1280 x 720;1280 x 720
H035;22;Vrouwelijk;Rechts;1;73;left;no;200;leftarrow;298;true;focus;yes;259515;Chrome;112.0;Windows;10;undefined;undefined;1280 x 720;1280 x 720
H035;22;Vrouwelijk;Rechts;1;74;right;no;200;rightarrow;391;true;focus;yes;260688;Chrome;112.0;Windows;10;undefined;undefined;1280 x 720;1280 x 720
H035;22;Vrouwelijk;Rechts;1;75;left;yes;200;leftarrow;335;false;focus;yes;261806;Chrome;112.0;Windows;10;undefined;undefined;1280 x 720;1280 x 720
H035;22;Vrouwelijk;Rechts;1;76;right;no;150;rightarrow;356;true;focus;yes;262931;Chrome;112.0;Windows;10;undefined;undefined;1280 x 720;1280 x 720
H035;22;Vrouwelijk;Rechts;1;77;right;no;150;rightarrow;383;true;focus;yes;264079;Chrome;112.0;Windows;10;undefined;undefined;1280 x 720;1280 x 720
H035;22;Vrouwelijk;Rechts;1;78;right;yes;150;rightarrow;372;false;focus;yes;265222;Chrome;112.0;Windows;10;undefined;undefined;1280 x 720;1280 x 720
H035;22;Vrouwelijk;Rechts;1;79;left;no;100;leftarrow;453;true;focus;yes;266438;Chrome;112.0;Windows;10;undefined;undefined;1280 x 720;1280 x 720
H035;22;Vrouwelijk;Rechts;1;80;left;no;100;leftarrow;355;true;focus;yes;267565;Chrome;112.0;Windows;10;undefined;undefined;1280 x 720;1280 x 720
H035;22;Vrouwelijk;Rechts;1;81;left;no;100;leftarrow;360;true;focus;yes;268704;Chrome;112.0;Windows;10;undefined;undefined;1280 x 720;1280 x 720
H035;22;Vrouwelijk;Rechts;1;82;left;no;100;leftarrow;382;true;focus;yes;269861;Chrome;112.0;Windows;10;undefined;undefined;1280 x 720;1280 x 720
H035;22;Vrouwelijk;Rechts;1;83;right;no;100;rightarrow;531;true;focus;yes;271163;Chrome;112.0;Windows;10;undefined;undefined;1280 x 720;1280 x 720
H035;22;Vrouwelijk;Rechts;1;84;right;no;100;rightarrow;344;true;focus;yes;272286;Chrome;112.0;Windows;10;undefined;undefined;1280 x 720;1280 x 720
H035;22;Vrouwelijk;Rechts;1;85;right;no;100;rightarrow;420;true;focus;yes;273477;Chrome;112.0;Windows;10;undefined;undefined;1280 x 720;1280 x 720
H035;22;Vrouwelijk;Rechts;1;86;left;yes;100;undefined;null;true;focus;yes;275505;Chrome;112.0;Windows;10;undefined;undefined;1280 x 720;1280 x 720
H035;22;Vrouwelijk;Rechts;1;87;right;yes;150;rightarrow;324;false;focus;yes;276624;Chrome;112.0;Windows;10;undefined;undefined;1280 x 720;1280 x 720
H035;22;Vrouwelijk;Rechts;1;88;left;no;100;leftarrow;422;true;focus;yes;277816;Chrome;112.0;Windows;10;undefined;undefined;1280 x 720;1280 x 720
H035;22;Vrouwelijk;Rechts;1;89;left;no;100;leftarrow;398;true;focus;yes;278993;Chrome;112.0;Windows;10;undefined;undefined;1280 x 720;1280 x 720
H035;22;Vrouwelijk;Rechts;1;90;left;no;100;leftarrow;407;true;focus;yes;280155;Chrome;112.0;Windows;10;undefined;undefined;1280 x 720;1280 x 720
H035;22;Vrouwelijk;Rechts;1;91;right;no;100;rightarrow;497;true;focus;yes;281433;Chrome;112.0;Windows;10;undefined;undefined;1280 x 720;1280 x 720
H035;22;Vrouwelijk;Rechts;1;92;right;yes;100;undefined;null;true;focus;yes;283457;Chrome;112.0;Windows;10;undefined;undefined;1280 x 720;1280 x 720
H035;22;Vrouwelijk;Rechts;1;93;right;no;150;rightarrow;336;true;focus;yes;284569;Chrome;112.0;Windows;10;undefined;undefined;1280 x 720;1280 x 720
H035;22;Vrouwelijk;Rechts;1;94;left;yes;150;leftarrow;410;false;focus;yes;285747;Chrome;112.0;Windows;10;undefined;undefined;1280 x 720;1280 x 720
H035;22;Vrouwelijk;Rechts;1;95;left;no;100;leftarrow;405;true;focus;yes;286927;Chrome;112.0;Windows;10;undefined;undefined;1280 x 720;1280 x 720
H035;22;Vrouwelijk;Rechts;1;96;right;no;100;rightarrow;436;true;focus;yes;288146;Chrome;112.0;Windows;10;undefined;undefined;1280 x 720;1280 x 720
H035;22;Vrouwelijk;Rechts;1;97;right;no;100;rightarrow;391;true;focus;yes;289308;Chrome;112.0;Windows;10;undefined;undefined;1280 x 720;1280 x 720
H035;22;Vrouwelijk;Rechts;1;98;left;no;100;leftarrow;416;true;focus;yes;290484;Chrome;112.0;Windows;10;undefined;undefined;1280 x 720;1280 x 720
H035;22;Vrouwelijk;Rechts;1;99;left;no;100;leftarrow;382;true;focus;yes;291637;Chrome;112.0;Windows;10;undefined;undefined;1280 x 720;1280 x 720
H035;22;Vrouwelijk;Rechts;1;100;left;no;100;leftarrow;351;true;focus;yes;292750;Chrome;112.0;Windows;10;undefined;undefined;1280 x 720;1280 x 720
H035;22;Vrouwelijk;Rechts;1;101;right;no;100;rightarrow;410;true;focus;yes;293927;Chrome;112.0;Windows;10;undefined;undefined;1280 x 720;1280 x 720
H035;22;Vrouwelijk;Rechts;1;102;left;yes;100;undefined;null;true;focus;yes;295957;Chrome;112.0;Windows;10;undefined;undefined;1280 x 720;1280 x 720
H035;22;Vrouwelijk;Rechts;1;103;right;yes;150;rightarrow;358;false;focus;yes;297087;Chrome;112.0;Windows;10;undefined;undefined;1280 x 720;1280 x 720
H035;22;Vrouwelijk;Rechts;1;104;right;no;100;rightarrow;444;true;focus;yes;298290;Chrome;112.0;Windows;10;undefined;undefined;1280 x 720;1280 x 720
H035;22;Vrouwelijk;Rechts;1;105;right;yes;100;undefined;null;true;focus;yes;300334;Chrome;112.0;Windows;10;undefined;undefined;1280 x 720;1280 x 720
H035;22;Vrouwelijk;Rechts;1;106;left;no;150;leftarrow;461;true;focus;yes;301578;Chrome;112.0;Windows;10;undefined;undefined;1280 x 720;1280 x 720
H035;22;Vrouwelijk;Rechts;1;107;left;yes;150;undefined;null;true;focus;yes;303616;Chrome;112.0;Windows;10;undefined;undefined;1280 x 720;1280 x 720
H035;22;Vrouwelijk;Rechts;1;108;left;no;200;leftarrow;370;true;focus;yes;304773;Chrome;112.0;Windows;10;undefined;undefined;1280 x 720;1280 x 720
H035;22;Vrouwelijk;Rechts;1;109;right;no;200;rightarrow;384;true;focus;yes;305924;Chrome;112.0;Windows;10;undefined;undefined;1280 x 720;1280 x 720
H035;22;Vrouwelijk;Rechts;1;110;right;no;200;rightarrow;377;true;focus;yes;307093;Chrome;112.0;Windows;10;undefined;undefined;1280 x 720;1280 x 720
H035;22;Vrouwelijk;Rechts;1;111;left;no;200;leftarrow;376;true;focus;yes;308244;Chrome;112.0;Windows;10;undefined;undefined;1280 x 720;1280 x 720
H035;22;Vrouwelijk;Rechts;1;112;right;no;200;rightarrow;396;true;focus;yes;309412;Chrome;112.0;Windows;10;undefined;undefined;1280 x 720;1280 x 720
H035;22;Vrouwelijk;Rechts;1;113;left;no;200;leftarrow;402;true;focus;yes;310574;Chrome;112.0;Windows;10;undefined;undefined;1280 x 720;1280 x 720
H035;22;Vrouwelijk;Rechts;1;114;left;no;200;leftarrow;437;true;focus;yes;311791;Chrome;112.0;Windows;10;undefined;undefined;1280 x 720;1280 x 720
H035;22;Vrouwelijk;Rechts;1;115;right;yes;200;rightarrow;386;false;focus;yes;312963;Chrome;112.0;Windows;10;undefined;undefined;1280 x 720;1280 x 720
H035;22;Vrouwelijk;Rechts;1;116;right;no;150;rightarrow;526;true;focus;yes;314256;Chrome;112.0;Windows;10;undefined;undefined;1280 x 720;1280 x 720
H035;22;Vrouwelijk;Rechts;1;120;left;yes;150;undefined;null;true;focus;yes;319965;Chrome;112.0;Windows;10;undefined;undefined;1280 x 720;1280 x 720
H035;22;Vrouwelijk;Rechts;1;118;right;no;150;rightarrow;515;true;focus;yes;316751;Chrome;112.0;Windows;10;undefined;undefined;1280 x 720;1280 x 720
H035;22;Vrouwelijk;Rechts;1;119;left;no;150;leftarrow;418;true;focus;yes;317944;Chrome;112.0;Windows;10;undefined;undefined;1280 x 720;1280 x 720
H035;22;Vrouwelijk;Rechts;1;117;right;no;150;rightarrow;456;true;focus;yes;315473;Chrome;112.0;Windows;10;undefined;undefined;1280 x 720;1280 x 720
H035;22;Vrouwelijk;Rechts;1;121;left;no;200;leftarrow;414;true;focus;yes;321150;Chrome;112.0;Windows;10;undefined;undefined;1280 x 720;1280 x 720
H035;22;Vrouwelijk;Rechts;1;122;left;yes;200;leftarrow;385;false;focus;yes;322292;Chrome;112.0;Windows;10;undefined;undefined;1280 x 720;1280 x 720
H035;22;Vrouwelijk;Rechts;1;123;right;no;150;rightarrow;495;true;focus;yes;323554;Chrome;112.0;Windows;10;undefined;undefined;1280 x 720;1280 x 720
H035;22;Vrouwelijk;Rechts;1;124;right;no;150;rightarrow;414;true;focus;yes;324747;Chrome;112.0;Windows;10;undefined;undefined;1280 x 720;1280 x 720
H035;22;Vrouwelijk;Rechts;1;125;right;yes;150;undefined;null;true;focus;yes;326788;Chrome;112.0;Windows;10;undefined;undefined;1280 x 720;1280 x 720
H035;22;Vrouwelijk;Rechts;1;126;right;no;200;rightarrow;525;true;focus;yes;328098;Chrome;112.0;Windows;10;undefined;undefined;1280 x 720;1280 x 720
H035;22;Vrouwelijk;Rechts;1;127;left;no;200;leftarrow;479;true;focus;yes;329345;Chrome;112.0;Windows;10;undefined;undefined;1280 x 720;1280 x 720
H035;22;Vrouwelijk;Rechts;1;128;left;no;200;leftarrow;446;true;focus;yes;330562;Chrome;112.0;Windows;10;undefined;undefined;1280 x 720;1280 x 720
H035;22;Vrouwelijk;Rechts;2;1;left;no;200;leftarrow;388;true;focus;yes;354249;Chrome;112.0;Windows;10;undefined;undefined;1280 x 720;1280 x 720
H035;22;Vrouwelijk;Rechts;2;2;left;no;200;leftarrow;340;true;focus;yes;355359;Chrome;112.0;Windows;10;undefined;undefined;1280 x 720;1280 x 720
H035;22;Vrouwelijk;Rechts;2;3;right;no;200;rightarrow;452;true;focus;yes;356578;Chrome;112.0;Windows;10;undefined;undefined;1280 x 720;1280 x 720
H035;22;Vrouwelijk;Rechts;2;4;left;yes;200;leftarrow;393;false;focus;yes;357742;Chrome;112.0;Windows;10;undefined;undefined;1280 x 720;1280 x 720
H035;22;Vrouwelijk;Rechts;2;5;right;no;150;rightarrow;362;true;focus;yes;358877;Chrome;112.0;Windows;10;undefined;undefined;1280 x 720;1280 x 720
H035;22;Vrouwelijk;Rechts;2;6;right;no;150;rightarrow;418;true;focus;yes;360060;Chrome;112.0;Windows;10;undefined;undefined;1280 x 720;1280 x 720
H035;22;Vrouwelijk;Rechts;2;7;left;no;150;leftarrow;431;true;focus;yes;361273;Chrome;112.0;Windows;10;undefined;undefined;1280 x 720;1280 x 720
H035;22;Vrouwelijk;Rechts;2;8;right;yes;150;rightarrow;359;false;focus;yes;362405;Chrome;112.0;Windows;10;undefined;undefined;1280 x 720;1280 x 720
H035;22;Vrouwelijk;Rechts;2;9;right;no;100;rightarrow;459;true;focus;yes;363648;Chrome;112.0;Windows;10;undefined;undefined;1280 x 720;1280 x 720
H035;22;Vrouwelijk;Rechts;2;10;left;no;100;leftarrow;376;true;focus;yes;364784;Chrome;112.0;Windows;10;undefined;undefined;1280 x 720;1280 x 720
H035;22;Vrouwelijk;Rechts;2;11;left;yes;100;undefined;null;true;focus;yes;366833;Chrome;112.0;Windows;10;undefined;undefined;1280 x 720;1280 x 720
H035;22;Vrouwelijk;Rechts;2;12;left;no;150;leftarrow;478;true;focus;yes;368081;Chrome;112.0;Windows;10;undefined;undefined;1280 x 720;1280 x 720
H035;22;Vrouwelijk;Rechts;2;13;right;no;150;rightarrow;362;true;focus;yes;369222;Chrome;112.0;Windows;10;undefined;undefined;1280 x 720;1280 x 720
H035;22;Vrouwelijk;Rechts;2;14;left;no;150;leftarrow;416;true;focus;yes;370425;Chrome;112.0;Windows;10;undefined;undefined;1280 x 720;1280 x 720
H035;22;Vrouwelijk;Rechts;2;15;right;no;150;rightarrow;401;true;focus;yes;371623;Chrome;112.0;Windows;10;undefined;undefined;1280 x 720;1280 x 720
H035;22;Vrouwelijk;Rechts;2;16;right;yes;150;undefined;null;true;focus;yes;373654;Chrome;112.0;Windows;10;undefined;undefined;1280 x 720;1280 x 720
H035;22;Vrouwelijk;Rechts;2;17;left;no;200;leftarrow;377;true;focus;yes;374804;Chrome;112.0;Windows;10;undefined;undefined;1280 x 720;1280 x 720
H035;22;Vrouwelijk;Rechts;2;18;right;no;200;rightarrow;428;true;focus;yes;376006;Chrome;112.0;Windows;10;undefined;undefined;1280 x 720;1280 x 720
H035;22;Vrouwelijk;Rechts;2;19;right;yes;200;rightarrow;410;false;focus;yes;377193;Chrome;112.0;Windows;10;undefined;undefined;1280 x 720;1280 x 720
H035;22;Vrouwelijk;Rechts;2;20;right;no;150;rightarrow;422;true;focus;yes;378390;Chrome;112.0;Windows;10;undefined;undefined;1280 x 720;1280 x 720
H035;22;Vrouwelijk;Rechts;2;21;left;no;150;leftarrow;450;true;focus;yes;379643;Chrome;112.0;Windows;10;undefined;undefined;1280 x 720;1280 x 720
H035;22;Vrouwelijk;Rechts;2;22;right;no;150;rightarrow;392;true;focus;yes;380821;Chrome;112.0;Windows;10;undefined;undefined;1280 x 720;1280 x 720
H035;22;Vrouwelijk;Rechts;2;23;left;yes;150;undefined;null;true;focus;yes;382849;Chrome;112.0;Windows;10;undefined;undefined;1280 x 720;1280 x 720
H035;22;Vrouwelijk;Rechts;2;24;left;no;200;leftarrow;401;true;focus;yes;384013;Chrome;112.0;Windows;10;undefined;undefined;1280 x 720;1280 x 720
H035;22;Vrouwelijk;Rechts;2;25;left;yes;200;leftarrow;408;false;focus;yes;385183;Chrome;112.0;Windows;10;undefined;undefined;1280 x 720;1280 x 720
H035;22;Vrouwelijk;Rechts;2;26;right;no;150;rightarrow;466;true;focus;yes;386430;Chrome;112.0;Windows;10;undefined;undefined;1280 x 720;1280 x 720
H035;22;Vrouwelijk;Rechts;2;27;right;yes;150;undefined;null;true;focus;yes;388467;Chrome;112.0;Windows;10;undefined;undefined;1280 x 720;1280 x 720
H035;22;Vrouwelijk;Rechts;2;28;left;no;200;leftarrow;432;true;focus;yes;389657;Chrome;112.0;Windows;10;undefined;undefined;1280 x 720;1280 x 720
H035;22;Vrouwelijk;Rechts;2;29;right;no;200;rightarrow;526;true;focus;yes;390951;Chrome;112.0;Windows;10;undefined;undefined;1280 x 720;1280 x 720
H035;22;Vrouwelijk;Rechts;2;30;right;no;200;rightarrow;520;true;focus;yes;392247;Chrome;112.0;Windows;10;undefined;undefined;1280 x 720;1280 x 720
H035;22;Vrouwelijk;Rechts;2;31;left;no;200;leftarrow;510;true;focus;yes;393535;Chrome;112.0;Windows;10;undefined;undefined;1280 x 720;1280 x 720
H035;22;Vrouwelijk;Rechts;2;32;left;no;200;leftarrow;437;true;focus;yes;394747;Chrome;112.0;Windows;10;undefined;undefined;1280 x 720;1280 x 720
H035;22;Vrouwelijk;Rechts;2;33;right;no;200;rightarrow;618;true;focus;yes;396130;Chrome;112.0;Windows;10;undefined;undefined;1280 x 720;1280 x 720
H035;22;Vrouwelijk;Rechts;2;34;right;no;200;rightarrow;444;true;focus;yes;397332;Chrome;112.0;Windows;10;undefined;undefined;1280 x 720;1280 x 720
H035;22;Vrouwelijk;Rechts;2;35;left;no;200;leftarrow;458;true;focus;yes;398559;Chrome;112.0;Windows;10;undefined;undefined;1280 x 720;1280 x 720
H035;22;Vrouwelijk;Rechts;2;36;right;no;200;rightarrow;420;true;focus;yes;399772;Chrome;112.0;Windows;10;undefined;undefined;1280 x 720;1280 x 720
H035;22;Vrouwelijk;Rechts;2;37;left;no;200;leftarrow;401;true;focus;yes;400958;Chrome;112.0;Windows;10;undefined;undefined;1280 x 720;1280 x 720
H035;22;Vrouwelijk;Rechts;2;38;right;yes;200;rightarrow;374;false;focus;yes;402107;Chrome;112.0;Windows;10;undefined;undefined;1280 x 720;1280 x 720
H035;22;Vrouwelijk;Rechts;2;39;left;yes;150;undefined;null;true;focus;yes;404127;Chrome;112.0;Windows;10;undefined;undefined;1280 x 720;1280 x 720
H035;22;Vrouwelijk;Rechts;2;40;left;no;200;leftarrow;422;true;focus;yes;405328;Chrome;112.0;Windows;10;undefined;undefined;1280 x 720;1280 x 720
H035;22;Vrouwelijk;Rechts;2;41;right;no;200;rightarrow;342;true;focus;yes;406454;Chrome;112.0;Windows;10;undefined;undefined;1280 x 720;1280 x 720
H035;22;Vrouwelijk;Rechts;2;42;right;no;200;rightarrow;432;true;focus;yes;407647;Chrome;112.0;Windows;10;undefined;undefined;1280 x 720;1280 x 720
H035;22;Vrouwelijk;Rechts;2;43;left;no;200;leftarrow;405;true;focus;yes;408824;Chrome;112.0;Windows;10;undefined;undefined;1280 x 720;1280 x 720
H035;22;Vrouwelijk;Rechts;2;44;left;no;200;leftarrow;372;true;focus;yes;409976;Chrome;112.0;Windows;10;undefined;undefined;1280 x 720;1280 x 720
H035;22;Vrouwelijk;Rechts;2;45;right;yes;200;rightarrow;356;false;focus;yes;411104;Chrome;112.0;Windows;10;undefined;undefined;1280 x 720;1280 x 720
H035;22;Vrouwelijk;Rechts;2;46;left;no;150;leftarrow;366;true;focus;yes;412261;Chrome;112.0;Windows;10;undefined;undefined;1280 x 720;1280 x 720
H035;22;Vrouwelijk;Rechts;2;47;right;no;150;rightarrow;509;true;focus;yes;413544;Chrome;112.0;Windows;10;undefined;undefined;1280 x 720;1280 x 720
H035;22;Vrouwelijk;Rechts;2;48;left;yes;150;undefined;null;true;focus;yes;415574;Chrome;112.0;Windows;10;undefined;undefined;1280 x 720;1280 x 720
H035;22;Vrouwelijk;Rechts;2;49;left;no;200;leftarrow;469;true;focus;yes;416814;Chrome;112.0;Windows;10;undefined;undefined;1280 x 720;1280 x 720
H035;22;Vrouwelijk;Rechts;2;50;left;no;200;leftarrow;448;true;focus;yes;418043;Chrome;112.0;Windows;10;undefined;undefined;1280 x 720;1280 x 720
H035;22;Vrouwelijk;Rechts;2;51;left;no;200;leftarrow;428;true;focus;yes;419235;Chrome;112.0;Windows;10;undefined;undefined;1280 x 720;1280 x 720
H035;22;Vrouwelijk;Rechts;2;52;right;no;200;rightarrow;342;true;focus;yes;420346;Chrome;112.0;Windows;10;undefined;undefined;1280 x 720;1280 x 720
H035;22;Vrouwelijk;Rechts;2;53;right;no;200;rightarrow;384;true;focus;yes;421511;Chrome;112.0;Windows;10;undefined;undefined;1280 x 720;1280 x 720
H035;22;Vrouwelijk;Rechts;2;54;left;yes;200;leftarrow;359;false;focus;yes;422640;Chrome;112.0;Windows;10;undefined;undefined;1280 x 720;1280 x 720
H035;22;Vrouwelijk;Rechts;2;55;right;no;150;rightarrow;528;true;focus;yes;423928;Chrome;112.0;Windows;10;undefined;undefined;1280 x 720;1280 x 720
H035;22;Vrouwelijk;Rechts;2;56;right;yes;150;undefined;null;true;focus;yes;425946;Chrome;112.0;Windows;10;undefined;undefined;1280 x 720;1280 x 720
H035;22;Vrouwelijk;Rechts;2;57;left;no;200;leftarrow;393;true;focus;yes;427106;Chrome;112.0;Windows;10;undefined;undefined;1280 x 720;1280 x 720
H035;22;Vrouwelijk;Rechts;2;58;right;no;200;rightarrow;353;true;focus;yes;428236;Chrome;112.0;Windows;10;undefined;undefined;1280 x 720;1280 x 720
H035;22;Vrouwelijk;Rechts;2;59;right;no;200;rightarrow;356;true;focus;yes;429359;Chrome;112.0;Windows;10;undefined;undefined;1280 x 720;1280 x 720
H035;22;Vrouwelijk;Rechts;2;60;right;yes;200;rightarrow;383;false;focus;yes;430526;Chrome;112.0;Windows;10;undefined;undefined;1280 x 720;1280 x 720
H035;22;Vrouwelijk;Rechts;2;61;right;no;150;rightarrow;390;true;focus;yes;431688;Chrome;112.0;Windows;10;undefined;undefined;1280 x 720;1280 x 720
H035;22;Vrouwelijk;Rechts;2;62;left;no;150;leftarrow;367;true;focus;yes;432832;Chrome;112.0;Windows;10;undefined;undefined;1280 x 720;1280 x 720
H035;22;Vrouwelijk;Rechts;2;63;left;no;150;leftarrow;381;true;focus;yes;433983;Chrome;112.0;Windows;10;undefined;undefined;1280 x 720;1280 x 720
H035;22;Vrouwelijk;Rechts;2;64;left;yes;150;leftarrow;350;false;focus;yes;435105;Chrome;112.0;Windows;10;undefined;undefined;1280 x 720;1280 x 720
H035;22;Vrouwelijk;Rechts;2;65;left;no;100;leftarrow;391;true;focus;yes;436268;Chrome;112.0;Windows;10;undefined;undefined;1280 x 720;1280 x 720
H035;22;Vrouwelijk;Rechts;2;66;left;yes;100;undefined;null;true;focus;yes;438295;Chrome;112.0;Windows;10;undefined;undefined;1280 x 720;1280 x 720
H035;22;Vrouwelijk;Rechts;2;67;left;no;150;leftarrow;455;true;focus;yes;439523;Chrome;112.0;Windows;10;undefined;undefined;1280 x 720;1280 x 720
H035;22;Vrouwelijk;Rechts;2;68;right;no;150;rightarrow;397;true;focus;yes;440689;Chrome;112.0;Windows;10;undefined;undefined;1280 x 720;1280 x 720
H035;22;Vrouwelijk;Rechts;2;69;right;no;150;rightarrow;333;true;focus;yes;441793;Chrome;112.0;Windows;10;undefined;undefined;1280 x 720;1280 x 720
H035;22;Vrouwelijk;Rechts;2;70;right;yes;150;rightarrow;331;false;focus;yes;442911;Chrome;112.0;Windows;10;undefined;undefined;1280 x 720;1280 x 720
H035;22;Vrouwelijk;Rechts;2;71;left;no;100;leftarrow;350;true;focus;yes;444037;Chrome;112.0;Windows;10;undefined;undefined;1280 x 720;1280 x 720
H035;22;Vrouwelijk;Rechts;2;72;right;no;100;rightarrow;422;true;focus;yes;445245;Chrome;112.0;Windows;10;undefined;undefined;1280 x 720;1280 x 720
H035;22;Vrouwelijk;Rechts;2;73;right;yes;100;undefined;null;true;focus;yes;447264;Chrome;112.0;Windows;10;undefined;undefined;1280 x 720;1280 x 720
H035;22;Vrouwelijk;Rechts;2;74;right;no;150;rightarrow;387;true;focus;yes;448436;Chrome;112.0;Windows;10;undefined;undefined;1280 x 720;1280 x 720
H035;22;Vrouwelijk;Rechts;2;75;right;no;150;rightarrow;457;true;focus;yes;449679;Chrome;112.0;Windows;10;undefined;undefined;1280 x 720;1280 x 720
H035;22;Vrouwelijk;Rechts;2;76;left;no;150;leftarrow;465;true;focus;yes;450922;Chrome;112.0;Windows;10;undefined;undefined;1280 x 720;1280 x 720
H035;22;Vrouwelijk;Rechts;2;77;left;no;150;leftarrow;395;true;focus;yes;452090;Chrome;112.0;Windows;10;undefined;undefined;1280 x 720;1280 x 720
H035;22;Vrouwelijk;Rechts;2;78;left;no;150;leftarrow;407;true;focus;yes;453276;Chrome;112.0;Windows;10;undefined;undefined;1280 x 720;1280 x 720
H035;22;Vrouwelijk;Rechts;2;79;right;no;150;rightarrow;472;true;focus;yes;454509;Chrome;112.0;Windows;10;undefined;undefined;1280 x 720;1280 x 720
H035;22;Vrouwelijk;Rechts;2;80;left;yes;150;undefined;null;true;focus;yes;456547;Chrome;112.0;Windows;10;undefined;undefined;1280 x 720;1280 x 720
H035;22;Vrouwelijk;Rechts;2;81;left;no;200;leftarrow;408;true;focus;yes;457735;Chrome;112.0;Windows;10;undefined;undefined;1280 x 720;1280 x 720
H035;22;Vrouwelijk;Rechts;2;82;left;no;200;leftarrow;390;true;focus;yes;458905;Chrome;112.0;Windows;10;undefined;undefined;1280 x 720;1280 x 720
H035;22;Vrouwelijk;Rechts;2;83;right;no;200;rightarrow;418;true;focus;yes;460116;Chrome;112.0;Windows;10;undefined;undefined;1280 x 720;1280 x 720
H035;22;Vrouwelijk;Rechts;2;84;right;no;200;rightarrow;377;true;focus;yes;461271;Chrome;112.0;Windows;10;undefined;undefined;1280 x 720;1280 x 720
H035;22;Vrouwelijk;Rechts;2;85;left;yes;200;undefined;null;true;focus;yes;463296;Chrome;112.0;Windows;10;undefined;undefined;1280 x 720;1280 x 720
H035;22;Vrouwelijk;Rechts;2;86;right;no;250;rightarrow;392;true;focus;yes;464463;Chrome;112.0;Windows;10;undefined;undefined;1280 x 720;1280 x 720
H035;22;Vrouwelijk;Rechts;2;87;left;no;250;leftarrow;429;true;focus;yes;465659;Chrome;112.0;Windows;10;undefined;undefined;1280 x 720;1280 x 720
H035;22;Vrouwelijk;Rechts;2;88;right;yes;250;rightarrow;385;false;focus;yes;466811;Chrome;112.0;Windows;10;undefined;undefined;1280 x 720;1280 x 720
H035;22;Vrouwelijk;Rechts;2;89;right;no;200;rightarrow;423;true;focus;yes;468005;Chrome;112.0;Windows;10;undefined;undefined;1280 x 720;1280 x 720
H035;22;Vrouwelijk;Rechts;2;90;right;yes;200;rightarrow;377;false;focus;yes;469162;Chrome;112.0;Windows;10;undefined;undefined;1280 x 720;1280 x 720
H035;22;Vrouwelijk;Rechts;2;91;left;no;150;leftarrow;463;true;focus;yes;470400;Chrome;112.0;Windows;10;undefined;undefined;1280 x 720;1280 x 720
H035;22;Vrouwelijk;Rechts;2;92;left;yes;150;undefined;null;true;focus;yes;472429;Chrome;112.0;Windows;10;undefined;undefined;1280 x 720;1280 x 720
H035;22;Vrouwelijk;Rechts;2;93;right;no;200;rightarrow;350;true;focus;yes;473571;Chrome;112.0;Windows;10;undefined;undefined;1280 x 720;1280 x 720
H035;22;Vrouwelijk;Rechts;2;94;left;no;200;leftarrow;448;true;focus;yes;474802;Chrome;112.0;Windows;10;undefined;undefined;1280 x 720;1280 x 720
H035;22;Vrouwelijk;Rechts;2;95;left;no;200;leftarrow;386;true;focus;yes;475960;Chrome;112.0;Windows;10;undefined;undefined;1280 x 720;1280 x 720
H035;22;Vrouwelijk;Rechts;2;96;right;no;200;rightarrow;425;true;focus;yes;477153;Chrome;112.0;Windows;10;undefined;undefined;1280 x 720;1280 x 720
H035;22;Vrouwelijk;Rechts;2;97;right;no;200;rightarrow;483;true;focus;yes;478400;Chrome;112.0;Windows;10;undefined;undefined;1280 x 720;1280 x 720
H035;22;Vrouwelijk;Rechts;2;98;right;no;200;rightarrow;508;true;focus;yes;479683;Chrome;112.0;Windows;10;undefined;undefined;1280 x 720;1280 x 720
H035;22;Vrouwelijk;Rechts;2;99;left;no;200;leftarrow;440;true;focus;yes;480901;Chrome;112.0;Windows;10;undefined;undefined;1280 x 720;1280 x 720
H035;22;Vrouwelijk;Rechts;2;100;left;no;200;leftarrow;369;true;focus;yes;482047;Chrome;112.0;Windows;10;undefined;undefined;1280 x 720;1280 x 720
H035;22;Vrouwelijk;Rechts;2;101;left;no;200;leftarrow;369;true;focus;yes;483201;Chrome;112.0;Windows;10;undefined;undefined;1280 x 720;1280 x 720
H035;22;Vrouwelijk;Rechts;2;102;left;yes;200;leftarrow;398;false;focus;yes;484382;Chrome;112.0;Windows;10;undefined;undefined;1280 x 720;1280 x 720
H035;22;Vrouwelijk;Rechts;2;103;right;yes;150;rightarrow;417;false;focus;yes;485568;Chrome;112.0;Windows;10;undefined;undefined;1280 x 720;1280 x 720
H035;22;Vrouwelijk;Rechts;2;104;right;no;100;rightarrow;521;true;focus;yes;486861;Chrome;112.0;Windows;10;undefined;undefined;1280 x 720;1280 x 720
H035;22;Vrouwelijk;Rechts;2;105;left;yes;100;undefined;null;true;focus;yes;488907;Chrome;112.0;Windows;10;undefined;undefined;1280 x 720;1280 x 720
H035;22;Vrouwelijk;Rechts;2;106;right;no;150;rightarrow;364;true;focus;yes;490049;Chrome;112.0;Windows;10;undefined;undefined;1280 x 720;1280 x 720
H035;22;Vrouwelijk;Rechts;2;107;left;no;150;leftarrow;455;true;focus;yes;491274;Chrome;112.0;Windows;10;undefined;undefined;1280 x 720;1280 x 720
H035;22;Vrouwelijk;Rechts;2;108;left;no;150;leftarrow;428;true;focus;yes;492488;Chrome;112.0;Windows;10;undefined;undefined;1280 x 720;1280 x 720
H035;22;Vrouwelijk;Rechts;2;109;right;no;150;rightarrow;429;true;focus;yes;493696;Chrome;112.0;Windows;10;undefined;undefined;1280 x 720;1280 x 720
H035;22;Vrouwelijk;Rechts;2;110;right;no;150;rightarrow;421;true;focus;yes;494887;Chrome;112.0;Windows;10;undefined;undefined;1280 x 720;1280 x 720
H035;22;Vrouwelijk;Rechts;2;111;right;yes;150;undefined;null;true;focus;yes;496907;Chrome;112.0;Windows;10;undefined;undefined;1280 x 720;1280 x 720
H035;22;Vrouwelijk;Rechts;2;112;left;no;200;leftarrow;382;true;focus;yes;498059;Chrome;112.0;Windows;10;undefined;undefined;1280 x 720;1280 x 720
H035;22;Vrouwelijk;Rechts;2;113;right;yes;200;undefined;null;true;focus;yes;500084;Chrome;112.0;Windows;10;undefined;undefined;1280 x 720;1280 x 720
H035;22;Vrouwelijk;Rechts;2;114;right;no;250;rightarrow;372;true;focus;yes;501229;Chrome;112.0;Windows;10;undefined;undefined;1280 x 720;1280 x 720
H035;22;Vrouwelijk;Rechts;2;115;left;no;250;leftarrow;443;true;focus;yes;502453;Chrome;112.0;Windows;10;undefined;undefined;1280 x 720;1280 x 720
H035;22;Vrouwelijk;Rechts;2;116;right;no;250;rightarrow;487;true;focus;yes;503705;Chrome;112.0;Windows;10;undefined;undefined;1280 x 720;1280 x 720
H035;22;Vrouwelijk;Rechts;2;117;left;no;250;leftarrow;456;true;focus;yes;504941;Chrome;112.0;Windows;10;undefined;undefined;1280 x 720;1280 x 720
H035;22;Vrouwelijk;Rechts;2;118;left;yes;250;leftarrow;424;false;focus;yes;506144;Chrome;112.0;Windows;10;undefined;undefined;1280 x 720;1280 x 720
H035;22;Vrouwelijk;Rechts;2;119;right;no;200;rightarrow;498;true;focus;yes;507407;Chrome;112.0;Windows;10;undefined;undefined;1280 x 720;1280 x 720
H035;22;Vrouwelijk;Rechts;2;120;left;no;200;leftarrow;437;true;focus;yes;508614;Chrome;112.0;Windows;10;undefined;undefined;1280 x 720;1280 x 720
H035;22;Vrouwelijk;Rechts;2;121;left;yes;200;undefined;null;true;focus;yes;510653;Chrome;112.0;Windows;10;undefined;undefined;1280 x 720;1280 x 720
H035;22;Vrouwelijk;Rechts;2;122;right;no;250;rightarrow;382;true;focus;yes;511825;Chrome;112.0;Windows;10;undefined;undefined;1280 x 720;1280 x 720
H035;22;Vrouwelijk;Rechts;2;123;left;no;250;leftarrow;362;true;focus;yes;512958;Chrome;112.0;Windows;10;undefined;undefined;1280 x 720;1280 x 720
H035;22;Vrouwelijk;Rechts;2;124;left;no;250;leftarrow;538;true;focus;yes;514271;Chrome;112.0;Windows;10;undefined;undefined;1280 x 720;1280 x 720
H035;22;Vrouwelijk;Rechts;2;125;right;no;250;rightarrow;466;true;focus;yes;515517;Chrome;112.0;Windows;10;undefined;undefined;1280 x 720;1280 x 720
H035;22;Vrouwelijk;Rechts;2;126;right;no;250;rightarrow;391;true;focus;yes;516680;Chrome;112.0;Windows;10;undefined;undefined;1280 x 720;1280 x 720
H035;22;Vrouwelijk;Rechts;2;127;left;no;250;leftarrow;430;true;focus;yes;517887;Chrome;112.0;Windows;10;undefined;undefined;1280 x 720;1280 x 720
H035;22;Vrouwelijk;Rechts;2;128;right;yes;250;rightarrow;394;false;focus;yes;519044;Chrome;112.0;Windows;10;undefined;undefined;1280 x 720;1280 x 720
H035;22;Vrouwelijk;Rechts;3;1;left;no;200;leftarrow;457;true;focus;yes;538005;Chrome;112.0;Windows;10;undefined;undefined;1280 x 720;1280 x 720
H035;22;Vrouwelijk;Rechts;3;2;left;no;200;leftarrow;417;true;focus;yes;539188;Chrome;112.0;Windows;10;undefined;undefined;1280 x 720;1280 x 720
H035;22;Vrouwelijk;Rechts;3;3;right;no;200;rightarrow;396;true;focus;yes;540359;Chrome;112.0;Windows;10;undefined;undefined;1280 x 720;1280 x 720
H035;22;Vrouwelijk;Rechts;3;5;right;no;150;rightarrow;358;true;focus;yes;542654;Chrome;112.0;Windows;10;undefined;undefined;1280 x 720;1280 x 720
H035;22;Vrouwelijk;Rechts;3;4;left;yes;200;leftarrow;395;false;focus;yes;541522;Chrome;112.0;Windows;10;undefined;undefined;1280 x 720;1280 x 720
H035;22;Vrouwelijk;Rechts;3;6;right;no;150;rightarrow;370;true;focus;yes;543806;Chrome;112.0;Windows;10;undefined;undefined;1280 x 720;1280 x 720
H035;22;Vrouwelijk;Rechts;3;7;right;yes;150;rightarrow;390;false;focus;yes;544979;Chrome;112.0;Windows;10;undefined;undefined;1280 x 720;1280 x 720
H035;22;Vrouwelijk;Rechts;3;8;left;no;100;leftarrow;430;true;focus;yes;546186;Chrome;112.0;Windows;10;undefined;undefined;1280 x 720;1280 x 720
H035;22;Vrouwelijk;Rechts;3;9;right;no;100;rightarrow;501;true;focus;yes;547463;Chrome;112.0;Windows;10;undefined;undefined;1280 x 720;1280 x 720
H035;22;Vrouwelijk;Rechts;3;10;left;no;100;leftarrow;432;true;focus;yes;548670;Chrome;112.0;Windows;10;undefined;undefined;1280 x 720;1280 x 720
H035;22;Vrouwelijk;Rechts;3;11;right;no;100;rightarrow;429;true;focus;yes;549883;Chrome;112.0;Windows;10;undefined;undefined;1280 x 720;1280 x 720
H035;22;Vrouwelijk;Rechts;3;12;left;no;100;leftarrow;456;true;focus;yes;551130;Chrome;112.0;Windows;10;undefined;undefined;1280 x 720;1280 x 720
H035;22;Vrouwelijk;Rechts;3;13;left;yes;100;undefined;null;true;focus;yes;553149;Chrome;112.0;Windows;10;undefined;undefined;1280 x 720;1280 x 720
H035;22;Vrouwelijk;Rechts;3;14;right;yes;150;rightarrow;314;false;focus;yes;554247;Chrome;112.0;Windows;10;undefined;undefined;1280 x 720;1280 x 720
H035;22;Vrouwelijk;Rechts;3;15;right;no;100;rightarrow;379;true;focus;yes;555405;Chrome;112.0;Windows;10;undefined;undefined;1280 x 720;1280 x 720
H035;22;Vrouwelijk;Rechts;3;16;left;no;100;leftarrow;428;true;focus;yes;556606;Chrome;112.0;Windows;10;undefined;undefined;1280 x 720;1280 x 720
H035;22;Vrouwelijk;Rechts;3;17;right;no;100;rightarrow;351;true;focus;yes;557724;Chrome;112.0;Windows;10;undefined;undefined;1280 x 720;1280 x 720
H035;22;Vrouwelijk;Rechts;3;18;left;no;100;leftarrow;356;true;focus;yes;558854;Chrome;112.0;Windows;10;undefined;undefined;1280 x 720;1280 x 720
H035;22;Vrouwelijk;Rechts;3;19;left;yes;100;undefined;null;true;focus;yes;560898;Chrome;112.0;Windows;10;undefined;undefined;1280 x 720;1280 x 720
H035;22;Vrouwelijk;Rechts;3;20;left;no;150;leftarrow;389;true;focus;yes;562067;Chrome;112.0;Windows;10;undefined;undefined;1280 x 720;1280 x 720
H035;22;Vrouwelijk;Rechts;3;21;right;no;150;rightarrow;394;true;focus;yes;563249;Chrome;112.0;Windows;10;undefined;undefined;1280 x 720;1280 x 720
H035;22;Vrouwelijk;Rechts;3;22;left;no;150;leftarrow;437;true;focus;yes;564481;Chrome;112.0;Windows;10;undefined;undefined;1280 x 720;1280 x 720
H035;22;Vrouwelijk;Rechts;3;23;right;no;150;rightarrow;528;true;focus;yes;565779;Chrome;112.0;Windows;10;undefined;undefined;1280 x 720;1280 x 720
H035;22;Vrouwelijk;Rechts;3;24;right;yes;150;rightarrow;353;false;focus;yes;566930;Chrome;112.0;Windows;10;undefined;undefined;1280 x 720;1280 x 720
H035;22;Vrouwelijk;Rechts;3;25;right;no;100;rightarrow;400;true;focus;yes;568102;Chrome;112.0;Windows;10;undefined;undefined;1280 x 720;1280 x 720
H035;22;Vrouwelijk;Rechts;3;26;right;no;100;rightarrow;480;true;focus;yes;569357;Chrome;112.0;Windows;10;undefined;undefined;1280 x 720;1280 x 720
H035;22;Vrouwelijk;Rechts;3;27;left;no;100;leftarrow;392;true;focus;yes;570532;Chrome;112.0;Windows;10;undefined;undefined;1280 x 720;1280 x 720
H035;22;Vrouwelijk;Rechts;3;28;right;no;100;rightarrow;473;true;focus;yes;571784;Chrome;112.0;Windows;10;undefined;undefined;1280 x 720;1280 x 720
H035;22;Vrouwelijk;Rechts;3;29;left;no;100;leftarrow;373;true;focus;yes;572936;Chrome;112.0;Windows;10;undefined;undefined;1280 x 720;1280 x 720
H035;22;Vrouwelijk;Rechts;3;30;right;yes;100;undefined;null;true;focus;yes;574968;Chrome;112.0;Windows;10;undefined;undefined;1280 x 720;1280 x 720
H035;22;Vrouwelijk;Rechts;3;31;left;yes;150;leftarrow;352;false;focus;yes;576098;Chrome;112.0;Windows;10;undefined;undefined;1280 x 720;1280 x 720
H035;22;Vrouwelijk;Rechts;3;32;left;no;100;leftarrow;396;true;focus;yes;577285;Chrome;112.0;Windows;10;undefined;undefined;1280 x 720;1280 x 720
H035;22;Vrouwelijk;Rechts;3;33;left;no;100;leftarrow;457;true;focus;yes;578513;Chrome;112.0;Windows;10;undefined;undefined;1280 x 720;1280 x 720
H035;22;Vrouwelijk;Rechts;3;34;right;no;100;rightarrow;382;true;focus;yes;579674;Chrome;112.0;Windows;10;undefined;undefined;1280 x 720;1280 x 720
H035;22;Vrouwelijk;Rechts;3;35;left;no;100;leftarrow;397;true;focus;yes;580831;Chrome;112.0;Windows;10;undefined;undefined;1280 x 720;1280 x 720
H035;22;Vrouwelijk;Rechts;3;36;left;no;100;leftarrow;406;true;focus;yes;582009;Chrome;112.0;Windows;10;undefined;undefined;1280 x 720;1280 x 720
H035;22;Vrouwelijk;Rechts;3;37;right;yes;100;undefined;null;true;focus;yes;584041;Chrome;112.0;Windows;10;undefined;undefined;1280 x 720;1280 x 720
H035;22;Vrouwelijk;Rechts;3;40;right;no;200;rightarrow;351;true;focus;yes;588373;Chrome;112.0;Windows;10;undefined;undefined;1280 x 720;1280 x 720
H035;22;Vrouwelijk;Rechts;3;41;right;no;200;rightarrow;409;true;focus;yes;589564;Chrome;112.0;Windows;10;undefined;undefined;1280 x 720;1280 x 720
H035;22;Vrouwelijk;Rechts;3;39;left;yes;150;undefined;null;true;focus;yes;587254;Chrome;112.0;Windows;10;undefined;undefined;1280 x 720;1280 x 720
H035;22;Vrouwelijk;Rechts;3;38;right;no;150;rightarrow;415;true;focus;yes;585225;Chrome;112.0;Windows;10;undefined;undefined;1280 x 720;1280 x 720
H035;22;Vrouwelijk;Rechts;3;42;right;yes;200;rightarrow;386;false;focus;yes;590730;Chrome;112.0;Windows;10;undefined;undefined;1280 x 720;1280 x 720
H035;22;Vrouwelijk;Rechts;3;44;left;no;150;leftarrow;335;true;focus;yes;593024;Chrome;112.0;Windows;10;undefined;undefined;1280 x 720;1280 x 720
H035;22;Vrouwelijk;Rechts;3;43;left;no;150;leftarrow;397;true;focus;yes;591898;Chrome;112.0;Windows;10;undefined;undefined;1280 x 720;1280 x 720
H035;22;Vrouwelijk;Rechts;3;46;right;no;150;rightarrow;449;true;focus;yes;595431;Chrome;112.0;Windows;10;undefined;undefined;1280 x 720;1280 x 720
H035;22;Vrouwelijk;Rechts;3;45;left;no;150;leftarrow;398;true;focus;yes;594191;Chrome;112.0;Windows;10;undefined;undefined;1280 x 720;1280 x 720
H035;22;Vrouwelijk;Rechts;3;47;left;yes;150;undefined;null;true;focus;yes;597467;Chrome;112.0;Windows;10;undefined;undefined;1280 x 720;1280 x 720
H035;22;Vrouwelijk;Rechts;3;48;right;no;200;rightarrow;379;true;focus;yes;598632;Chrome;112.0;Windows;10;undefined;undefined;1280 x 720;1280 x 720
H035;22;Vrouwelijk;Rechts;3;49;right;yes;200;rightarrow;338;false;focus;yes;599743;Chrome;112.0;Windows;10;undefined;undefined;1280 x 720;1280 x 720
H035;22;Vrouwelijk;Rechts;3;50;right;no;150;rightarrow;337;true;focus;yes;600846;Chrome;112.0;Windows;10;undefined;undefined;1280 x 720;1280 x 720
H035;22;Vrouwelijk;Rechts;3;51;right;no;150;rightarrow;421;true;focus;yes;602053;Chrome;112.0;Windows;10;undefined;undefined;1280 x 720;1280 x 720
H035;22;Vrouwelijk;Rechts;3;52;left;yes;150;undefined;null;true;focus;yes;604106;Chrome;112.0;Windows;10;undefined;undefined;1280 x 720;1280 x 720
H035;22;Vrouwelijk;Rechts;3;53;left;no;200;leftarrow;423;true;focus;yes;605304;Chrome;112.0;Windows;10;undefined;undefined;1280 x 720;1280 x 720
H035;22;Vrouwelijk;Rechts;3;54;left;no;200;leftarrow;364;true;focus;yes;606447;Chrome;112.0;Windows;10;undefined;undefined;1280 x 720;1280 x 720
H035;22;Vrouwelijk;Rechts;3;55;left;no;200;leftarrow;436;true;focus;yes;607668;Chrome;112.0;Windows;10;undefined;undefined;1280 x 720;1280 x 720
H035;22;Vrouwelijk;Rechts;3;56;right;no;200;rightarrow;362;true;focus;yes;608816;Chrome;112.0;Windows;10;undefined;undefined;1280 x 720;1280 x 720
H035;22;Vrouwelijk;Rechts;3;57;right;no;200;rightarrow;403;true;focus;yes;609991;Chrome;112.0;Windows;10;undefined;undefined;1280 x 720;1280 x 720
H035;22;Vrouwelijk;Rechts;3;58;right;no;200;rightarrow;364;true;focus;yes;611124;Chrome;112.0;Windows;10;undefined;undefined;1280 x 720;1280 x 720
H035;22;Vrouwelijk;Rechts;3;59;right;no;200;rightarrow;323;true;focus;yes;612222;Chrome;112.0;Windows;10;undefined;undefined;1280 x 720;1280 x 720
H035;22;Vrouwelijk;Rechts;3;60;left;no;200;leftarrow;456;true;focus;yes;613441;Chrome;112.0;Windows;10;undefined;undefined;1280 x 720;1280 x 720
H035;22;Vrouwelijk;Rechts;3;61;right;yes;200;rightarrow;361;false;focus;yes;614578;Chrome;112.0;Windows;10;undefined;undefined;1280 x 720;1280 x 720
H035;22;Vrouwelijk;Rechts;3;62;left;yes;150;undefined;null;true;focus;yes;616590;Chrome;112.0;Windows;10;undefined;undefined;1280 x 720;1280 x 720
H035;22;Vrouwelijk;Rechts;3;63;left;no;200;leftarrow;411;true;focus;yes;617787;Chrome;112.0;Windows;10;undefined;undefined;1280 x 720;1280 x 720
H035;22;Vrouwelijk;Rechts;3;64;left;no;200;leftarrow;397;true;focus;yes;618946;Chrome;112.0;Windows;10;undefined;undefined;1280 x 720;1280 x 720
H035;22;Vrouwelijk;Rechts;3;65;left;no;200;leftarrow;436;true;focus;yes;620152;Chrome;112.0;Windows;10;undefined;undefined;1280 x 720;1280 x 720
H035;22;Vrouwelijk;Rechts;3;66;right;yes;200;undefined;null;true;focus;yes;622178;Chrome;112.0;Windows;10;undefined;undefined;1280 x 720;1280 x 720
H035;22;Vrouwelijk;Rechts;3;67;right;no;250;rightarrow;367;true;focus;yes;623329;Chrome;112.0;Windows;10;undefined;undefined;1280 x 720;1280 x 720
H035;22;Vrouwelijk;Rechts;3;68;right;no;250;rightarrow;417;true;focus;yes;624512;Chrome;112.0;Windows;10;undefined;undefined;1280 x 720;1280 x 720
H035;22;Vrouwelijk;Rechts;3;69;right;no;250;rightarrow;395;true;focus;yes;625698;Chrome;112.0;Windows;10;undefined;undefined;1280 x 720;1280 x 720
H035;22;Vrouwelijk;Rechts;3;70;left;yes;250;leftarrow;513;false;focus;yes;626986;Chrome;112.0;Windows;10;undefined;undefined;1280 x 720;1280 x 720
H035;22;Vrouwelijk;Rechts;3;71;left;no;200;leftarrow;365;true;focus;yes;628124;Chrome;112.0;Windows;10;undefined;undefined;1280 x 720;1280 x 720
H035;22;Vrouwelijk;Rechts;3;72;left;no;200;leftarrow;426;true;focus;yes;629326;Chrome;112.0;Windows;10;undefined;undefined;1280 x 720;1280 x 720
H035;22;Vrouwelijk;Rechts;3;73;right;no;200;rightarrow;438;true;focus;yes;630528;Chrome;112.0;Windows;10;undefined;undefined;1280 x 720;1280 x 720
H035;22;Vrouwelijk;Rechts;3;74;left;no;200;leftarrow;438;true;focus;yes;631751;Chrome;112.0;Windows;10;undefined;undefined;1280 x 720;1280 x 720
H035;22;Vrouwelijk;Rechts;3;75;left;yes;200;leftarrow;420;false;focus;yes;632957;Chrome;112.0;Windows;10;undefined;undefined;1280 x 720;1280 x 720
H035;22;Vrouwelijk;Rechts;3;76;right;yes;150;undefined;null;true;focus;yes;634979;Chrome;112.0;Windows;10;undefined;undefined;1280 x 720;1280 x 720
H035;22;Vrouwelijk;Rechts;3;77;left;no;200;leftarrow;351;true;focus;yes;636118;Chrome;112.0;Windows;10;undefined;undefined;1280 x 720;1280 x 720
H035;22;Vrouwelijk;Rechts;3;78;left;no;200;leftarrow;404;true;focus;yes;637306;Chrome;112.0;Windows;10;undefined;undefined;1280 x 720;1280 x 720
H035;22;Vrouwelijk;Rechts;3;79;right;no;200;rightarrow;498;true;focus;yes;638589;Chrome;112.0;Windows;10;undefined;undefined;1280 x 720;1280 x 720
H035;22;Vrouwelijk;Rechts;3;80;right;no;200;rightarrow;390;true;focus;yes;639779;Chrome;112.0;Windows;10;undefined;undefined;1280 x 720;1280 x 720
H035;22;Vrouwelijk;Rechts;3;81;left;no;200;leftarrow;472;true;focus;yes;641033;Chrome;112.0;Windows;10;undefined;undefined;1280 x 720;1280 x 720
H035;22;Vrouwelijk;Rechts;3;82;right;no;200;rightarrow;447;true;focus;yes;642270;Chrome;112.0;Windows;10;undefined;undefined;1280 x 720;1280 x 720
H035;22;Vrouwelijk;Rechts;3;83;right;no;200;rightarrow;359;true;focus;yes;643417;Chrome;112.0;Windows;10;undefined;undefined;1280 x 720;1280 x 720
H035;22;Vrouwelijk;Rechts;3;84;left;no;200;leftarrow;388;true;focus;yes;644574;Chrome;112.0;Windows;10;undefined;undefined;1280 x 720;1280 x 720
H035;22;Vrouwelijk;Rechts;3;85;left;yes;200;undefined;null;true;focus;yes;646598;Chrome;112.0;Windows;10;undefined;undefined;1280 x 720;1280 x 720
H035;22;Vrouwelijk;Rechts;3;86;right;no;250;rightarrow;341;true;focus;yes;647721;Chrome;112.0;Windows;10;undefined;undefined;1280 x 720;1280 x 720
H035;22;Vrouwelijk;Rechts;3;87;right;yes;250;rightarrow;357;false;focus;yes;648858;Chrome;112.0;Windows;10;undefined;undefined;1280 x 720;1280 x 720
H035;22;Vrouwelijk;Rechts;3;88;left;no;200;leftarrow;379;true;focus;yes;650015;Chrome;112.0;Windows;10;undefined;undefined;1280 x 720;1280 x 720
H035;22;Vrouwelijk;Rechts;3;89;left;no;200;leftarrow;370;true;focus;yes;651162;Chrome;112.0;Windows;10;undefined;undefined;1280 x 720;1280 x 720
H035;22;Vrouwelijk;Rechts;3;90;left;no;200;leftarrow;382;true;focus;yes;652324;Chrome;112.0;Windows;10;undefined;undefined;1280 x 720;1280 x 720
H035;22;Vrouwelijk;Rechts;3;91;left;yes;200;leftarrow;427;false;focus;yes;653528;Chrome;112.0;Windows;10;undefined;undefined;1280 x 720;1280 x 720
H035;22;Vrouwelijk;Rechts;3;92;left;no;150;leftarrow;427;true;focus;yes;654731;Chrome;112.0;Windows;10;undefined;undefined;1280 x 720;1280 x 720
H035;22;Vrouwelijk;Rechts;3;93;right;no;150;rightarrow;469;true;focus;yes;655975;Chrome;112.0;Windows;10;undefined;undefined;1280 x 720;1280 x 720
H035;22;Vrouwelijk;Rechts;3;94;right;no;150;rightarrow;468;true;focus;yes;657209;Chrome;112.0;Windows;10;undefined;undefined;1280 x 720;1280 x 720
H035;22;Vrouwelijk;Rechts;3;95;right;no;150;rightarrow;410;true;focus;yes;658391;Chrome;112.0;Windows;10;undefined;undefined;1280 x 720;1280 x 720
H035;22;Vrouwelijk;Rechts;3;96;right;yes;150;undefined;null;true;focus;yes;660437;Chrome;112.0;Windows;10;undefined;undefined;1280 x 720;1280 x 720
H035;22;Vrouwelijk;Rechts;3;97;right;no;200;rightarrow;368;true;focus;yes;661577;Chrome;112.0;Windows;10;undefined;undefined;1280 x 720;1280 x 720
H035;22;Vrouwelijk;Rechts;3;98;left;yes;200;undefined;null;true;focus;yes;663620;Chrome;112.0;Windows;10;undefined;undefined;1280 x 720;1280 x 720
H035;22;Vrouwelijk;Rechts;3;99;left;no;250;leftarrow;469;true;focus;yes;664858;Chrome;112.0;Windows;10;undefined;undefined;1280 x 720;1280 x 720
H035;22;Vrouwelijk;Rechts;3;100;right;no;250;rightarrow;349;true;focus;yes;665989;Chrome;112.0;Windows;10;undefined;undefined;1280 x 720;1280 x 720
H035;22;Vrouwelijk;Rechts;3;101;left;no;250;leftarrow;400;true;focus;yes;667176;Chrome;112.0;Windows;10;undefined;undefined;1280 x 720;1280 x 720
H035;22;Vrouwelijk;Rechts;3;102;right;no;250;rightarrow;521;true;focus;yes;668470;Chrome;112.0;Windows;10;undefined;undefined;1280 x 720;1280 x 720
H035;22;Vrouwelijk;Rechts;3;103;left;no;250;leftarrow;369;true;focus;yes;669623;Chrome;112.0;Windows;10;undefined;undefined;1280 x 720;1280 x 720
H035;22;Vrouwelijk;Rechts;3;104;right;yes;250;rightarrow;398;false;focus;yes;670793;Chrome;112.0;Windows;10;undefined;undefined;1280 x 720;1280 x 720
H035;22;Vrouwelijk;Rechts;3;105;right;no;200;rightarrow;425;true;focus;yes;671987;Chrome;112.0;Windows;10;undefined;undefined;1280 x 720;1280 x 720
H035;22;Vrouwelijk;Rechts;3;106;left;no;200;leftarrow;430;true;focus;yes;673195;Chrome;112.0;Windows;10;undefined;undefined;1280 x 720;1280 x 720
H035;22;Vrouwelijk;Rechts;3;107;right;yes;200;undefined;null;true;focus;yes;675223;Chrome;112.0;Windows;10;undefined;undefined;1280 x 720;1280 x 720
H035;22;Vrouwelijk;Rechts;3;108;right;no;250;rightarrow;336;true;focus;yes;676330;Chrome;112.0;Windows;10;undefined;undefined;1280 x 720;1280 x 720
H035;22;Vrouwelijk;Rechts;3;109;left;no;250;leftarrow;365;true;focus;yes;677478;Chrome;112.0;Windows;10;undefined;undefined;1280 x 720;1280 x 720
H035;22;Vrouwelijk;Rechts;3;110;left;yes;250;leftarrow;402;false;focus;yes;678645;Chrome;112.0;Windows;10;undefined;undefined;1280 x 720;1280 x 720
H035;22;Vrouwelijk;Rechts;3;111;right;no;200;rightarrow;364;true;focus;yes;679770;Chrome;112.0;Windows;10;undefined;undefined;1280 x 720;1280 x 720
H035;22;Vrouwelijk;Rechts;3;112;left;no;200;leftarrow;385;true;focus;yes;680932;Chrome;112.0;Windows;10;undefined;undefined;1280 x 720;1280 x 720
H035;22;Vrouwelijk;Rechts;3;113;right;no;200;rightarrow;432;true;focus;yes;682141;Chrome;112.0;Windows;10;undefined;undefined;1280 x 720;1280 x 720
H035;22;Vrouwelijk;Rechts;3;114;left;yes;200;undefined;null;true;focus;yes;684179;Chrome;112.0;Windows;10;undefined;undefined;1280 x 720;1280 x 720
H035;22;Vrouwelijk;Rechts;3;115;left;no;250;leftarrow;392;true;focus;yes;685358;Chrome;112.0;Windows;10;undefined;undefined;1280 x 720;1280 x 720
H035;22;Vrouwelijk;Rechts;3;116;right;no;250;rightarrow;409;true;focus;yes;686551;Chrome;112.0;Windows;10;undefined;undefined;1280 x 720;1280 x 720
H035;22;Vrouwelijk;Rechts;3;117;left;no;250;leftarrow;396;true;focus;yes;687707;Chrome;112.0;Windows;10;undefined;undefined;1280 x 720;1280 x 720
H035;22;Vrouwelijk;Rechts;3;118;right;no;250;rightarrow;365;true;focus;yes;688844;Chrome;112.0;Windows;10;undefined;undefined;1280 x 720;1280 x 720
H035;22;Vrouwelijk;Rechts;3;119;right;yes;250;rightarrow;387;false;focus;yes;690006;Chrome;112.0;Windows;10;undefined;undefined;1280 x 720;1280 x 720
H035;22;Vrouwelijk;Rechts;3;120;left;no;200;leftarrow;383;true;focus;yes;691163;Chrome;112.0;Windows;10;undefined;undefined;1280 x 720;1280 x 720
H035;22;Vrouwelijk;Rechts;3;121;left;no;200;leftarrow;423;true;focus;yes;692350;Chrome;112.0;Windows;10;undefined;undefined;1280 x 720;1280 x 720
H035;22;Vrouwelijk;Rechts;3;122;right;no;200;rightarrow;441;true;focus;yes;693573;Chrome;112.0;Windows;10;undefined;undefined;1280 x 720;1280 x 720
H035;22;Vrouwelijk;Rechts;3;123;right;yes;200;undefined;null;true;focus;yes;695589;Chrome;112.0;Windows;10;undefined;undefined;1280 x 720;1280 x 720
H035;22;Vrouwelijk;Rechts;3;124;left;yes;250;leftarrow;372;false;focus;yes;696740;Chrome;112.0;Windows;10;undefined;undefined;1280 x 720;1280 x 720
H035;22;Vrouwelijk;Rechts;3;125;right;no;200;rightarrow;352;true;focus;yes;697862;Chrome;112.0;Windows;10;undefined;undefined;1280 x 720;1280 x 720
H035;22;Vrouwelijk;Rechts;3;126;right;no;200;rightarrow;467;true;focus;yes;699103;Chrome;112.0;Windows;10;undefined;undefined;1280 x 720;1280 x 720
H035;22;Vrouwelijk;Rechts;3;127;left;no;200;leftarrow;432;true;focus;yes;700315;Chrome;112.0;Windows;10;undefined;undefined;1280 x 720;1280 x 720
H035;22;Vrouwelijk;Rechts;3;128;left;no;200;leftarrow;402;true;focus;yes;701509;Chrome;112.0;Windows;10;undefined;undefined;1280 x 720;1280 x 720
H035;22;Vrouwelijk;Rechts;4;1;right;no;200;rightarrow;417;true;focus;yes;731215;Chrome;112.0;Windows;10;undefined;undefined;1280 x 720;1280 x 720
H035;22;Vrouwelijk;Rechts;4;2;right;yes;200;rightarrow;415;false;focus;yes;732418;Chrome;112.0;Windows;10;undefined;undefined;1280 x 720;1280 x 720
H035;22;Vrouwelijk;Rechts;4;3;left;no;150;leftarrow;496;true;focus;yes;733711;Chrome;112.0;Windows;10;undefined;undefined;1280 x 720;1280 x 720
H035;22;Vrouwelijk;Rechts;4;4;left;no;150;leftarrow;375;true;focus;yes;734852;Chrome;112.0;Windows;10;undefined;undefined;1280 x 720;1280 x 720
H035;22;Vrouwelijk;Rechts;4;5;left;no;150;leftarrow;366;true;focus;yes;735993;Chrome;112.0;Windows;10;undefined;undefined;1280 x 720;1280 x 720
H035;22;Vrouwelijk;Rechts;4;6;right;no;150;rightarrow;413;true;focus;yes;737182;Chrome;112.0;Windows;10;undefined;undefined;1280 x 720;1280 x 720
H035;22;Vrouwelijk;Rechts;4;7;right;no;150;rightarrow;412;true;focus;yes;738369;Chrome;112.0;Windows;10;undefined;undefined;1280 x 720;1280 x 720
H035;22;Vrouwelijk;Rechts;4;8;left;yes;150;undefined;null;true;focus;yes;740412;Chrome;112.0;Windows;10;undefined;undefined;1280 x 720;1280 x 720
H035;22;Vrouwelijk;Rechts;4;9;right;no;200;rightarrow;511;true;focus;yes;741720;Chrome;112.0;Windows;10;undefined;undefined;1280 x 720;1280 x 720
H035;22;Vrouwelijk;Rechts;4;10;left;yes;200;undefined;null;true;focus;yes;743739;Chrome;112.0;Windows;10;undefined;undefined;1280 x 720;1280 x 720
H035;22;Vrouwelijk;Rechts;4;11;left;no;250;leftarrow;407;true;focus;yes;744931;Chrome;112.0;Windows;10;undefined;undefined;1280 x 720;1280 x 720
H035;22;Vrouwelijk;Rechts;4;12;left;no;250;leftarrow;427;true;focus;yes;746137;Chrome;112.0;Windows;10;undefined;undefined;1280 x 720;1280 x 720
H035;22;Vrouwelijk;Rechts;4;13;right;no;250;rightarrow;499;true;focus;yes;747426;Chrome;112.0;Windows;10;undefined;undefined;1280 x 720;1280 x 720
H035;22;Vrouwelijk;Rechts;4;14;right;no;250;rightarrow;468;true;focus;yes;748656;Chrome;112.0;Windows;10;undefined;undefined;1280 x 720;1280 x 720
H035;22;Vrouwelijk;Rechts;4;15;right;yes;250;undefined;null;true;focus;yes;750692;Chrome;112.0;Windows;10;undefined;undefined;1280 x 720;1280 x 720
H035;22;Vrouwelijk;Rechts;4;16;left;no;300;leftarrow;329;true;focus;yes;751805;Chrome;112.0;Windows;10;undefined;undefined;1280 x 720;1280 x 720
H035;22;Vrouwelijk;Rechts;4;17;right;no;300;rightarrow;431;true;focus;yes;753005;Chrome;112.0;Windows;10;undefined;undefined;1280 x 720;1280 x 720
H035;22;Vrouwelijk;Rechts;4;18;left;no;300;leftarrow;489;true;focus;yes;754284;Chrome;112.0;Windows;10;undefined;undefined;1280 x 720;1280 x 720
H035;22;Vrouwelijk;Rechts;4;19;right;no;300;rightarrow;430;true;focus;yes;755482;Chrome;112.0;Windows;10;undefined;undefined;1280 x 720;1280 x 720
H035;22;Vrouwelijk;Rechts;4;20;left;yes;300;leftarrow;438;false;focus;yes;756694;Chrome;112.0;Windows;10;undefined;undefined;1280 x 720;1280 x 720
H035;22;Vrouwelijk;Rechts;4;21;left;no;250;leftarrow;527;true;focus;yes;758007;Chrome;112.0;Windows;10;undefined;undefined;1280 x 720;1280 x 720
H035;22;Vrouwelijk;Rechts;4;22;right;no;250;rightarrow;487;true;focus;yes;759270;Chrome;112.0;Windows;10;undefined;undefined;1280 x 720;1280 x 720
H035;22;Vrouwelijk;Rechts;4;23;left;no;250;leftarrow;536;true;focus;yes;760581;Chrome;112.0;Windows;10;undefined;undefined;1280 x 720;1280 x 720
H035;22;Vrouwelijk;Rechts;4;24;right;yes;250;rightarrow;374;false;focus;yes;761723;Chrome;112.0;Windows;10;undefined;undefined;1280 x 720;1280 x 720
H035;22;Vrouwelijk;Rechts;4;25;right;yes;200;rightarrow;426;false;focus;yes;762934;Chrome;112.0;Windows;10;undefined;undefined;1280 x 720;1280 x 720
H035;22;Vrouwelijk;Rechts;4;26;left;no;150;leftarrow;432;true;focus;yes;764132;Chrome;112.0;Windows;10;undefined;undefined;1280 x 720;1280 x 720
H035;22;Vrouwelijk;Rechts;4;27;left;yes;150;undefined;null;true;focus;yes;766176;Chrome;112.0;Windows;10;undefined;undefined;1280 x 720;1280 x 720
H035;22;Vrouwelijk;Rechts;4;28;left;no;200;leftarrow;340;true;focus;yes;767295;Chrome;112.0;Windows;10;undefined;undefined;1280 x 720;1280 x 720
H035;22;Vrouwelijk;Rechts;4;29;right;no;200;rightarrow;434;true;focus;yes;768506;Chrome;112.0;Windows;10;undefined;undefined;1280 x 720;1280 x 720
H035;22;Vrouwelijk;Rechts;4;30;right;no;200;rightarrow;411;true;focus;yes;769691;Chrome;112.0;Windows;10;undefined;undefined;1280 x 720;1280 x 720
H035;22;Vrouwelijk;Rechts;4;31;left;no;200;leftarrow;419;true;focus;yes;770871;Chrome;112.0;Windows;10;undefined;undefined;1280 x 720;1280 x 720
H035;22;Vrouwelijk;Rechts;4;32;right;no;200;rightarrow;457;true;focus;yes;772129;Chrome;112.0;Windows;10;undefined;undefined;1280 x 720;1280 x 720
H035;22;Vrouwelijk;Rechts;4;33;left;no;200;leftarrow;475;true;focus;yes;773387;Chrome;112.0;Windows;10;undefined;undefined;1280 x 720;1280 x 720
H035;22;Vrouwelijk;Rechts;4;34;right;no;200;rightarrow;365;true;focus;yes;774539;Chrome;112.0;Windows;10;undefined;undefined;1280 x 720;1280 x 720
H035;22;Vrouwelijk;Rechts;4;35;left;yes;200;undefined;null;true;focus;yes;776568;Chrome;112.0;Windows;10;undefined;undefined;1280 x 720;1280 x 720
H035;22;Vrouwelijk;Rechts;4;36;right;no;250;rightarrow;361;true;focus;yes;777701;Chrome;112.0;Windows;10;undefined;undefined;1280 x 720;1280 x 720
H035;22;Vrouwelijk;Rechts;4;37;right;no;250;rightarrow;395;true;focus;yes;778882;Chrome;112.0;Windows;10;undefined;undefined;1280 x 720;1280 x 720
H035;22;Vrouwelijk;Rechts;4;38;left;no;250;leftarrow;334;true;focus;yes;779979;Chrome;112.0;Windows;10;undefined;undefined;1280 x 720;1280 x 720
H035;22;Vrouwelijk;Rechts;4;39;left;no;250;leftarrow;358;true;focus;yes;781127;Chrome;112.0;Windows;10;undefined;undefined;1280 x 720;1280 x 720
H035;22;Vrouwelijk;Rechts;4;40;right;yes;250;rightarrow;361;false;focus;yes;782252;Chrome;112.0;Windows;10;undefined;undefined;1280 x 720;1280 x 720
H035;22;Vrouwelijk;Rechts;4;41;right;yes;200;rightarrow;402;false;focus;yes;783441;Chrome;112.0;Windows;10;undefined;undefined;1280 x 720;1280 x 720
H035;22;Vrouwelijk;Rechts;4;42;left;no;150;leftarrow;379;true;focus;yes;784607;Chrome;112.0;Windows;10;undefined;undefined;1280 x 720;1280 x 720
H035;22;Vrouwelijk;Rechts;4;43;right;no;150;rightarrow;386;true;focus;yes;785772;Chrome;112.0;Windows;10;undefined;undefined;1280 x 720;1280 x 720
H035;22;Vrouwelijk;Rechts;4;44;right;no;150;rightarrow;384;true;focus;yes;786943;Chrome;112.0;Windows;10;undefined;undefined;1280 x 720;1280 x 720
H035;22;Vrouwelijk;Rechts;4;45;right;no;150;rightarrow;399;true;focus;yes;788120;Chrome;112.0;Windows;10;undefined;undefined;1280 x 720;1280 x 720
H035;22;Vrouwelijk;Rechts;4;46;left;yes;150;leftarrow;1220;false;focus;yes;790380;Chrome;112.0;Windows;10;undefined;undefined;1280 x 720;1280 x 720
H035;22;Vrouwelijk;Rechts;4;47;left;no;100;leftarrow;410;true;focus;yes;791576;Chrome;112.0;Windows;10;undefined;undefined;1280 x 720;1280 x 720
H035;22;Vrouwelijk;Rechts;4;48;left;no;100;leftarrow;368;true;focus;yes;792718;Chrome;112.0;Windows;10;undefined;undefined;1280 x 720;1280 x 720
H035;22;Vrouwelijk;Rechts;4;49;right;no;100;rightarrow;549;true;focus;yes;794040;Chrome;112.0;Windows;10;undefined;undefined;1280 x 720;1280 x 720
H035;22;Vrouwelijk;Rechts;4;50;left;no;100;leftarrow;475;true;focus;yes;795299;Chrome;112.0;Windows;10;undefined;undefined;1280 x 720;1280 x 720
H035;22;Vrouwelijk;Rechts;4;51;left;no;100;leftarrow;421;true;focus;yes;796505;Chrome;112.0;Windows;10;undefined;undefined;1280 x 720;1280 x 720
H035;22;Vrouwelijk;Rechts;4;52;left;no;100;leftarrow;411;true;focus;yes;797698;Chrome;112.0;Windows;10;undefined;undefined;1280 x 720;1280 x 720
H035;22;Vrouwelijk;Rechts;4;53;right;no;100;rightarrow;402;true;focus;yes;798871;Chrome;112.0;Windows;10;undefined;undefined;1280 x 720;1280 x 720
H035;22;Vrouwelijk;Rechts;4;54;right;yes;100;undefined;null;true;focus;yes;800928;Chrome;112.0;Windows;10;undefined;undefined;1280 x 720;1280 x 720
H035;22;Vrouwelijk;Rechts;4;55;left;yes;150;undefined;null;true;focus;yes;802956;Chrome;112.0;Windows;10;undefined;undefined;1280 x 720;1280 x 720
H035;22;Vrouwelijk;Rechts;4;56;right;no;200;rightarrow;332;true;focus;yes;804076;Chrome;112.0;Windows;10;undefined;undefined;1280 x 720;1280 x 720
H035;22;Vrouwelijk;Rechts;4;57;right;no;200;rightarrow;357;true;focus;yes;805218;Chrome;112.0;Windows;10;undefined;undefined;1280 x 720;1280 x 720
H035;22;Vrouwelijk;Rechts;4;58;left;no;200;leftarrow;357;true;focus;yes;806359;Chrome;112.0;Windows;10;undefined;undefined;1280 x 720;1280 x 720
H035;22;Vrouwelijk;Rechts;4;59;right;no;200;rightarrow;334;true;focus;yes;807457;Chrome;112.0;Windows;10;undefined;undefined;1280 x 720;1280 x 720
H035;22;Vrouwelijk;Rechts;4;60;left;no;200;leftarrow;339;true;focus;yes;808582;Chrome;112.0;Windows;10;undefined;undefined;1280 x 720;1280 x 720
H035;22;Vrouwelijk;Rechts;4;61;right;yes;200;rightarrow;375;false;focus;yes;809720;Chrome;112.0;Windows;10;undefined;undefined;1280 x 720;1280 x 720
H035;22;Vrouwelijk;Rechts;4;62;left;yes;150;leftarrow;360;false;focus;yes;810859;Chrome;112.0;Windows;10;undefined;undefined;1280 x 720;1280 x 720
H035;22;Vrouwelijk;Rechts;4;63;left;no;100;leftarrow;387;true;focus;yes;812030;Chrome;112.0;Windows;10;undefined;undefined;1280 x 720;1280 x 720
H035;22;Vrouwelijk;Rechts;4;64;right;no;100;rightarrow;397;true;focus;yes;813203;Chrome;112.0;Windows;10;undefined;undefined;1280 x 720;1280 x 720
H035;22;Vrouwelijk;Rechts;4;65;left;no;100;leftarrow;465;true;focus;yes;814445;Chrome;112.0;Windows;10;undefined;undefined;1280 x 720;1280 x 720
H035;22;Vrouwelijk;Rechts;4;66;right;no;100;rightarrow;472;true;focus;yes;815692;Chrome;112.0;Windows;10;undefined;undefined;1280 x 720;1280 x 720
H035;22;Vrouwelijk;Rechts;4;67;left;no;100;leftarrow;490;true;focus;yes;816979;Chrome;112.0;Windows;10;undefined;undefined;1280 x 720;1280 x 720
H035;22;Vrouwelijk;Rechts;4;68;right;yes;100;undefined;null;true;focus;yes;819011;Chrome;112.0;Windows;10;undefined;undefined;1280 x 720;1280 x 720
H035;22;Vrouwelijk;Rechts;4;69;right;no;150;rightarrow;374;true;focus;yes;820176;Chrome;112.0;Windows;10;undefined;undefined;1280 x 720;1280 x 720
H035;22;Vrouwelijk;Rechts;4;70;left;yes;150;leftarrow;349;false;focus;yes;821302;Chrome;112.0;Windows;10;undefined;undefined;1280 x 720;1280 x 720
H035;22;Vrouwelijk;Rechts;4;71;right;no;100;rightarrow;381;true;focus;yes;822455;Chrome;112.0;Windows;10;undefined;undefined;1280 x 720;1280 x 720
H035;22;Vrouwelijk;Rechts;4;72;left;no;100;leftarrow;495;true;focus;yes;823728;Chrome;112.0;Windows;10;undefined;undefined;1280 x 720;1280 x 720
H035;22;Vrouwelijk;Rechts;4;73;right;no;100;rightarrow;436;true;focus;yes;824934;Chrome;112.0;Windows;10;undefined;undefined;1280 x 720;1280 x 720
H035;22;Vrouwelijk;Rechts;4;74;right;no;100;rightarrow;598;true;focus;yes;826317;Chrome;112.0;Windows;10;undefined;undefined;1280 x 720;1280 x 720
H035;22;Vrouwelijk;Rechts;4;75;right;no;100;rightarrow;486;true;focus;yes;827584;Chrome;112.0;Windows;10;undefined;undefined;1280 x 720;1280 x 720
H035;22;Vrouwelijk;Rechts;4;76;right;yes;100;undefined;null;true;focus;yes;829614;Chrome;112.0;Windows;10;undefined;undefined;1280 x 720;1280 x 720
H035;22;Vrouwelijk;Rechts;4;77;left;no;150;leftarrow;336;true;focus;yes;830735;Chrome;112.0;Windows;10;undefined;undefined;1280 x 720;1280 x 720
H035;22;Vrouwelijk;Rechts;4;78;left;yes;150;undefined;null;true;focus;yes;832771;Chrome;112.0;Windows;10;undefined;undefined;1280 x 720;1280 x 720
H035;22;Vrouwelijk;Rechts;4;79;left;no;200;leftarrow;410;true;focus;yes;833952;Chrome;112.0;Windows;10;undefined;undefined;1280 x 720;1280 x 720
H035;22;Vrouwelijk;Rechts;4;80;left;no;200;leftarrow;420;true;focus;yes;835134;Chrome;112.0;Windows;10;undefined;undefined;1280 x 720;1280 x 720
H035;22;Vrouwelijk;Rechts;4;81;right;no;200;rightarrow;400;true;focus;yes;836321;Chrome;112.0;Windows;10;undefined;undefined;1280 x 720;1280 x 720
H035;22;Vrouwelijk;Rechts;4;82;left;no;200;leftarrow;393;true;focus;yes;837499;Chrome;112.0;Windows;10;undefined;undefined;1280 x 720;1280 x 720
H035;22;Vrouwelijk;Rechts;4;83;right;yes;200;undefined;null;true;focus;yes;839550;Chrome;112.0;Windows;10;undefined;undefined;1280 x 720;1280 x 720
H035;22;Vrouwelijk;Rechts;4;84;left;yes;250;leftarrow;369;false;focus;yes;840686;Chrome;112.0;Windows;10;undefined;undefined;1280 x 720;1280 x 720
H035;22;Vrouwelijk;Rechts;4;85;right;no;200;rightarrow;408;true;focus;yes;841862;Chrome;112.0;Windows;10;undefined;undefined;1280 x 720;1280 x 720
H035;22;Vrouwelijk;Rechts;4;86;left;no;200;leftarrow;441;true;focus;yes;843084;Chrome;112.0;Windows;10;undefined;undefined;1280 x 720;1280 x 720
H035;22;Vrouwelijk;Rechts;4;87;right;no;200;rightarrow;444;true;focus;yes;844297;Chrome;112.0;Windows;10;undefined;undefined;1280 x 720;1280 x 720
H035;22;Vrouwelijk;Rechts;4;88;left;no;200;leftarrow;375;true;focus;yes;845454;Chrome;112.0;Windows;10;undefined;undefined;1280 x 720;1280 x 720
H035;22;Vrouwelijk;Rechts;4;89;left;yes;200;undefined;null;true;focus;yes;847489;Chrome;112.0;Windows;10;undefined;undefined;1280 x 720;1280 x 720
H035;22;Vrouwelijk;Rechts;4;90;left;no;250;leftarrow;422;true;focus;yes;848685;Chrome;112.0;Windows;10;undefined;undefined;1280 x 720;1280 x 720
H035;22;Vrouwelijk;Rechts;4;91;left;no;250;leftarrow;400;true;focus;yes;849867;Chrome;112.0;Windows;10;undefined;undefined;1280 x 720;1280 x 720
H035;22;Vrouwelijk;Rechts;4;92;left;no;250;leftarrow;452;true;focus;yes;851105;Chrome;112.0;Windows;10;undefined;undefined;1280 x 720;1280 x 720
H035;22;Vrouwelijk;Rechts;4;93;right;yes;250;rightarrow;396;false;focus;yes;852272;Chrome;112.0;Windows;10;undefined;undefined;1280 x 720;1280 x 720
H035;22;Vrouwelijk;Rechts;4;94;right;no;200;rightarrow;435;true;focus;yes;853483;Chrome;112.0;Windows;10;undefined;undefined;1280 x 720;1280 x 720
H035;22;Vrouwelijk;Rechts;4;95;right;no;200;rightarrow;375;true;focus;yes;854637;Chrome;112.0;Windows;10;undefined;undefined;1280 x 720;1280 x 720
H035;22;Vrouwelijk;Rechts;4;96;right;no;200;rightarrow;453;true;focus;yes;855870;Chrome;112.0;Windows;10;undefined;undefined;1280 x 720;1280 x 720
H035;22;Vrouwelijk;Rechts;4;97;right;no;200;rightarrow;512;true;focus;yes;857160;Chrome;112.0;Windows;10;undefined;undefined;1280 x 720;1280 x 720
H035;22;Vrouwelijk;Rechts;4;98;left;no;200;leftarrow;441;true;focus;yes;858399;Chrome;112.0;Windows;10;undefined;undefined;1280 x 720;1280 x 720
H035;22;Vrouwelijk;Rechts;4;99;right;no;200;rightarrow;502;true;focus;yes;859681;Chrome;112.0;Windows;10;undefined;undefined;1280 x 720;1280 x 720
H035;22;Vrouwelijk;Rechts;4;100;right;no;200;rightarrow;414;true;focus;yes;860867;Chrome;112.0;Windows;10;undefined;undefined;1280 x 720;1280 x 720
H035;22;Vrouwelijk;Rechts;4;101;left;yes;200;undefined;null;true;focus;yes;862889;Chrome;112.0;Windows;10;undefined;undefined;1280 x 720;1280 x 720
H035;22;Vrouwelijk;Rechts;4;102;right;yes;250;rightarrow;294;false;focus;yes;863967;Chrome;112.0;Windows;10;undefined;undefined;1280 x 720;1280 x 720
H035;22;Vrouwelijk;Rechts;4;103;left;no;200;leftarrow;407;true;focus;yes;865137;Chrome;112.0;Windows;10;undefined;undefined;1280 x 720;1280 x 720
H035;22;Vrouwelijk;Rechts;4;104;left;no;200;leftarrow;417;true;focus;yes;866334;Chrome;112.0;Windows;10;undefined;undefined;1280 x 720;1280 x 720
H035;22;Vrouwelijk;Rechts;4;105;right;no;200;rightarrow;373;true;focus;yes;867760;Chrome;112.0;Windows;10;undefined;undefined;1280 x 720;1280 x 720
H035;22;Vrouwelijk;Rechts;4;106;left;yes;200;leftarrow;416;false;focus;yes;868959;Chrome;112.0;Windows;10;undefined;undefined;1280 x 720;1280 x 720
H035;22;Vrouwelijk;Rechts;4;107;right;yes;150;undefined;null;true;focus;yes;870982;Chrome;112.0;Windows;10;undefined;undefined;1280 x 720;1280 x 720
H035;22;Vrouwelijk;Rechts;4;108;left;no;200;leftarrow;379;true;focus;yes;872133;Chrome;112.0;Windows;10;undefined;undefined;1280 x 720;1280 x 720
H035;22;Vrouwelijk;Rechts;4;109;left;no;200;leftarrow;436;true;focus;yes;873332;Chrome;112.0;Windows;10;undefined;undefined;1280 x 720;1280 x 720
H035;22;Vrouwelijk;Rechts;4;110;right;no;200;rightarrow;398;true;focus;yes;874509;Chrome;112.0;Windows;10;undefined;undefined;1280 x 720;1280 x 720
H035;22;Vrouwelijk;Rechts;4;111;right;no;200;rightarrow;433;true;focus;yes;875705;Chrome;112.0;Windows;10;undefined;undefined;1280 x 720;1280 x 720
H035;22;Vrouwelijk;Rechts;4;112;left;no;200;leftarrow;451;true;focus;yes;876920;Chrome;112.0;Windows;10;undefined;undefined;1280 x 720;1280 x 720
H035;22;Vrouwelijk;Rechts;4;113;left;no;200;leftarrow;427;true;focus;yes;878131;Chrome;112.0;Windows;10;undefined;undefined;1280 x 720;1280 x 720
H035;22;Vrouwelijk;Rechts;4;114;left;no;200;leftarrow;442;true;focus;yes;879368;Chrome;112.0;Windows;10;undefined;undefined;1280 x 720;1280 x 720
H035;22;Vrouwelijk;Rechts;4;115;left;yes;200;leftarrow;391;false;focus;yes;880535;Chrome;112.0;Windows;10;undefined;undefined;1280 x 720;1280 x 720
H035;22;Vrouwelijk;Rechts;4;116;right;no;150;rightarrow;393;true;focus;yes;881694;Chrome;112.0;Windows;10;undefined;undefined;1280 x 720;1280 x 720
H035;22;Vrouwelijk;Rechts;4;117;right;yes;150;undefined;null;true;focus;yes;883740;Chrome;112.0;Windows;10;undefined;undefined;1280 x 720;1280 x 720
H035;22;Vrouwelijk;Rechts;4;118;right;no;200;rightarrow;405;true;focus;yes;884920;Chrome;112.0;Windows;10;undefined;undefined;1280 x 720;1280 x 720
H035;22;Vrouwelijk;Rechts;4;119;right;no;200;rightarrow;578;true;focus;yes;886277;Chrome;112.0;Windows;10;undefined;undefined;1280 x 720;1280 x 720
H035;22;Vrouwelijk;Rechts;4;120;left;no;200;leftarrow;434;true;focus;yes;887484;Chrome;112.0;Windows;10;undefined;undefined;1280 x 720;1280 x 720
H035;22;Vrouwelijk;Rechts;4;121;left;no;200;leftarrow;387;true;focus;yes;888662;Chrome;112.0;Windows;10;undefined;undefined;1280 x 720;1280 x 720
H035;22;Vrouwelijk;Rechts;4;122;left;no;200;leftarrow;345;true;focus;yes;889783;Chrome;112.0;Windows;10;undefined;undefined;1280 x 720;1280 x 720
H035;22;Vrouwelijk;Rechts;4;123;right;yes;200;undefined;null;true;focus;yes;891814;Chrome;112.0;Windows;10;undefined;undefined;1280 x 720;1280 x 720
H035;22;Vrouwelijk;Rechts;4;124;right;no;250;rightarrow;460;true;focus;yes;893045;Chrome;112.0;Windows;10;undefined;undefined;1280 x 720;1280 x 720
H035;22;Vrouwelijk;Rechts;4;125;right;no;250;rightarrow;488;true;focus;yes;894298;Chrome;112.0;Windows;10;undefined;undefined;1280 x 720;1280 x 720
H035;22;Vrouwelijk;Rechts;4;126;right;no;250;rightarrow;470;true;focus;yes;895545;Chrome;112.0;Windows;10;undefined;undefined;1280 x 720;1280 x 720
H035;22;Vrouwelijk;Rechts;4;127;left;no;250;leftarrow;542;true;focus;yes;896853;Chrome;112.0;Windows;10;undefined;undefined;1280 x 720;1280 x 720
H035;22;Vrouwelijk;Rechts;4;128;left;yes;250;undefined;null;true;focus;yes;898873;Chrome;112.0;Windows;10;undefined;undefined;1280 x 720;1280 x 720
H035;22;Vrouwelijk;Rechts;5;1;right;no;300;rightarrow;470;true;focus;yes;921535;Chrome;112.0;Windows;10;undefined;undefined;1280 x 720;1280 x 720
H035;22;Vrouwelijk;Rechts;5;2;right;no;300;rightarrow;414;true;focus;yes;922728;Chrome;112.0;Windows;10;undefined;undefined;1280 x 720;1280 x 720
H035;22;Vrouwelijk;Rechts;5;3;left;yes;300;leftarrow;436;false;focus;yes;923939;Chrome;112.0;Windows;10;undefined;undefined;1280 x 720;1280 x 720
H035;22;Vrouwelijk;Rechts;5;4;left;no;250;leftarrow;444;true;focus;yes;925156;Chrome;112.0;Windows;10;undefined;undefined;1280 x 720;1280 x 720
H035;22;Vrouwelijk;Rechts;5;5;right;no;250;rightarrow;549;true;focus;yes;926480;Chrome;112.0;Windows;10;undefined;undefined;1280 x 720;1280 x 720
H035;22;Vrouwelijk;Rechts;5;6;left;no;250;leftarrow;409;true;focus;yes;927677;Chrome;112.0;Windows;10;undefined;undefined;1280 x 720;1280 x 720
H035;22;Vrouwelijk;Rechts;5;7;left;no;250;leftarrow;422;true;focus;yes;928879;Chrome;112.0;Windows;10;undefined;undefined;1280 x 720;1280 x 720
H035;22;Vrouwelijk;Rechts;5;8;right;yes;250;rightarrow;374;false;focus;yes;930301;Chrome;112.0;Windows;10;undefined;undefined;1280 x 720;1280 x 720
H035;22;Vrouwelijk;Rechts;5;9;left;yes;200;undefined;null;true;focus;yes;932350;Chrome;112.0;Windows;10;undefined;undefined;1280 x 720;1280 x 720
H035;22;Vrouwelijk;Rechts;5;10;left;no;250;leftarrow;363;true;focus;yes;933498;Chrome;112.0;Windows;10;undefined;undefined;1280 x 720;1280 x 720
H035;22;Vrouwelijk;Rechts;5;11;right;no;250;rightarrow;449;true;focus;yes;934726;Chrome;112.0;Windows;10;undefined;undefined;1280 x 720;1280 x 720
H035;22;Vrouwelijk;Rechts;5;12;left;no;250;leftarrow;400;true;focus;yes;935898;Chrome;112.0;Windows;10;undefined;undefined;1280 x 720;1280 x 720
H035;22;Vrouwelijk;Rechts;5;13;right;yes;250;rightarrow;446;false;focus;yes;937131;Chrome;112.0;Windows;10;undefined;undefined;1280 x 720;1280 x 720
H035;22;Vrouwelijk;Rechts;5;14;left;no;200;leftarrow;512;true;focus;yes;938418;Chrome;112.0;Windows;10;undefined;undefined;1280 x 720;1280 x 720
H035;22;Vrouwelijk;Rechts;5;15;right;no;200;rightarrow;479;true;focus;yes;939676;Chrome;112.0;Windows;10;undefined;undefined;1280 x 720;1280 x 720
H035;22;Vrouwelijk;Rechts;5;16;right;no;200;rightarrow;496;true;focus;yes;940963;Chrome;112.0;Windows;10;undefined;undefined;1280 x 720;1280 x 720
H035;22;Vrouwelijk;Rechts;5;17;left;no;200;leftarrow;454;true;focus;yes;942191;Chrome;112.0;Windows;10;undefined;undefined;1280 x 720;1280 x 720
H035;22;Vrouwelijk;Rechts;5;18;right;no;200;rightarrow;449;true;focus;yes;943422;Chrome;112.0;Windows;10;undefined;undefined;1280 x 720;1280 x 720
H035;22;Vrouwelijk;Rechts;5;19;right;no;200;rightarrow;451;true;focus;yes;944650;Chrome;112.0;Windows;10;undefined;undefined;1280 x 720;1280 x 720
H035;22;Vrouwelijk;Rechts;5;20;left;no;200;leftarrow;379;true;focus;yes;945798;Chrome;112.0;Windows;10;undefined;undefined;1280 x 720;1280 x 720
H035;22;Vrouwelijk;Rechts;5;21;right;yes;200;rightarrow;357;false;focus;yes;946945;Chrome;112.0;Windows;10;undefined;undefined;1280 x 720;1280 x 720
H035;22;Vrouwelijk;Rechts;5;22;left;yes;150;undefined;null;true;focus;yes;948978;Chrome;112.0;Windows;10;undefined;undefined;1280 x 720;1280 x 720
H035;22;Vrouwelijk;Rechts;5;23;right;no;200;rightarrow;361;true;focus;yes;950127;Chrome;112.0;Windows;10;undefined;undefined;1280 x 720;1280 x 720
H035;22;Vrouwelijk;Rechts;5;24;left;no;200;leftarrow;382;true;focus;yes;951282;Chrome;112.0;Windows;10;undefined;undefined;1280 x 720;1280 x 720
H035;22;Vrouwelijk;Rechts;5;25;right;no;200;rightarrow;372;true;focus;yes;952429;Chrome;112.0;Windows;10;undefined;undefined;1280 x 720;1280 x 720
H035;22;Vrouwelijk;Rechts;5;26;right;yes;200;undefined;null;true;focus;yes;954449;Chrome;112.0;Windows;10;undefined;undefined;1280 x 720;1280 x 720
H035;22;Vrouwelijk;Rechts;5;27;left;no;250;leftarrow;376;true;focus;yes;955605;Chrome;112.0;Windows;10;undefined;undefined;1280 x 720;1280 x 720
H035;22;Vrouwelijk;Rechts;5;28;right;no;250;rightarrow;495;true;focus;yes;956859;Chrome;112.0;Windows;10;undefined;undefined;1280 x 720;1280 x 720
H035;22;Vrouwelijk;Rechts;5;29;left;yes;250;leftarrow;380;false;focus;yes;958010;Chrome;112.0;Windows;10;undefined;undefined;1280 x 720;1280 x 720
H035;22;Vrouwelijk;Rechts;5;30;right;no;200;rightarrow;539;true;focus;yes;959313;Chrome;112.0;Windows;10;undefined;undefined;1280 x 720;1280 x 720
H035;22;Vrouwelijk;Rechts;5;31;left;no;200;leftarrow;541;true;focus;yes;960621;Chrome;112.0;Windows;10;undefined;undefined;1280 x 720;1280 x 720
H035;22;Vrouwelijk;Rechts;5;32;left;no;200;leftarrow;468;true;focus;yes;961868;Chrome;112.0;Windows;10;undefined;undefined;1280 x 720;1280 x 720
H035;22;Vrouwelijk;Rechts;5;33;right;no;200;rightarrow;513;true;focus;yes;963161;Chrome;112.0;Windows;10;undefined;undefined;1280 x 720;1280 x 720
H035;22;Vrouwelijk;Rechts;5;34;right;yes;200;undefined;null;true;focus;yes;965215;Chrome;112.0;Windows;10;undefined;undefined;1280 x 720;1280 x 720
H035;22;Vrouwelijk;Rechts;5;35;left;no;250;leftarrow;405;true;focus;yes;966401;Chrome;112.0;Windows;10;undefined;undefined;1280 x 720;1280 x 720
H035;22;Vrouwelijk;Rechts;5;36;left;no;250;leftarrow;413;true;focus;yes;967589;Chrome;112.0;Windows;10;undefined;undefined;1280 x 720;1280 x 720
H035;22;Vrouwelijk;Rechts;5;37;left;yes;250;undefined;null;true;focus;yes;969619;Chrome;112.0;Windows;10;undefined;undefined;1280 x 720;1280 x 720
H035;22;Vrouwelijk;Rechts;5;38;right;no;300;rightarrow;363;true;focus;yes;970755;Chrome;112.0;Windows;10;undefined;undefined;1280 x 720;1280 x 720
H035;22;Vrouwelijk;Rechts;5;39;left;no;300;leftarrow;415;true;focus;yes;971952;Chrome;112.0;Windows;10;undefined;undefined;1280 x 720;1280 x 720
H035;22;Vrouwelijk;Rechts;5;40;right;no;300;rightarrow;392;true;focus;yes;973111;Chrome;112.0;Windows;10;undefined;undefined;1280 x 720;1280 x 720
H035;22;Vrouwelijk;Rechts;5;41;left;yes;300;leftarrow;360;false;focus;yes;974236;Chrome;112.0;Windows;10;undefined;undefined;1280 x 720;1280 x 720
H035;22;Vrouwelijk;Rechts;5;42;right;no;250;rightarrow;391;true;focus;yes;975418;Chrome;112.0;Windows;10;undefined;undefined;1280 x 720;1280 x 720
H035;22;Vrouwelijk;Rechts;5;43;left;no;250;leftarrow;474;true;focus;yes;976672;Chrome;112.0;Windows;10;undefined;undefined;1280 x 720;1280 x 720
H035;22;Vrouwelijk;Rechts;5;44;left;no;250;leftarrow;399;true;focus;yes;977849;Chrome;112.0;Windows;10;undefined;undefined;1280 x 720;1280 x 720
H035;22;Vrouwelijk;Rechts;5;45;left;no;250;leftarrow;423;true;focus;yes;979061;Chrome;112.0;Windows;10;undefined;undefined;1280 x 720;1280 x 720
H035;22;Vrouwelijk;Rechts;5;46;right;no;250;rightarrow;400;true;focus;yes;980242;Chrome;112.0;Windows;10;undefined;undefined;1280 x 720;1280 x 720
H035;22;Vrouwelijk;Rechts;5;47;right;yes;250;rightarrow;374;false;focus;yes;981400;Chrome;112.0;Windows;10;undefined;undefined;1280 x 720;1280 x 720
H035;22;Vrouwelijk;Rechts;5;48;right;no;200;rightarrow;453;true;focus;yes;982622;Chrome;112.0;Windows;10;undefined;undefined;1280 x 720;1280 x 720
H035;22;Vrouwelijk;Rechts;5;49;right;yes;200;undefined;null;true;focus;yes;984643;Chrome;112.0;Windows;10;undefined;undefined;1280 x 720;1280 x 720
H035;22;Vrouwelijk;Rechts;5;50;left;yes;250;leftarrow;392;false;focus;yes;985824;Chrome;112.0;Windows;10;undefined;undefined;1280 x 720;1280 x 720
H035;22;Vrouwelijk;Rechts;5;51;right;no;200;rightarrow;539;true;focus;yes;987123;Chrome;112.0;Windows;10;undefined;undefined;1280 x 720;1280 x 720
H035;22;Vrouwelijk;Rechts;5;52;left;no;200;leftarrow;470;true;focus;yes;988378;Chrome;112.0;Windows;10;undefined;undefined;1280 x 720;1280 x 720
H035;22;Vrouwelijk;Rechts;5;53;right;no;200;rightarrow;445;true;focus;yes;989600;Chrome;112.0;Windows;10;undefined;undefined;1280 x 720;1280 x 720
H035;22;Vrouwelijk;Rechts;5;54;right;no;200;rightarrow;510;true;focus;yes;990889;Chrome;112.0;Windows;10;undefined;undefined;1280 x 720;1280 x 720
H035;22;Vrouwelijk;Rechts;5;55;left;no;200;leftarrow;572;true;focus;yes;992226;Chrome;112.0;Windows;10;undefined;undefined;1280 x 720;1280 x 720
H035;22;Vrouwelijk;Rechts;5;56;left;no;200;leftarrow;424;true;focus;yes;993427;Chrome;112.0;Windows;10;undefined;undefined;1280 x 720;1280 x 720
H035;22;Vrouwelijk;Rechts;5;57;right;no;200;rightarrow;635;true;focus;yes;994825;Chrome;112.0;Windows;10;undefined;undefined;1280 x 720;1280 x 720
H035;22;Vrouwelijk;Rechts;5;58;left;no;200;leftarrow;412;true;focus;yes;996024;Chrome;112.0;Windows;10;undefined;undefined;1280 x 720;1280 x 720
H035;22;Vrouwelijk;Rechts;5;59;left;no;200;leftarrow;415;true;focus;yes;997230;Chrome;112.0;Windows;10;undefined;undefined;1280 x 720;1280 x 720
H035;22;Vrouwelijk;Rechts;5;60;left;no;200;leftarrow;375;true;focus;yes;998393;Chrome;112.0;Windows;10;undefined;undefined;1280 x 720;1280 x 720
H035;22;Vrouwelijk;Rechts;5;61;right;yes;200;undefined;null;true;focus;yes;1000458;Chrome;112.0;Windows;10;undefined;undefined;1280 x 720;1280 x 720
H035;22;Vrouwelijk;Rechts;5;62;right;no;250;rightarrow;416;true;focus;yes;1001674;Chrome;112.0;Windows;10;undefined;undefined;1280 x 720;1280 x 720
H035;22;Vrouwelijk;Rechts;5;63;left;yes;250;leftarrow;444;false;focus;yes;1002907;Chrome;112.0;Windows;10;undefined;undefined;1280 x 720;1280 x 720
H035;22;Vrouwelijk;Rechts;5;64;right;no;200;rightarrow;562;true;focus;yes;1004238;Chrome;112.0;Windows;10;undefined;undefined;1280 x 720;1280 x 720
H035;22;Vrouwelijk;Rechts;5;65;right;no;200;rightarrow;423;true;focus;yes;1005450;Chrome;112.0;Windows;10;undefined;undefined;1280 x 720;1280 x 720
H035;22;Vrouwelijk;Rechts;5;66;right;no;200;rightarrow;445;true;focus;yes;1006694;Chrome;112.0;Windows;10;undefined;undefined;1280 x 720;1280 x 720
H035;22;Vrouwelijk;Rechts;5;67;right;yes;200;rightarrow;478;false;focus;yes;1007947;Chrome;112.0;Windows;10;undefined;undefined;1280 x 720;1280 x 720
H035;22;Vrouwelijk;Rechts;5;68;left;no;150;leftarrow;521;true;focus;yes;1009229;Chrome;112.0;Windows;10;undefined;undefined;1280 x 720;1280 x 720
H035;22;Vrouwelijk;Rechts;5;69;right;no;150;rightarrow;369;true;focus;yes;1010394;Chrome;112.0;Windows;10;undefined;undefined;1280 x 720;1280 x 720
H035;22;Vrouwelijk;Rechts;5;70;left;yes;150;undefined;null;true;focus;yes;1012434;Chrome;112.0;Windows;10;undefined;undefined;1280 x 720;1280 x 720
H035;22;Vrouwelijk;Rechts;5;71;left;no;200;leftarrow;374;true;focus;yes;1013591;Chrome;112.0;Windows;10;undefined;undefined;1280 x 720;1280 x 720
H035;22;Vrouwelijk;Rechts;5;72;left;no;200;leftarrow;394;true;focus;yes;1014770;Chrome;112.0;Windows;10;undefined;undefined;1280 x 720;1280 x 720
H035;22;Vrouwelijk;Rechts;5;73;right;no;200;rightarrow;408;true;focus;yes;1015942;Chrome;112.0;Windows;10;undefined;undefined;1280 x 720;1280 x 720
H035;22;Vrouwelijk;Rechts;5;74;left;no;200;leftarrow;562;true;focus;yes;1017295;Chrome;112.0;Windows;10;undefined;undefined;1280 x 720;1280 x 720
H035;22;Vrouwelijk;Rechts;5;75;right;no;200;rightarrow;471;true;focus;yes;1018537;Chrome;112.0;Windows;10;undefined;undefined;1280 x 720;1280 x 720
H035;22;Vrouwelijk;Rechts;5;76;left;no;200;leftarrow;412;true;focus;yes;1019734;Chrome;112.0;Windows;10;undefined;undefined;1280 x 720;1280 x 720
H035;22;Vrouwelijk;Rechts;5;77;right;no;200;rightarrow;468;true;focus;yes;1020963;Chrome;112.0;Windows;10;undefined;undefined;1280 x 720;1280 x 720
H035;22;Vrouwelijk;Rechts;5;78;left;no;200;leftarrow;534;true;focus;yes;1022265;Chrome;112.0;Windows;10;undefined;undefined;1280 x 720;1280 x 720
H035;22;Vrouwelijk;Rechts;5;79;right;yes;200;undefined;null;true;focus;yes;1024286;Chrome;112.0;Windows;10;undefined;undefined;1280 x 720;1280 x 720
H035;22;Vrouwelijk;Rechts;5;80;left;yes;250;leftarrow;322;false;focus;yes;1025384;Chrome;112.0;Windows;10;undefined;undefined;1280 x 720;1280 x 720
H035;22;Vrouwelijk;Rechts;5;81;left;no;200;leftarrow;384;true;focus;yes;1026553;Chrome;112.0;Windows;10;undefined;undefined;1280 x 720;1280 x 720
H035;22;Vrouwelijk;Rechts;5;82;left;yes;200;leftarrow;375;false;focus;yes;1027715;Chrome;112.0;Windows;10;undefined;undefined;1280 x 720;1280 x 720
H035;22;Vrouwelijk;Rechts;5;83;right;no;150;rightarrow;339;true;focus;yes;1028831;Chrome;112.0;Windows;10;undefined;undefined;1280 x 720;1280 x 720
H035;22;Vrouwelijk;Rechts;5;84;left;no;150;leftarrow;487;true;focus;yes;1030103;Chrome;112.0;Windows;10;undefined;undefined;1280 x 720;1280 x 720
H035;22;Vrouwelijk;Rechts;5;85;right;yes;150;rightarrow;410;false;focus;yes;1031296;Chrome;112.0;Windows;10;undefined;undefined;1280 x 720;1280 x 720
H035;22;Vrouwelijk;Rechts;5;86;right;no;100;rightarrow;410;true;focus;yes;1032469;Chrome;112.0;Windows;10;undefined;undefined;1280 x 720;1280 x 720
H035;22;Vrouwelijk;Rechts;5;87;right;no;100;rightarrow;426;true;focus;yes;1033672;Chrome;112.0;Windows;10;undefined;undefined;1280 x 720;1280 x 720
H035;22;Vrouwelijk;Rechts;5;88;left;no;100;leftarrow;466;true;focus;yes;1034924;Chrome;112.0;Windows;10;undefined;undefined;1280 x 720;1280 x 720
H035;22;Vrouwelijk;Rechts;5;89;right;yes;100;undefined;null;true;focus;yes;1036952;Chrome;112.0;Windows;10;undefined;undefined;1280 x 720;1280 x 720
H035;22;Vrouwelijk;Rechts;5;90;right;no;150;rightarrow;398;true;focus;yes;1038121;Chrome;112.0;Windows;10;undefined;undefined;1280 x 720;1280 x 720
H035;22;Vrouwelijk;Rechts;5;91;right;no;150;rightarrow;384;true;focus;yes;1039293;Chrome;112.0;Windows;10;undefined;undefined;1280 x 720;1280 x 720
H035;22;Vrouwelijk;Rechts;5;92;left;no;150;leftarrow;430;true;focus;yes;1040503;Chrome;112.0;Windows;10;undefined;undefined;1280 x 720;1280 x 720
H035;22;Vrouwelijk;Rechts;5;93;left;no;150;leftarrow;363;true;focus;yes;1041631;Chrome;112.0;Windows;10;undefined;undefined;1280 x 720;1280 x 720
H035;22;Vrouwelijk;Rechts;5;94;right;no;150;rightarrow;496;true;focus;yes;1042902;Chrome;112.0;Windows;10;undefined;undefined;1280 x 720;1280 x 720
H035;22;Vrouwelijk;Rechts;5;95;left;yes;150;undefined;null;true;focus;yes;1044946;Chrome;112.0;Windows;10;undefined;undefined;1280 x 720;1280 x 720
H035;22;Vrouwelijk;Rechts;5;96;left;no;200;leftarrow;427;true;focus;yes;1046146;Chrome;112.0;Windows;10;undefined;undefined;1280 x 720;1280 x 720
H035;22;Vrouwelijk;Rechts;5;97;right;yes;200;rightarrow;336;false;focus;yes;1047258;Chrome;112.0;Windows;10;undefined;undefined;1280 x 720;1280 x 720
H035;22;Vrouwelijk;Rechts;5;98;right;no;150;rightarrow;422;true;focus;yes;1048464;Chrome;112.0;Windows;10;undefined;undefined;1280 x 720;1280 x 720
H035;22;Vrouwelijk;Rechts;5;99;left;no;150;leftarrow;462;true;focus;yes;1049707;Chrome;112.0;Windows;10;undefined;undefined;1280 x 720;1280 x 720
H035;22;Vrouwelijk;Rechts;5;100;right;no;150;rightarrow;414;true;focus;yes;1050895;Chrome;112.0;Windows;10;undefined;undefined;1280 x 720;1280 x 720
H035;22;Vrouwelijk;Rechts;5;101;left;no;150;leftarrow;362;true;focus;yes;1052040;Chrome;112.0;Windows;10;undefined;undefined;1280 x 720;1280 x 720
H035;22;Vrouwelijk;Rechts;5;102;left;no;150;leftarrow;403;true;focus;yes;1053224;Chrome;112.0;Windows;10;undefined;undefined;1280 x 720;1280 x 720
H035;22;Vrouwelijk;Rechts;5;103;left;yes;150;undefined;null;true;focus;yes;1055245;Chrome;112.0;Windows;10;undefined;undefined;1280 x 720;1280 x 720
H035;22;Vrouwelijk;Rechts;5;104;right;no;200;rightarrow;351;true;focus;yes;1056385;Chrome;112.0;Windows;10;undefined;undefined;1280 x 720;1280 x 720
H035;22;Vrouwelijk;Rechts;5;105;right;no;200;rightarrow;339;true;focus;yes;1057492;Chrome;112.0;Windows;10;undefined;undefined;1280 x 720;1280 x 720
H035;22;Vrouwelijk;Rechts;5;106;left;no;200;leftarrow;362;true;focus;yes;1058639;Chrome;112.0;Windows;10;undefined;undefined;1280 x 720;1280 x 720
H035;22;Vrouwelijk;Rechts;5;107;left;no;200;leftarrow;402;true;focus;yes;1059831;Chrome;112.0;Windows;10;undefined;undefined;1280 x 720;1280 x 720
H035;22;Vrouwelijk;Rechts;5;108;right;no;200;rightarrow;410;true;focus;yes;1061014;Chrome;112.0;Windows;10;undefined;undefined;1280 x 720;1280 x 720
H035;22;Vrouwelijk;Rechts;5;109;right;no;200;rightarrow;386;true;focus;yes;1062192;Chrome;112.0;Windows;10;undefined;undefined;1280 x 720;1280 x 720
H035;22;Vrouwelijk;Rechts;5;110;left;yes;200;leftarrow;372;false;focus;yes;1063346;Chrome;112.0;Windows;10;undefined;undefined;1280 x 720;1280 x 720
H035;22;Vrouwelijk;Rechts;5;111;left;no;150;leftarrow;494;true;focus;yes;1064616;Chrome;112.0;Windows;10;undefined;undefined;1280 x 720;1280 x 720
H035;22;Vrouwelijk;Rechts;5;112;right;yes;150;rightarrow;368;false;focus;yes;1065768;Chrome;112.0;Windows;10;undefined;undefined;1280 x 720;1280 x 720
H035;22;Vrouwelijk;Rechts;5;113;right;no;100;rightarrow;437;true;focus;yes;1066985;Chrome;112.0;Windows;10;undefined;undefined;1280 x 720;1280 x 720
H035;22;Vrouwelijk;Rechts;5;114;right;no;100;rightarrow;392;true;focus;yes;1068166;Chrome;112.0;Windows;10;undefined;undefined;1280 x 720;1280 x 720
H035;22;Vrouwelijk;Rechts;5;115;left;no;100;leftarrow;530;true;focus;yes;1069476;Chrome;112.0;Windows;10;undefined;undefined;1280 x 720;1280 x 720
H035;22;Vrouwelijk;Rechts;5;116;right;yes;100;undefined;null;true;focus;yes;1071503;Chrome;112.0;Windows;10;undefined;undefined;1280 x 720;1280 x 720
H035;22;Vrouwelijk;Rechts;5;117;left;no;150;leftarrow;339;true;focus;yes;1072632;Chrome;112.0;Windows;10;undefined;undefined;1280 x 720;1280 x 720
H035;22;Vrouwelijk;Rechts;5;118;right;no;150;rightarrow;368;true;focus;yes;1073763;Chrome;112.0;Windows;10;undefined;undefined;1280 x 720;1280 x 720
H035;22;Vrouwelijk;Rechts;5;119;left;yes;150;undefined;null;true;focus;yes;1075799;Chrome;112.0;Windows;10;undefined;undefined;1280 x 720;1280 x 720
H035;22;Vrouwelijk;Rechts;5;120;left;no;200;leftarrow;416;true;focus;yes;1077004;Chrome;112.0;Windows;10;undefined;undefined;1280 x 720;1280 x 720
H035;22;Vrouwelijk;Rechts;5;121;left;no;200;leftarrow;458;true;focus;yes;1078231;Chrome;112.0;Windows;10;undefined;undefined;1280 x 720;1280 x 720
H035;22;Vrouwelijk;Rechts;5;122;right;no;200;rightarrow;420;true;focus;yes;1079420;Chrome;112.0;Windows;10;undefined;undefined;1280 x 720;1280 x 720
H035;22;Vrouwelijk;Rechts;5;123;right;yes;200;rightarrow;412;false;focus;yes;1080616;Chrome;112.0;Windows;10;undefined;undefined;1280 x 720;1280 x 720
H035;22;Vrouwelijk;Rechts;5;124;left;no;150;leftarrow;388;true;focus;yes;1081774;Chrome;112.0;Windows;10;undefined;undefined;1280 x 720;1280 x 720
H035;22;Vrouwelijk;Rechts;5;125;left;no;150;leftarrow;419;true;focus;yes;1082976;Chrome;112.0;Windows;10;undefined;undefined;1280 x 720;1280 x 720
H035;22;Vrouwelijk;Rechts;5;126;right;no;150;rightarrow;399;true;focus;yes;1084159;Chrome;112.0;Windows;10;undefined;undefined;1280 x 720;1280 x 720
H035;22;Vrouwelijk;Rechts;5;127;left;yes;150;leftarrow;374;false;focus;yes;1085311;Chrome;112.0;Windows;10;undefined;undefined;1280 x 720;1280 x 720
H035;22;Vrouwelijk;Rechts;5;128;right;no;100;rightarrow;388;true;focus;yes;1086473;Chrome;112.0;Windows;10;undefined;undefined;1280 x 720;1280 x 720
H035;22;Vrouwelijk;Rechts;6;1;left;no;100;leftarrow;368;true;focus;yes;1105669;Chrome;112.0;Windows;10;undefined;undefined;1280 x 720;1280 x 720
H035;22;Vrouwelijk;Rechts;6;2;left;yes;100;undefined;null;true;focus;yes;1107709;Chrome;112.0;Windows;10;undefined;undefined;1280 x 720;1280 x 720
H035;22;Vrouwelijk;Rechts;6;3;right;no;150;rightarrow;360;true;focus;yes;1108855;Chrome;112.0;Windows;10;undefined;undefined;1280 x 720;1280 x 720
H035;22;Vrouwelijk;Rechts;6;4;right;yes;150;undefined;null;true;focus;yes;1110902;Chrome;112.0;Windows;10;undefined;undefined;1280 x 720;1280 x 720
H035;22;Vrouwelijk;Rechts;6;5;left;no;200;leftarrow;394;true;focus;yes;1112087;Chrome;112.0;Windows;10;undefined;undefined;1280 x 720;1280 x 720
H035;22;Vrouwelijk;Rechts;6;6;right;no;200;rightarrow;474;true;focus;yes;1113341;Chrome;112.0;Windows;10;undefined;undefined;1280 x 720;1280 x 720
H035;22;Vrouwelijk;Rechts;6;7;right;no;200;rightarrow;467;true;focus;yes;1114597;Chrome;112.0;Windows;10;undefined;undefined;1280 x 720;1280 x 720
H035;22;Vrouwelijk;Rechts;6;8;left;no;200;leftarrow;456;true;focus;yes;1115823;Chrome;112.0;Windows;10;undefined;undefined;1280 x 720;1280 x 720
H035;22;Vrouwelijk;Rechts;6;9;left;no;200;leftarrow;468;true;focus;yes;1117061;Chrome;112.0;Windows;10;undefined;undefined;1280 x 720;1280 x 720
H035;22;Vrouwelijk;Rechts;6;10;right;yes;200;undefined;null;true;focus;yes;1119093;Chrome;112.0;Windows;10;undefined;undefined;1280 x 720;1280 x 720
H035;22;Vrouwelijk;Rechts;6;11;left;no;250;leftarrow;473;true;focus;yes;1120358;Chrome;112.0;Windows;10;undefined;undefined;1280 x 720;1280 x 720
H035;22;Vrouwelijk;Rechts;6;12;right;no;250;rightarrow;487;true;focus;yes;1121639;Chrome;112.0;Windows;10;undefined;undefined;1280 x 720;1280 x 720
H035;22;Vrouwelijk;Rechts;6;13;right;no;250;rightarrow;398;true;focus;yes;1122807;Chrome;112.0;Windows;10;undefined;undefined;1280 x 720;1280 x 720
H035;22;Vrouwelijk;Rechts;6;14;left;yes;250;leftarrow;393;false;focus;yes;1123974;Chrome;112.0;Windows;10;undefined;undefined;1280 x 720;1280 x 720
H035;22;Vrouwelijk;Rechts;6;15;left;no;200;leftarrow;473;true;focus;yes;1125235;Chrome;112.0;Windows;10;undefined;undefined;1280 x 720;1280 x 720
H035;22;Vrouwelijk;Rechts;6;16;right;no;200;rightarrow;414;true;focus;yes;1126418;Chrome;112.0;Windows;10;undefined;undefined;1280 x 720;1280 x 720
H035;22;Vrouwelijk;Rechts;6;17;left;no;200;leftarrow;522;true;focus;yes;1127730;Chrome;112.0;Windows;10;undefined;undefined;1280 x 720;1280 x 720
H035;22;Vrouwelijk;Rechts;6;18;right;yes;200;undefined;null;true;focus;yes;1129766;Chrome;112.0;Windows;10;undefined;undefined;1280 x 720;1280 x 720
H035;22;Vrouwelijk;Rechts;6;19;right;no;250;rightarrow;358;true;focus;yes;1130911;Chrome;112.0;Windows;10;undefined;undefined;1280 x 720;1280 x 720
H035;22;Vrouwelijk;Rechts;6;20;right;no;250;rightarrow;425;true;focus;yes;1132113;Chrome;112.0;Windows;10;undefined;undefined;1280 x 720;1280 x 720
H035;22;Vrouwelijk;Rechts;6;21;right;no;250;rightarrow;413;true;focus;yes;1133296;Chrome;112.0;Windows;10;undefined;undefined;1280 x 720;1280 x 720
H035;22;Vrouwelijk;Rechts;6;22;left;no;250;leftarrow;499;true;focus;yes;1134580;Chrome;112.0;Windows;10;undefined;undefined;1280 x 720;1280 x 720
H035;22;Vrouwelijk;Rechts;6;23;left;no;250;leftarrow;519;true;focus;yes;1135874;Chrome;112.0;Windows;10;undefined;undefined;1280 x 720;1280 x 720
H035;22;Vrouwelijk;Rechts;6;24;left;yes;250;leftarrow;368;false;focus;yes;1137013;Chrome;112.0;Windows;10;undefined;undefined;1280 x 720;1280 x 720
H035;22;Vrouwelijk;Rechts;6;25;right;no;200;rightarrow;417;true;focus;yes;1138196;Chrome;112.0;Windows;10;undefined;undefined;1280 x 720;1280 x 720
H035;22;Vrouwelijk;Rechts;6;26;left;no;200;leftarrow;705;true;focus;yes;1139688;Chrome;112.0;Windows;10;undefined;undefined;1280 x 720;1280 x 720
H035;22;Vrouwelijk;Rechts;6;27;left;no;200;leftarrow;473;true;focus;yes;1140930;Chrome;112.0;Windows;10;undefined;undefined;1280 x 720;1280 x 720
