participantID,age,gender,handedness,block_i,trial_i,stim,signal,SSD,response,rt,correct,focus,Fullscreen,time_elapsed,browser_name,browser_version,os_name,os_version,tablet,mobile,screen_resolution,window_resolution
S008,34,Mannelijk,Rechts,0,1,left,yes,200,leftarrow,567,false,focus,yes,190146,Chrome,109.0,Windows,10,undefined,undefined,1920 x 1080,1920 x 1080
S008,34,Mannelijk,Rechts,0,2,left,no,150,leftarrow,405,true,focus,yes,192069,Chrome,109.0,Windows,10,undefined,undefined,1920 x 1080,1920 x 1080
S008,34,Mannelijk,Rechts,0,3,right,yes,150,rightarrow,361,false,focus,yes,193948,Chrome,109.0,Windows,10,undefined,undefined,1920 x 1080,1920 x 1080
S008,34,Mannelijk,Rechts,0,4,right,no,100,rightarrow,256,true,focus,yes,195722,Chrome,109.0,Windows,10,undefined,undefined,1920 x 1080,1920 x 1080
S008,34,Mannelijk,Rechts,0,5,left,no,100,leftarrow,659,true,focus,yes,197902,Chrome,109.0,Windows,10,undefined,undefined,1920 x 1080,1920 x 1080
S008,34,Mannelijk,Rechts,0,6,left,no,100,leftarrow,430,true,focus,yes,199847,Chrome,109.0,Windows,10,undefined,undefined,1920 x 1080,1920 x 1080
S008,34,Mannelijk,Rechts,0,7,right,no,100,rightarrow,372,true,focus,yes,201733,Chrome,109.0,Windows,10,undefined,undefined,1920 x 1080,1920 x 1080
S008,34,Mannelijk,Rechts,0,8,right,no,100,rightarrow,296,true,focus,yes,203547,Chrome,109.0,Windows,10,undefined,undefined,1920 x 1080,1920 x 1080
S008,34,Mannelijk,Rechts,1,1,left,yes,100,leftarrow,337,false,focus,yes,224302,Chrome,109.0,Windows,10,undefined,undefined,1920 x 1080,1920 x 1080
S008,34,Mannelijk,Rechts,1,2,right,no,50,rightarrow,302,true,focus,yes,225371,Chrome,109.0,Windows,10,undefined,undefined,1920 x 1080,1920 x 1080
S008,34,Mannelijk,Rechts,1,3,left,no,50,leftarrow,318,true,focus,yes,226459,Chrome,109.0,Windows,10,undefined,undefined,1920 x 1080,1920 x 1080
S008,34,Mannelijk,Rechts,1,4,right,no,50,rightarrow,268,true,focus,yes,227489,Chrome,109.0,Windows,10,undefined,undefined,1920 x 1080,1920 x 1080
S008,34,Mannelijk,Rechts,1,5,right,no,50,leftarrow,228,false,focus,yes,228476,Chrome,109.0,Windows,10,undefined,undefined,1920 x 1080,1920 x 1080
S008,34,Mannelijk,Rechts,1,6,right,yes,50,rightarrow,532,false,focus,yes,229773,Chrome,109.0,Windows,10,undefined,undefined,1920 x 1080,1920 x 1080
S008,34,Mannelijk,Rechts,1,7,left,no,50,leftarrow,285,true,focus,yes,230818,Chrome,109.0,Windows,10,undefined,undefined,1920 x 1080,1920 x 1080
S008,34,Mannelijk,Rechts,1,8,left,no,50,leftarrow,297,true,focus,yes,231871,Chrome,109.0,Windows,10,undefined,undefined,1920 x 1080,1920 x 1080
S008,34,Mannelijk,Rechts,1,9,right,no,50,rightarrow,317,true,focus,yes,232947,Chrome,109.0,Windows,10,undefined,undefined,1920 x 1080,1920 x 1080
S008,34,Mannelijk,Rechts,1,10,left,no,50,leftarrow,318,true,focus,yes,234024,Chrome,109.0,Windows,10,undefined,undefined,1920 x 1080,1920 x 1080
S008,34,Mannelijk,Rechts,1,11,left,yes,50,rightarrow,255,false,focus,yes,235036,Chrome,109.0,Windows,10,undefined,undefined,1920 x 1080,1920 x 1080
S008,34,Mannelijk,Rechts,1,12,right,no,50,rightarrow,262,true,focus,yes,236055,Chrome,109.0,Windows,10,undefined,undefined,1920 x 1080,1920 x 1080
S008,34,Mannelijk,Rechts,1,13,right,no,50,rightarrow,287,true,focus,yes,237104,Chrome,109.0,Windows,10,undefined,undefined,1920 x 1080,1920 x 1080
S008,34,Mannelijk,Rechts,1,14,right,yes,50,rightarrow,281,false,focus,yes,238146,Chrome,109.0,Windows,10,undefined,undefined,1920 x 1080,1920 x 1080
S008,34,Mannelijk,Rechts,1,15,left,no,50,leftarrow,298,true,focus,yes,239200,Chrome,109.0,Windows,10,undefined,undefined,1920 x 1080,1920 x 1080
S008,34,Mannelijk,Rechts,1,16,left,no,50,leftarrow,252,true,focus,yes,240214,Chrome,109.0,Windows,10,undefined,undefined,1920 x 1080,1920 x 1080
S008,34,Mannelijk,Rechts,1,17,right,no,50,leftarrow,253,false,focus,yes,241231,Chrome,109.0,Windows,10,undefined,undefined,1920 x 1080,1920 x 1080
S008,34,Mannelijk,Rechts,1,18,right,no,50,rightarrow,723,true,focus,yes,242714,Chrome,109.0,Windows,10,undefined,undefined,1920 x 1080,1920 x 1080
S008,34,Mannelijk,Rechts,1,19,right,no,50,rightarrow,326,true,focus,yes,243797,Chrome,109.0,Windows,10,undefined,undefined,1920 x 1080,1920 x 1080
S008,34,Mannelijk,Rechts,1,20,left,no,50,rightarrow,296,false,focus,yes,244857,Chrome,109.0,Windows,10,undefined,undefined,1920 x 1080,1920 x 1080
S008,34,Mannelijk,Rechts,1,21,left,no,50,leftarrow,360,true,focus,yes,245978,Chrome,109.0,Windows,10,undefined,undefined,1920 x 1080,1920 x 1080
S008,34,Mannelijk,Rechts,1,22,left,yes,50,leftarrow,382,false,focus,yes,247122,Chrome,109.0,Windows,10,undefined,undefined,1920 x 1080,1920 x 1080
S008,34,Mannelijk,Rechts,1,23,right,yes,50,rightarrow,411,false,focus,yes,248291,Chrome,109.0,Windows,10,undefined,undefined,1920 x 1080,1920 x 1080
S008,34,Mannelijk,Rechts,1,24,left,no,50,leftarrow,243,true,focus,yes,249295,Chrome,109.0,Windows,10,undefined,undefined,1920 x 1080,1920 x 1080
S008,34,Mannelijk,Rechts,1,25,right,no,50,rightarrow,273,true,focus,yes,250333,Chrome,109.0,Windows,10,undefined,undefined,1920 x 1080,1920 x 1080
S008,34,Mannelijk,Rechts,1,26,left,no,50,rightarrow,236,false,focus,yes,251333,Chrome,109.0,Windows,10,undefined,undefined,1920 x 1080,1920 x 1080
S008,34,Mannelijk,Rechts,1,27,right,no,50,rightarrow,215,true,focus,yes,252309,Chrome,109.0,Windows,10,undefined,undefined,1920 x 1080,1920 x 1080
S008,34,Mannelijk,Rechts,1,28,left,no,50,rightarrow,361,false,focus,yes,253437,Chrome,109.0,Windows,10,undefined,undefined,1920 x 1080,1920 x 1080
S008,34,Mannelijk,Rechts,1,29,right,yes,50,rightarrow,228,false,focus,yes,254428,Chrome,109.0,Windows,10,undefined,undefined,1920 x 1080,1920 x 1080
S008,34,Mannelijk,Rechts,1,30,left,no,50,leftarrow,332,true,focus,yes,255525,Chrome,109.0,Windows,10,undefined,undefined,1920 x 1080,1920 x 1080
S008,34,Mannelijk,Rechts,1,31,left,yes,50,rightarrow,238,false,focus,yes,256528,Chrome,109.0,Windows,10,undefined,undefined,1920 x 1080,1920 x 1080
S008,34,Mannelijk,Rechts,1,32,right,no,50,rightarrow,273,true,focus,yes,257564,Chrome,109.0,Windows,10,undefined,undefined,1920 x 1080,1920 x 1080
S008,34,Mannelijk,Rechts,1,33,right,no,50,rightarrow,572,true,focus,yes,258893,Chrome,109.0,Windows,10,undefined,undefined,1920 x 1080,1920 x 1080
S008,34,Mannelijk,Rechts,1,34,left,yes,50,leftarrow,478,false,focus,yes,260138,Chrome,109.0,Windows,10,undefined,undefined,1920 x 1080,1920 x 1080
S008,34,Mannelijk,Rechts,1,35,left,no,50,leftarrow,355,true,focus,yes,261255,Chrome,109.0,Windows,10,undefined,undefined,1920 x 1080,1920 x 1080
S008,34,Mannelijk,Rechts,1,36,right,no,50,rightarrow,351,true,focus,yes,262371,Chrome,109.0,Windows,10,undefined,undefined,1920 x 1080,1920 x 1080
S008,34,Mannelijk,Rechts,1,37,left,no,50,leftarrow,282,true,focus,yes,263421,Chrome,109.0,Windows,10,undefined,undefined,1920 x 1080,1920 x 1080
S008,34,Mannelijk,Rechts,1,38,right,no,50,rightarrow,341,true,focus,yes,264526,Chrome,109.0,Windows,10,undefined,undefined,1920 x 1080,1920 x 1080
S008,34,Mannelijk,Rechts,1,39,right,yes,50,rightarrow,391,false,focus,yes,265680,Chrome,109.0,Windows,10,undefined,undefined,1920 x 1080,1920 x 1080
S008,34,Mannelijk,Rechts,1,40,left,no,50,leftarrow,231,true,focus,yes,266675,Chrome,109.0,Windows,10,undefined,undefined,1920 x 1080,1920 x 1080
S008,34,Mannelijk,Rechts,1,41,right,no,50,leftarrow,245,false,focus,yes,267687,Chrome,109.0,Windows,10,undefined,undefined,1920 x 1080,1920 x 1080
S008,34,Mannelijk,Rechts,1,42,right,no,50,rightarrow,423,true,focus,yes,268875,Chrome,109.0,Windows,10,undefined,undefined,1920 x 1080,1920 x 1080
S008,34,Mannelijk,Rechts,1,43,left,no,50,leftarrow,392,true,focus,yes,270028,Chrome,109.0,Windows,10,undefined,undefined,1920 x 1080,1920 x 1080
S008,34,Mannelijk,Rechts,1,44,right,no,50,rightarrow,384,true,focus,yes,271173,Chrome,109.0,Windows,10,undefined,undefined,1920 x 1080,1920 x 1080
S008,34,Mannelijk,Rechts,1,45,left,no,50,leftarrow,384,true,focus,yes,272322,Chrome,109.0,Windows,10,undefined,undefined,1920 x 1080,1920 x 1080
S008,34,Mannelijk,Rechts,1,46,left,yes,50,leftarrow,381,false,focus,yes,273464,Chrome,109.0,Windows,10,undefined,undefined,1920 x 1080,1920 x 1080
S008,34,Mannelijk,Rechts,1,47,left,no,50,rightarrow,335,false,focus,yes,274565,Chrome,109.0,Windows,10,undefined,undefined,1920 x 1080,1920 x 1080
S008,34,Mannelijk,Rechts,1,48,right,yes,50,rightarrow,303,false,focus,yes,275633,Chrome,109.0,Windows,10,undefined,undefined,1920 x 1080,1920 x 1080
S008,34,Mannelijk,Rechts,1,49,right,no,50,leftarrow,326,false,focus,yes,276721,Chrome,109.0,Windows,10,undefined,undefined,1920 x 1080,1920 x 1080
S008,34,Mannelijk,Rechts,1,50,left,yes,50,leftarrow,303,false,focus,yes,277788,Chrome,109.0,Windows,10,undefined,undefined,1920 x 1080,1920 x 1080
S008,34,Mannelijk,Rechts,1,51,left,no,50,leftarrow,346,true,focus,yes,278902,Chrome,109.0,Windows,10,undefined,undefined,1920 x 1080,1920 x 1080
S008,34,Mannelijk,Rechts,1,52,right,no,50,rightarrow,376,true,focus,yes,280042,Chrome,109.0,Windows,10,undefined,undefined,1920 x 1080,1920 x 1080
S008,34,Mannelijk,Rechts,1,53,right,yes,50,rightarrow,414,false,focus,yes,281219,Chrome,109.0,Windows,10,undefined,undefined,1920 x 1080,1920 x 1080
S008,34,Mannelijk,Rechts,1,54,left,no,50,leftarrow,374,true,focus,yes,282361,Chrome,109.0,Windows,10,undefined,undefined,1920 x 1080,1920 x 1080
S008,34,Mannelijk,Rechts,1,55,left,no,50,leftarrow,333,true,focus,yes,283455,Chrome,109.0,Windows,10,undefined,undefined,1920 x 1080,1920 x 1080
S008,34,Mannelijk,Rechts,1,56,right,no,50,rightarrow,395,true,focus,yes,284617,Chrome,109.0,Windows,10,undefined,undefined,1920 x 1080,1920 x 1080
S008,34,Mannelijk,Rechts,1,57,left,no,50,leftarrow,309,true,focus,yes,285692,Chrome,109.0,Windows,10,undefined,undefined,1920 x 1080,1920 x 1080
S008,34,Mannelijk,Rechts,1,58,right,no,50,rightarrow,256,true,focus,yes,286716,Chrome,109.0,Windows,10,undefined,undefined,1920 x 1080,1920 x 1080
S008,34,Mannelijk,Rechts,1,59,left,no,50,leftarrow,408,true,focus,yes,287885,Chrome,109.0,Windows,10,undefined,undefined,1920 x 1080,1920 x 1080
S008,34,Mannelijk,Rechts,1,60,left,yes,50,leftarrow,342,false,focus,yes,288996,Chrome,109.0,Windows,10,undefined,undefined,1920 x 1080,1920 x 1080
S008,34,Mannelijk,Rechts,1,61,right,no,50,rightarrow,332,true,focus,yes,290097,Chrome,109.0,Windows,10,undefined,undefined,1920 x 1080,1920 x 1080
S008,34,Mannelijk,Rechts,1,62,right,no,50,leftarrow,282,false,focus,yes,291143,Chrome,109.0,Windows,10,undefined,undefined,1920 x 1080,1920 x 1080
S008,34,Mannelijk,Rechts,1,63,right,yes,50,leftarrow,210,false,focus,yes,292120,Chrome,109.0,Windows,10,undefined,undefined,1920 x 1080,1920 x 1080
S008,34,Mannelijk,Rechts,1,64,left,no,50,leftarrow,260,true,focus,yes,293146,Chrome,109.0,Windows,10,undefined,undefined,1920 x 1080,1920 x 1080
S008,34,Mannelijk,Rechts,1,65,right,yes,50,rightarrow,494,false,focus,yes,294404,Chrome,109.0,Windows,10,undefined,undefined,1920 x 1080,1920 x 1080
S008,34,Mannelijk,Rechts,1,66,left,no,50,leftarrow,283,true,focus,yes,295449,Chrome,109.0,Windows,10,undefined,undefined,1920 x 1080,1920 x 1080
S008,34,Mannelijk,Rechts,1,67,left,no,50,leftarrow,343,true,focus,yes,296549,Chrome,109.0,Windows,10,undefined,undefined,1920 x 1080,1920 x 1080
S008,34,Mannelijk,Rechts,1,68,left,no,50,leftarrow,265,true,focus,yes,297569,Chrome,109.0,Windows,10,undefined,undefined,1920 x 1080,1920 x 1080
S008,34,Mannelijk,Rechts,1,69,left,yes,50,leftarrow,236,false,focus,yes,298566,Chrome,109.0,Windows,10,undefined,undefined,1920 x 1080,1920 x 1080
S008,34,Mannelijk,Rechts,1,70,right,no,50,leftarrow,211,false,focus,yes,299540,Chrome,109.0,Windows,10,undefined,undefined,1920 x 1080,1920 x 1080
S008,34,Mannelijk,Rechts,1,71,right,no,50,leftarrow,249,false,focus,yes,300547,Chrome,109.0,Windows,10,undefined,undefined,1920 x 1080,1920 x 1080
S008,34,Mannelijk,Rechts,1,72,right,no,50,rightarrow,1158,true,focus,yes,302460,Chrome,109.0,Windows,10,undefined,undefined,1920 x 1080,1920 x 1080
S008,34,Mannelijk,Rechts,1,73,left,no,50,leftarrow,776,true,focus,yes,303989,Chrome,109.0,Windows,10,undefined,undefined,1920 x 1080,1920 x 1080
S008,34,Mannelijk,Rechts,1,74,right,no,50,rightarrow,556,true,focus,yes,305310,Chrome,109.0,Windows,10,undefined,undefined,1920 x 1080,1920 x 1080
S008,34,Mannelijk,Rechts,1,75,right,yes,50,rightarrow,591,false,focus,yes,306660,Chrome,109.0,Windows,10,undefined,undefined,1920 x 1080,1920 x 1080
S008,34,Mannelijk,Rechts,1,76,right,no,50,rightarrow,425,true,focus,yes,307844,Chrome,109.0,Windows,10,undefined,undefined,1920 x 1080,1920 x 1080
S008,34,Mannelijk,Rechts,1,77,left,no,50,leftarrow,391,true,focus,yes,309001,Chrome,109.0,Windows,10,undefined,undefined,1920 x 1080,1920 x 1080
S008,34,Mannelijk,Rechts,1,78,left,no,50,leftarrow,456,true,focus,yes,310217,Chrome,109.0,Windows,10,undefined,undefined,1920 x 1080,1920 x 1080
S008,34,Mannelijk,Rechts,1,79,left,yes,50,leftarrow,655,false,focus,yes,311633,Chrome,109.0,Windows,10,undefined,undefined,1920 x 1080,1920 x 1080
S008,34,Mannelijk,Rechts,1,80,right,no,50,rightarrow,389,true,focus,yes,312783,Chrome,109.0,Windows,10,undefined,undefined,1920 x 1080,1920 x 1080
S008,34,Mannelijk,Rechts,1,81,left,no,50,leftarrow,335,true,focus,yes,313881,Chrome,109.0,Windows,10,undefined,undefined,1920 x 1080,1920 x 1080
S008,34,Mannelijk,Rechts,1,82,left,no,50,leftarrow,374,true,focus,yes,315017,Chrome,109.0,Windows,10,undefined,undefined,1920 x 1080,1920 x 1080
S008,34,Mannelijk,Rechts,1,83,right,yes,50,rightarrow,548,false,focus,yes,316325,Chrome,109.0,Windows,10,undefined,undefined,1920 x 1080,1920 x 1080
S008,34,Mannelijk,Rechts,1,84,right,no,50,rightarrow,751,true,focus,yes,317835,Chrome,109.0,Windows,10,undefined,undefined,1920 x 1080,1920 x 1080
S008,34,Mannelijk,Rechts,1,85,right,no,50,rightarrow,441,true,focus,yes,319036,Chrome,109.0,Windows,10,undefined,undefined,1920 x 1080,1920 x 1080
S008,34,Mannelijk,Rechts,1,86,right,no,50,rightarrow,379,true,focus,yes,320174,Chrome,109.0,Windows,10,undefined,undefined,1920 x 1080,1920 x 1080
S008,34,Mannelijk,Rechts,1,87,left,yes,50,leftarrow,408,false,focus,yes,321340,Chrome,109.0,Windows,10,undefined,undefined,1920 x 1080,1920 x 1080
S008,34,Mannelijk,Rechts,1,88,left,no,50,leftarrow,378,true,focus,yes,322476,Chrome,109.0,Windows,10,undefined,undefined,1920 x 1080,1920 x 1080
S008,34,Mannelijk,Rechts,1,89,left,no,50,leftarrow,504,true,focus,yes,323746,Chrome,109.0,Windows,10,undefined,undefined,1920 x 1080,1920 x 1080
S008,34,Mannelijk,Rechts,1,90,right,no,50,undefined,null,false,focus,yes,325760,Chrome,109.0,Windows,10,undefined,undefined,1920 x 1080,1920 x 1080
S008,34,Mannelijk,Rechts,1,91,left,no,50,leftarrow,395,true,focus,yes,326920,Chrome,109.0,Windows,10,undefined,undefined,1920 x 1080,1920 x 1080
S008,34,Mannelijk,Rechts,1,92,right,no,50,rightarrow,267,true,focus,yes,327951,Chrome,109.0,Windows,10,undefined,undefined,1920 x 1080,1920 x 1080
S008,34,Mannelijk,Rechts,1,93,left,yes,50,leftarrow,341,false,focus,yes,329055,Chrome,109.0,Windows,10,undefined,undefined,1920 x 1080,1920 x 1080
S008,34,Mannelijk,Rechts,1,94,left,no,50,leftarrow,306,true,focus,yes,330126,Chrome,109.0,Windows,10,undefined,undefined,1920 x 1080,1920 x 1080
S008,34,Mannelijk,Rechts,1,95,right,yes,50,rightarrow,362,false,focus,yes,331250,Chrome,109.0,Windows,10,undefined,undefined,1920 x 1080,1920 x 1080
S008,34,Mannelijk,Rechts,1,96,right,no,50,rightarrow,307,true,focus,yes,332317,Chrome,109.0,Windows,10,undefined,undefined,1920 x 1080,1920 x 1080
S008,34,Mannelijk,Rechts,1,97,left,no,50,leftarrow,298,true,focus,yes,333379,Chrome,109.0,Windows,10,undefined,undefined,1920 x 1080,1920 x 1080
S008,34,Mannelijk,Rechts,1,98,right,no,50,rightarrow,357,true,focus,yes,334497,Chrome,109.0,Windows,10,undefined,undefined,1920 x 1080,1920 x 1080
S008,34,Mannelijk,Rechts,1,99,right,yes,50,rightarrow,331,false,focus,yes,335592,Chrome,109.0,Windows,10,undefined,undefined,1920 x 1080,1920 x 1080
S008,34,Mannelijk,Rechts,1,100,left,yes,50,leftarrow,251,false,focus,yes,336605,Chrome,109.0,Windows,10,undefined,undefined,1920 x 1080,1920 x 1080
S008,34,Mannelijk,Rechts,1,101,left,no,50,leftarrow,345,true,focus,yes,337709,Chrome,109.0,Windows,10,undefined,undefined,1920 x 1080,1920 x 1080
S008,34,Mannelijk,Rechts,1,102,right,no,50,rightarrow,342,true,focus,yes,338811,Chrome,109.0,Windows,10,undefined,undefined,1920 x 1080,1920 x 1080
S008,34,Mannelijk,Rechts,1,103,right,no,50,rightarrow,337,true,focus,yes,339909,Chrome,109.0,Windows,10,undefined,undefined,1920 x 1080,1920 x 1080
S008,34,Mannelijk,Rechts,1,104,left,no,50,leftarrow,273,true,focus,yes,340947,Chrome,109.0,Windows,10,undefined,undefined,1920 x 1080,1920 x 1080
S008,34,Mannelijk,Rechts,1,105,right,no,50,rightarrow,343,true,focus,yes,342053,Chrome,109.0,Windows,10,undefined,undefined,1920 x 1080,1920 x 1080
S008,34,Mannelijk,Rechts,1,106,left,no,50,leftarrow,256,true,focus,yes,343076,Chrome,109.0,Windows,10,undefined,undefined,1920 x 1080,1920 x 1080
S008,34,Mannelijk,Rechts,1,107,left,yes,50,leftarrow,570,false,focus,yes,344417,Chrome,109.0,Windows,10,undefined,undefined,1920 x 1080,1920 x 1080
S008,34,Mannelijk,Rechts,1,108,left,no,50,leftarrow,335,true,focus,yes,345516,Chrome,109.0,Windows,10,undefined,undefined,1920 x 1080,1920 x 1080
S008,34,Mannelijk,Rechts,1,109,right,no,50,rightarrow,504,true,focus,yes,346786,Chrome,109.0,Windows,10,undefined,undefined,1920 x 1080,1920 x 1080
S008,34,Mannelijk,Rechts,1,110,left,no,50,leftarrow,369,true,focus,yes,347925,Chrome,109.0,Windows,10,undefined,undefined,1920 x 1080,1920 x 1080
S008,34,Mannelijk,Rechts,1,111,right,no,50,rightarrow,364,true,focus,yes,349049,Chrome,109.0,Windows,10,undefined,undefined,1920 x 1080,1920 x 1080
S008,34,Mannelijk,Rechts,1,112,right,yes,50,rightarrow,559,false,focus,yes,350371,Chrome,109.0,Windows,10,undefined,undefined,1920 x 1080,1920 x 1080
S008,34,Mannelijk,Rechts,1,113,right,no,50,rightarrow,405,true,focus,yes,351545,Chrome,109.0,Windows,10,undefined,undefined,1920 x 1080,1920 x 1080
S008,34,Mannelijk,Rechts,1,114,left,no,50,leftarrow,282,true,focus,yes,352589,Chrome,109.0,Windows,10,undefined,undefined,1920 x 1080,1920 x 1080
S008,34,Mannelijk,Rechts,1,115,right,yes,50,leftarrow,285,false,focus,yes,353641,Chrome,109.0,Windows,10,undefined,undefined,1920 x 1080,1920 x 1080
S008,34,Mannelijk,Rechts,1,116,left,no,50,leftarrow,310,true,focus,yes,354715,Chrome,109.0,Windows,10,undefined,undefined,1920 x 1080,1920 x 1080
S008,34,Mannelijk,Rechts,1,117,right,no,50,rightarrow,306,true,focus,yes,355791,Chrome,109.0,Windows,10,undefined,undefined,1920 x 1080,1920 x 1080
S008,34,Mannelijk,Rechts,1,118,left,no,50,leftarrow,383,true,focus,yes,356941,Chrome,109.0,Windows,10,undefined,undefined,1920 x 1080,1920 x 1080
S008,34,Mannelijk,Rechts,1,119,right,no,50,rightarrow,330,true,focus,yes,358039,Chrome,109.0,Windows,10,undefined,undefined,1920 x 1080,1920 x 1080
S008,34,Mannelijk,Rechts,1,120,left,yes,50,leftarrow,357,false,focus,yes,359163,Chrome,109.0,Windows,10,undefined,undefined,1920 x 1080,1920 x 1080
S008,34,Mannelijk,Rechts,1,121,left,no,50,leftarrow,374,true,focus,yes,360303,Chrome,109.0,Windows,10,undefined,undefined,1920 x 1080,1920 x 1080
S008,34,Mannelijk,Rechts,1,122,left,no,50,leftarrow,458,true,focus,yes,361527,Chrome,109.0,Windows,10,undefined,undefined,1920 x 1080,1920 x 1080
S008,34,Mannelijk,Rechts,1,123,left,yes,50,leftarrow,413,false,focus,yes,362704,Chrome,109.0,Windows,10,undefined,undefined,1920 x 1080,1920 x 1080
S008,34,Mannelijk,Rechts,1,124,right,no,50,rightarrow,359,true,focus,yes,363830,Chrome,109.0,Windows,10,undefined,undefined,1920 x 1080,1920 x 1080
S008,34,Mannelijk,Rechts,1,125,right,no,50,rightarrow,311,true,focus,yes,364905,Chrome,109.0,Windows,10,undefined,undefined,1920 x 1080,1920 x 1080
S008,34,Mannelijk,Rechts,1,126,right,yes,50,rightarrow,379,false,focus,yes,366043,Chrome,109.0,Windows,10,undefined,undefined,1920 x 1080,1920 x 1080
S008,34,Mannelijk,Rechts,1,127,left,no,50,rightarrow,264,false,focus,yes,367074,Chrome,109.0,Windows,10,undefined,undefined,1920 x 1080,1920 x 1080
S008,34,Mannelijk,Rechts,1,128,right,no,50,rightarrow,261,true,focus,yes,368092,Chrome,109.0,Windows,10,undefined,undefined,1920 x 1080,1920 x 1080
S008,34,Mannelijk,Rechts,2,1,left,no,50,leftarrow,334,true,focus,yes,390479,Chrome,109.0,Windows,10,undefined,undefined,1920 x 1080,1920 x 1080
S008,34,Mannelijk,Rechts,2,2,left,no,50,leftarrow,329,true,focus,yes,391566,Chrome,109.0,Windows,10,undefined,undefined,1920 x 1080,1920 x 1080
S008,34,Mannelijk,Rechts,2,3,right,yes,50,rightarrow,404,false,focus,yes,392735,Chrome,109.0,Windows,10,undefined,undefined,1920 x 1080,1920 x 1080
S008,34,Mannelijk,Rechts,2,4,left,no,50,rightarrow,283,false,focus,yes,393781,Chrome,109.0,Windows,10,undefined,undefined,1920 x 1080,1920 x 1080
S008,34,Mannelijk,Rechts,2,5,right,no,50,rightarrow,255,true,focus,yes,394803,Chrome,109.0,Windows,10,undefined,undefined,1920 x 1080,1920 x 1080
S008,34,Mannelijk,Rechts,2,6,right,no,50,rightarrow,372,true,focus,yes,395934,Chrome,109.0,Windows,10,undefined,undefined,1920 x 1080,1920 x 1080
S008,34,Mannelijk,Rechts,2,7,right,no,50,rightarrow,280,true,focus,yes,396981,Chrome,109.0,Windows,10,undefined,undefined,1920 x 1080,1920 x 1080
S008,34,Mannelijk,Rechts,2,8,left,yes,50,leftarrow,402,false,focus,yes,398151,Chrome,109.0,Windows,10,undefined,undefined,1920 x 1080,1920 x 1080
S008,34,Mannelijk,Rechts,2,9,right,no,50,rightarrow,395,true,focus,yes,399311,Chrome,109.0,Windows,10,undefined,undefined,1920 x 1080,1920 x 1080
S008,34,Mannelijk,Rechts,2,10,left,no,50,leftarrow,324,true,focus,yes,400400,Chrome,109.0,Windows,10,undefined,undefined,1920 x 1080,1920 x 1080
S008,34,Mannelijk,Rechts,2,11,right,no,50,rightarrow,306,true,focus,yes,401469,Chrome,109.0,Windows,10,undefined,undefined,1920 x 1080,1920 x 1080
S008,34,Mannelijk,Rechts,2,12,left,no,50,leftarrow,270,true,focus,yes,402505,Chrome,109.0,Windows,10,undefined,undefined,1920 x 1080,1920 x 1080
S008,34,Mannelijk,Rechts,2,13,right,yes,50,rightarrow,404,false,focus,yes,403674,Chrome,109.0,Windows,10,undefined,undefined,1920 x 1080,1920 x 1080
S008,34,Mannelijk,Rechts,2,14,left,no,50,leftarrow,237,true,focus,yes,404681,Chrome,109.0,Windows,10,undefined,undefined,1920 x 1080,1920 x 1080
S008,34,Mannelijk,Rechts,2,15,left,yes,50,leftarrow,324,false,focus,yes,405767,Chrome,109.0,Windows,10,undefined,undefined,1920 x 1080,1920 x 1080
S008,34,Mannelijk,Rechts,2,16,right,no,50,rightarrow,254,true,focus,yes,406787,Chrome,109.0,Windows,10,undefined,undefined,1920 x 1080,1920 x 1080
S008,34,Mannelijk,Rechts,2,17,left,no,50,leftarrow,329,true,focus,yes,407884,Chrome,109.0,Windows,10,undefined,undefined,1920 x 1080,1920 x 1080
S008,34,Mannelijk,Rechts,2,18,left,yes,50,leftarrow,493,false,focus,yes,409146,Chrome,109.0,Windows,10,undefined,undefined,1920 x 1080,1920 x 1080
S008,34,Mannelijk,Rechts,2,19,right,yes,50,rightarrow,428,false,focus,yes,410346,Chrome,109.0,Windows,10,undefined,undefined,1920 x 1080,1920 x 1080
S008,34,Mannelijk,Rechts,2,20,right,no,50,leftarrow,246,false,focus,yes,411363,Chrome,109.0,Windows,10,undefined,undefined,1920 x 1080,1920 x 1080
S008,34,Mannelijk,Rechts,2,21,right,no,50,rightarrow,469,true,focus,yes,412590,Chrome,109.0,Windows,10,undefined,undefined,1920 x 1080,1920 x 1080
S008,34,Mannelijk,Rechts,2,22,left,no,50,leftarrow,334,true,focus,yes,413687,Chrome,109.0,Windows,10,undefined,undefined,1920 x 1080,1920 x 1080
S008,34,Mannelijk,Rechts,2,23,left,no,50,leftarrow,342,true,focus,yes,414793,Chrome,109.0,Windows,10,undefined,undefined,1920 x 1080,1920 x 1080
S008,34,Mannelijk,Rechts,2,24,right,no,50,rightarrow,596,true,focus,yes,416152,Chrome,109.0,Windows,10,undefined,undefined,1920 x 1080,1920 x 1080
S008,34,Mannelijk,Rechts,2,25,right,no,50,rightarrow,345,true,focus,yes,417262,Chrome,109.0,Windows,10,undefined,undefined,1920 x 1080,1920 x 1080
S008,34,Mannelijk,Rechts,2,26,left,no,50,leftarrow,292,true,focus,yes,418320,Chrome,109.0,Windows,10,undefined,undefined,1920 x 1080,1920 x 1080
S008,34,Mannelijk,Rechts,2,27,right,no,50,leftarrow,317,false,focus,yes,419400,Chrome,109.0,Windows,10,undefined,undefined,1920 x 1080,1920 x 1080
S008,34,Mannelijk,Rechts,2,28,left,yes,50,leftarrow,255,false,focus,yes,420421,Chrome,109.0,Windows,10,undefined,undefined,1920 x 1080,1920 x 1080
S008,34,Mannelijk,Rechts,2,29,right,yes,50,rightarrow,409,false,focus,yes,421598,Chrome,109.0,Windows,10,undefined,undefined,1920 x 1080,1920 x 1080
S008,34,Mannelijk,Rechts,2,30,left,no,50,leftarrow,346,true,focus,yes,422712,Chrome,109.0,Windows,10,undefined,undefined,1920 x 1080,1920 x 1080
S008,34,Mannelijk,Rechts,2,31,left,no,50,leftarrow,273,true,focus,yes,423751,Chrome,109.0,Windows,10,undefined,undefined,1920 x 1080,1920 x 1080
S008,34,Mannelijk,Rechts,2,32,right,no,50,rightarrow,345,true,focus,yes,424860,Chrome,109.0,Windows,10,undefined,undefined,1920 x 1080,1920 x 1080
S008,34,Mannelijk,Rechts,2,33,left,no,50,leftarrow,242,true,focus,yes,425864,Chrome,109.0,Windows,10,undefined,undefined,1920 x 1080,1920 x 1080
S008,34,Mannelijk,Rechts,2,34,right,no,50,rightarrow,310,true,focus,yes,426938,Chrome,109.0,Windows,10,undefined,undefined,1920 x 1080,1920 x 1080
S008,34,Mannelijk,Rechts,2,35,right,no,50,rightarrow,546,true,focus,yes,428255,Chrome,109.0,Windows,10,undefined,undefined,1920 x 1080,1920 x 1080
S008,34,Mannelijk,Rechts,2,36,right,yes,50,rightarrow,278,false,focus,yes,429299,Chrome,109.0,Windows,10,undefined,undefined,1920 x 1080,1920 x 1080
S008,34,Mannelijk,Rechts,2,37,left,yes,50,leftarrow,441,false,focus,yes,430503,Chrome,109.0,Windows,10,undefined,undefined,1920 x 1080,1920 x 1080
S008,34,Mannelijk,Rechts,2,38,right,no,50,rightarrow,338,true,focus,yes,431609,Chrome,109.0,Windows,10,undefined,undefined,1920 x 1080,1920 x 1080
S008,34,Mannelijk,Rechts,2,39,left,no,50,leftarrow,346,true,focus,yes,432721,Chrome,109.0,Windows,10,undefined,undefined,1920 x 1080,1920 x 1080
S008,34,Mannelijk,Rechts,2,40,left,no,50,leftarrow,361,true,focus,yes,433848,Chrome,109.0,Windows,10,undefined,undefined,1920 x 1080,1920 x 1080
S008,34,Mannelijk,Rechts,2,41,left,yes,50,leftarrow,366,false,focus,yes,434980,Chrome,109.0,Windows,10,undefined,undefined,1920 x 1080,1920 x 1080
S008,34,Mannelijk,Rechts,2,42,left,no,50,leftarrow,257,true,focus,yes,436007,Chrome,109.0,Windows,10,undefined,undefined,1920 x 1080,1920 x 1080
S008,34,Mannelijk,Rechts,2,43,right,no,50,rightarrow,373,true,focus,yes,437142,Chrome,109.0,Windows,10,undefined,undefined,1920 x 1080,1920 x 1080
S008,34,Mannelijk,Rechts,2,44,left,no,50,rightarrow,266,false,focus,yes,438176,Chrome,109.0,Windows,10,undefined,undefined,1920 x 1080,1920 x 1080
S008,34,Mannelijk,Rechts,2,45,right,no,50,rightarrow,271,true,focus,yes,439214,Chrome,109.0,Windows,10,undefined,undefined,1920 x 1080,1920 x 1080
S008,34,Mannelijk,Rechts,2,46,right,yes,50,rightarrow,264,false,focus,yes,440244,Chrome,109.0,Windows,10,undefined,undefined,1920 x 1080,1920 x 1080
S008,34,Mannelijk,Rechts,2,47,left,no,50,leftarrow,354,true,focus,yes,441368,Chrome,109.0,Windows,10,undefined,undefined,1920 x 1080,1920 x 1080
S008,34,Mannelijk,Rechts,2,48,right,no,50,rightarrow,297,true,focus,yes,442424,Chrome,109.0,Windows,10,undefined,undefined,1920 x 1080,1920 x 1080
S008,34,Mannelijk,Rechts,2,49,left,no,50,leftarrow,281,true,focus,yes,443466,Chrome,109.0,Windows,10,undefined,undefined,1920 x 1080,1920 x 1080
S008,34,Mannelijk,Rechts,2,50,left,yes,50,leftarrow,369,false,focus,yes,444603,Chrome,109.0,Windows,10,undefined,undefined,1920 x 1080,1920 x 1080
S008,34,Mannelijk,Rechts,2,51,left,no,50,leftarrow,371,true,focus,yes,445734,Chrome,109.0,Windows,10,undefined,undefined,1920 x 1080,1920 x 1080
S008,34,Mannelijk,Rechts,2,52,right,yes,50,rightarrow,395,false,focus,yes,446892,Chrome,109.0,Windows,10,undefined,undefined,1920 x 1080,1920 x 1080
S008,34,Mannelijk,Rechts,2,53,right,no,50,rightarrow,436,true,focus,yes,448085,Chrome,109.0,Windows,10,undefined,undefined,1920 x 1080,1920 x 1080
S008,34,Mannelijk,Rechts,2,54,right,no,50,leftarrow,250,false,focus,yes,449099,Chrome,109.0,Windows,10,undefined,undefined,1920 x 1080,1920 x 1080
S008,34,Mannelijk,Rechts,2,55,right,no,50,rightarrow,459,true,focus,yes,450324,Chrome,109.0,Windows,10,undefined,undefined,1920 x 1080,1920 x 1080
S008,34,Mannelijk,Rechts,2,56,left,no,50,leftarrow,424,true,focus,yes,451506,Chrome,109.0,Windows,10,undefined,undefined,1920 x 1080,1920 x 1080
S008,34,Mannelijk,Rechts,2,57,right,yes,50,rightarrow,290,false,focus,yes,452559,Chrome,109.0,Windows,10,undefined,undefined,1920 x 1080,1920 x 1080
S008,34,Mannelijk,Rechts,2,58,left,no,50,leftarrow,275,true,focus,yes,453592,Chrome,109.0,Windows,10,undefined,undefined,1920 x 1080,1920 x 1080
S008,34,Mannelijk,Rechts,2,59,left,no,50,rightarrow,310,false,focus,yes,454661,Chrome,109.0,Windows,10,undefined,undefined,1920 x 1080,1920 x 1080
S008,34,Mannelijk,Rechts,2,60,right,no,50,rightarrow,270,true,focus,yes,455698,Chrome,109.0,Windows,10,undefined,undefined,1920 x 1080,1920 x 1080
S008,34,Mannelijk,Rechts,2,61,left,yes,50,leftarrow,390,false,focus,yes,456849,Chrome,109.0,Windows,10,undefined,undefined,1920 x 1080,1920 x 1080
S008,34,Mannelijk,Rechts,2,62,left,no,50,leftarrow,391,true,focus,yes,458000,Chrome,109.0,Windows,10,undefined,undefined,1920 x 1080,1920 x 1080
S008,34,Mannelijk,Rechts,2,63,right,no,50,rightarrow,459,true,focus,yes,459218,Chrome,109.0,Windows,10,undefined,undefined,1920 x 1080,1920 x 1080
S008,34,Mannelijk,Rechts,2,64,right,no,50,rightarrow,372,true,focus,yes,460349,Chrome,109.0,Windows,10,undefined,undefined,1920 x 1080,1920 x 1080
S008,34,Mannelijk,Rechts,2,65,right,yes,50,leftarrow,304,false,focus,yes,461420,Chrome,109.0,Windows,10,undefined,undefined,1920 x 1080,1920 x 1080
S008,34,Mannelijk,Rechts,2,66,left,yes,50,leftarrow,358,false,focus,yes,462544,Chrome,109.0,Windows,10,undefined,undefined,1920 x 1080,1920 x 1080
S008,34,Mannelijk,Rechts,2,67,left,no,50,leftarrow,364,true,focus,yes,463671,Chrome,109.0,Windows,10,undefined,undefined,1920 x 1080,1920 x 1080
S008,34,Mannelijk,Rechts,2,68,right,no,50,rightarrow,835,true,focus,yes,465271,Chrome,109.0,Windows,10,undefined,undefined,1920 x 1080,1920 x 1080
S008,34,Mannelijk,Rechts,2,69,right,no,50,rightarrow,420,true,focus,yes,466960,Chrome,109.0,Windows,10,undefined,undefined,1920 x 1080,1920 x 1080
S008,34,Mannelijk,Rechts,2,70,left,no,50,leftarrow,480,true,focus,yes,468201,Chrome,109.0,Windows,10,undefined,undefined,1920 x 1080,1920 x 1080
S008,34,Mannelijk,Rechts,2,71,left,no,50,leftarrow,353,true,focus,yes,469310,Chrome,109.0,Windows,10,undefined,undefined,1920 x 1080,1920 x 1080
S008,34,Mannelijk,Rechts,2,72,right,no,50,rightarrow,665,true,focus,yes,470739,Chrome,109.0,Windows,10,undefined,undefined,1920 x 1080,1920 x 1080
S008,34,Mannelijk,Rechts,2,73,left,no,50,leftarrow,303,true,focus,yes,471808,Chrome,109.0,Windows,10,undefined,undefined,1920 x 1080,1920 x 1080
S008,34,Mannelijk,Rechts,2,74,right,no,50,rightarrow,353,true,focus,yes,472921,Chrome,109.0,Windows,10,undefined,undefined,1920 x 1080,1920 x 1080
S008,34,Mannelijk,Rechts,2,75,left,yes,50,leftarrow,360,false,focus,yes,474044,Chrome,109.0,Windows,10,undefined,undefined,1920 x 1080,1920 x 1080
S008,34,Mannelijk,Rechts,2,76,right,no,50,rightarrow,321,true,focus,yes,475129,Chrome,109.0,Windows,10,undefined,undefined,1920 x 1080,1920 x 1080
S008,34,Mannelijk,Rechts,2,77,right,no,50,leftarrow,169,false,focus,yes,476059,Chrome,109.0,Windows,10,undefined,undefined,1920 x 1080,1920 x 1080
S008,34,Mannelijk,Rechts,2,78,left,no,50,leftarrow,314,true,focus,yes,477139,Chrome,109.0,Windows,10,undefined,undefined,1920 x 1080,1920 x 1080
S008,34,Mannelijk,Rechts,2,79,right,yes,50,rightarrow,488,false,focus,yes,478389,Chrome,109.0,Windows,10,undefined,undefined,1920 x 1080,1920 x 1080
S008,34,Mannelijk,Rechts,2,80,left,no,50,leftarrow,595,true,focus,yes,479742,Chrome,109.0,Windows,10,undefined,undefined,1920 x 1080,1920 x 1080
S008,34,Mannelijk,Rechts,2,81,left,yes,50,leftarrow,473,false,focus,yes,480978,Chrome,109.0,Windows,10,undefined,undefined,1920 x 1080,1920 x 1080
S008,34,Mannelijk,Rechts,2,82,right,no,50,rightarrow,354,true,focus,yes,482095,Chrome,109.0,Windows,10,undefined,undefined,1920 x 1080,1920 x 1080
S008,34,Mannelijk,Rechts,2,83,left,no,50,leftarrow,295,true,focus,yes,483155,Chrome,109.0,Windows,10,undefined,undefined,1920 x 1080,1920 x 1080
S008,34,Mannelijk,Rechts,2,84,left,no,50,leftarrow,312,true,focus,yes,484234,Chrome,109.0,Windows,10,undefined,undefined,1920 x 1080,1920 x 1080
S008,34,Mannelijk,Rechts,2,85,right,yes,50,leftarrow,260,false,focus,yes,485266,Chrome,109.0,Windows,10,undefined,undefined,1920 x 1080,1920 x 1080
S008,34,Mannelijk,Rechts,2,86,left,no,50,leftarrow,278,true,focus,yes,486307,Chrome,109.0,Windows,10,undefined,undefined,1920 x 1080,1920 x 1080
S008,34,Mannelijk,Rechts,2,87,right,no,50,rightarrow,373,true,focus,yes,487449,Chrome,109.0,Windows,10,undefined,undefined,1920 x 1080,1920 x 1080
S008,34,Mannelijk,Rechts,2,88,right,no,50,rightarrow,680,true,focus,yes,488890,Chrome,109.0,Windows,10,undefined,undefined,1920 x 1080,1920 x 1080
S008,34,Mannelijk,Rechts,2,89,right,no,50,rightarrow,379,true,focus,yes,490031,Chrome,109.0,Windows,10,undefined,undefined,1920 x 1080,1920 x 1080
S008,34,Mannelijk,Rechts,2,90,left,no,50,leftarrow,443,true,focus,yes,491241,Chrome,109.0,Windows,10,undefined,undefined,1920 x 1080,1920 x 1080
S008,34,Mannelijk,Rechts,2,91,left,yes,50,leftarrow,378,false,focus,yes,492383,Chrome,109.0,Windows,10,undefined,undefined,1920 x 1080,1920 x 1080
S008,34,Mannelijk,Rechts,2,92,right,no,50,rightarrow,376,true,focus,yes,493524,Chrome,109.0,Windows,10,undefined,undefined,1920 x 1080,1920 x 1080
S008,34,Mannelijk,Rechts,2,93,left,no,50,leftarrow,364,true,focus,yes,494656,Chrome,109.0,Windows,10,undefined,undefined,1920 x 1080,1920 x 1080
S008,34,Mannelijk,Rechts,2,94,right,no,50,rightarrow,362,true,focus,yes,495785,Chrome,109.0,Windows,10,undefined,undefined,1920 x 1080,1920 x 1080
S008,34,Mannelijk,Rechts,2,95,left,no,50,leftarrow,416,true,focus,yes,496964,Chrome,109.0,Windows,10,undefined,undefined,1920 x 1080,1920 x 1080
S008,34,Mannelijk,Rechts,2,96,right,yes,50,rightarrow,380,false,focus,yes,498106,Chrome,109.0,Windows,10,undefined,undefined,1920 x 1080,1920 x 1080
S008,34,Mannelijk,Rechts,2,97,right,no,50,rightarrow,376,true,focus,yes,499243,Chrome,109.0,Windows,10,undefined,undefined,1920 x 1080,1920 x 1080
S008,34,Mannelijk,Rechts,2,98,right,no,50,rightarrow,307,true,focus,yes,500321,Chrome,109.0,Windows,10,undefined,undefined,1920 x 1080,1920 x 1080
S008,34,Mannelijk,Rechts,2,99,left,no,50,rightarrow,293,false,focus,yes,501381,Chrome,109.0,Windows,10,undefined,undefined,1920 x 1080,1920 x 1080
S008,34,Mannelijk,Rechts,2,100,left,no,50,leftarrow,602,true,focus,yes,502745,Chrome,109.0,Windows,10,undefined,undefined,1920 x 1080,1920 x 1080
S008,34,Mannelijk,Rechts,2,101,right,yes,50,rightarrow,402,false,focus,yes,503912,Chrome,109.0,Windows,10,undefined,undefined,1920 x 1080,1920 x 1080
S008,34,Mannelijk,Rechts,2,102,right,no,50,rightarrow,486,true,focus,yes,505164,Chrome,109.0,Windows,10,undefined,undefined,1920 x 1080,1920 x 1080
S008,34,Mannelijk,Rechts,2,103,left,yes,50,leftarrow,839,false,focus,yes,506765,Chrome,109.0,Windows,10,undefined,undefined,1920 x 1080,1920 x 1080
S008,34,Mannelijk,Rechts,2,104,left,no,50,leftarrow,344,true,focus,yes,507879,Chrome,109.0,Windows,10,undefined,undefined,1920 x 1080,1920 x 1080
S008,34,Mannelijk,Rechts,2,105,left,yes,50,leftarrow,356,false,focus,yes,509003,Chrome,109.0,Windows,10,undefined,undefined,1920 x 1080,1920 x 1080
S008,34,Mannelijk,Rechts,2,106,right,no,50,rightarrow,314,true,focus,yes,510085,Chrome,109.0,Windows,10,undefined,undefined,1920 x 1080,1920 x 1080
S008,34,Mannelijk,Rechts,2,107,left,no,50,leftarrow,254,true,focus,yes,511108,Chrome,109.0,Windows,10,undefined,undefined,1920 x 1080,1920 x 1080
S008,34,Mannelijk,Rechts,2,108,right,no,50,rightarrow,349,true,focus,yes,512216,Chrome,109.0,Windows,10,undefined,undefined,1920 x 1080,1920 x 1080
S008,34,Mannelijk,Rechts,2,109,right,no,50,rightarrow,354,true,focus,yes,513329,Chrome,109.0,Windows,10,undefined,undefined,1920 x 1080,1920 x 1080
S008,34,Mannelijk,Rechts,2,110,left,no,50,leftarrow,337,true,focus,yes,514423,Chrome,109.0,Windows,10,undefined,undefined,1920 x 1080,1920 x 1080
S008,34,Mannelijk,Rechts,2,111,right,yes,50,rightarrow,351,false,focus,yes,515535,Chrome,109.0,Windows,10,undefined,undefined,1920 x 1080,1920 x 1080
S008,34,Mannelijk,Rechts,2,112,left,no,50,leftarrow,263,true,focus,yes,516556,Chrome,109.0,Windows,10,undefined,undefined,1920 x 1080,1920 x 1080
S008,34,Mannelijk,Rechts,2,113,left,no,50,leftarrow,293,true,focus,yes,517616,Chrome,109.0,Windows,10,undefined,undefined,1920 x 1080,1920 x 1080
S008,34,Mannelijk,Rechts,2,114,right,no,50,rightarrow,356,true,focus,yes,518735,Chrome,109.0,Windows,10,undefined,undefined,1920 x 1080,1920 x 1080
S008,34,Mannelijk,Rechts,2,115,right,no,50,leftarrow,255,false,focus,yes,519751,Chrome,109.0,Windows,10,undefined,undefined,1920 x 1080,1920 x 1080
S008,34,Mannelijk,Rechts,2,116,left,no,50,leftarrow,374,true,focus,yes,520885,Chrome,109.0,Windows,10,undefined,undefined,1920 x 1080,1920 x 1080
S008,34,Mannelijk,Rechts,2,117,left,no,50,leftarrow,400,true,focus,yes,522049,Chrome,109.0,Windows,10,undefined,undefined,1920 x 1080,1920 x 1080
S008,34,Mannelijk,Rechts,2,118,right,yes,50,rightarrow,344,false,focus,yes,523153,Chrome,109.0,Windows,10,undefined,undefined,1920 x 1080,1920 x 1080
S008,34,Mannelijk,Rechts,2,119,right,no,50,leftarrow,270,false,focus,yes,524183,Chrome,109.0,Windows,10,undefined,undefined,1920 x 1080,1920 x 1080
S008,34,Mannelijk,Rechts,2,120,left,yes,50,leftarrow,419,false,focus,yes,525367,Chrome,109.0,Windows,10,undefined,undefined,1920 x 1080,1920 x 1080
S008,34,Mannelijk,Rechts,2,121,left,no,50,leftarrow,637,true,focus,yes,526766,Chrome,109.0,Windows,10,undefined,undefined,1920 x 1080,1920 x 1080
S008,34,Mannelijk,Rechts,2,122,right,no,50,rightarrow,347,true,focus,yes,527879,Chrome,109.0,Windows,10,undefined,undefined,1920 x 1080,1920 x 1080
S008,34,Mannelijk,Rechts,2,123,left,yes,50,leftarrow,340,false,focus,yes,528984,Chrome,109.0,Windows,10,undefined,undefined,1920 x 1080,1920 x 1080
S008,34,Mannelijk,Rechts,2,124,right,no,50,rightarrow,348,true,focus,yes,530095,Chrome,109.0,Windows,10,undefined,undefined,1920 x 1080,1920 x 1080
S008,34,Mannelijk,Rechts,2,125,right,yes,50,rightarrow,387,false,focus,yes,531246,Chrome,109.0,Windows,10,undefined,undefined,1920 x 1080,1920 x 1080
S008,34,Mannelijk,Rechts,2,126,right,no,50,rightarrow,335,true,focus,yes,532346,Chrome,109.0,Windows,10,undefined,undefined,1920 x 1080,1920 x 1080
S008,34,Mannelijk,Rechts,2,127,left,no,50,leftarrow,392,true,focus,yes,533499,Chrome,109.0,Windows,10,undefined,undefined,1920 x 1080,1920 x 1080
S008,34,Mannelijk,Rechts,2,128,left,no,50,leftarrow,635,true,focus,yes,534896,Chrome,109.0,Windows,10,undefined,undefined,1920 x 1080,1920 x 1080
S008,34,Mannelijk,Rechts,3,1,left,no,50,leftarrow,297,true,focus,yes,561318,Chrome,109.0,Windows,10,undefined,undefined,1920 x 1080,1920 x 1080
S008,34,Mannelijk,Rechts,3,2,left,yes,50,leftarrow,349,false,focus,yes,562429,Chrome,109.0,Windows,10,undefined,undefined,1920 x 1080,1920 x 1080
S008,34,Mannelijk,Rechts,3,3,right,no,50,rightarrow,334,true,focus,yes,563533,Chrome,109.0,Windows,10,undefined,undefined,1920 x 1080,1920 x 1080
S008,34,Mannelijk,Rechts,3,4,right,no,50,rightarrow,312,true,focus,yes,564602,Chrome,109.0,Windows,10,undefined,undefined,1920 x 1080,1920 x 1080
S008,34,Mannelijk,Rechts,3,5,right,no,50,rightarrow,288,true,focus,yes,565650,Chrome,109.0,Windows,10,undefined,undefined,1920 x 1080,1920 x 1080
S008,34,Mannelijk,Rechts,3,6,left,no,50,rightarrow,280,false,focus,yes,566696,Chrome,109.0,Windows,10,undefined,undefined,1920 x 1080,1920 x 1080
S008,34,Mannelijk,Rechts,3,7,left,no,50,rightarrow,236,false,focus,yes,567698,Chrome,109.0,Windows,10,undefined,undefined,1920 x 1080,1920 x 1080
S008,34,Mannelijk,Rechts,3,8,right,yes,50,rightarrow,332,false,focus,yes,568794,Chrome,109.0,Windows,10,undefined,undefined,1920 x 1080,1920 x 1080
S008,34,Mannelijk,Rechts,3,9,left,no,50,leftarrow,526,true,focus,yes,570080,Chrome,109.0,Windows,10,undefined,undefined,1920 x 1080,1920 x 1080
S008,34,Mannelijk,Rechts,3,10,left,yes,50,leftarrow,452,false,focus,yes,571299,Chrome,109.0,Windows,10,undefined,undefined,1920 x 1080,1920 x 1080
S008,34,Mannelijk,Rechts,3,11,right,yes,50,rightarrow,386,false,focus,yes,572448,Chrome,109.0,Windows,10,undefined,undefined,1920 x 1080,1920 x 1080
S008,34,Mannelijk,Rechts,3,12,left,no,50,leftarrow,330,true,focus,yes,573545,Chrome,109.0,Windows,10,undefined,undefined,1920 x 1080,1920 x 1080
S008,34,Mannelijk,Rechts,3,13,left,no,50,leftarrow,368,true,focus,yes,574678,Chrome,109.0,Windows,10,undefined,undefined,1920 x 1080,1920 x 1080
S008,34,Mannelijk,Rechts,3,14,right,no,50,rightarrow,425,true,focus,yes,575869,Chrome,109.0,Windows,10,undefined,undefined,1920 x 1080,1920 x 1080
S008,34,Mannelijk,Rechts,3,15,right,no,50,rightarrow,332,true,focus,yes,576970,Chrome,109.0,Windows,10,undefined,undefined,1920 x 1080,1920 x 1080
S008,34,Mannelijk,Rechts,3,16,right,no,50,leftarrow,321,false,focus,yes,578052,Chrome,109.0,Windows,10,undefined,undefined,1920 x 1080,1920 x 1080
S008,34,Mannelijk,Rechts,3,17,right,no,50,rightarrow,417,true,focus,yes,579236,Chrome,109.0,Windows,10,undefined,undefined,1920 x 1080,1920 x 1080
S008,34,Mannelijk,Rechts,3,18,right,no,50,rightarrow,744,true,focus,yes,580750,Chrome,109.0,Windows,10,undefined,undefined,1920 x 1080,1920 x 1080
S008,34,Mannelijk,Rechts,3,19,right,yes,50,rightarrow,476,false,focus,yes,581995,Chrome,109.0,Windows,10,undefined,undefined,1920 x 1080,1920 x 1080
S008,34,Mannelijk,Rechts,3,20,left,no,50,leftarrow,473,true,focus,yes,583233,Chrome,109.0,Windows,10,undefined,undefined,1920 x 1080,1920 x 1080
S008,34,Mannelijk,Rechts,3,21,right,no,50,rightarrow,469,true,focus,yes,584465,Chrome,109.0,Windows,10,undefined,undefined,1920 x 1080,1920 x 1080
S008,34,Mannelijk,Rechts,3,22,left,no,50,leftarrow,418,true,focus,yes,585649,Chrome,109.0,Windows,10,undefined,undefined,1920 x 1080,1920 x 1080
S008,34,Mannelijk,Rechts,3,23,left,no,50,leftarrow,450,true,focus,yes,586865,Chrome,109.0,Windows,10,undefined,undefined,1920 x 1080,1920 x 1080
S008,34,Mannelijk,Rechts,3,24,left,yes,50,leftarrow,462,false,focus,yes,588089,Chrome,109.0,Windows,10,undefined,undefined,1920 x 1080,1920 x 1080
S008,34,Mannelijk,Rechts,3,25,right,no,50,rightarrow,393,true,focus,yes,589250,Chrome,109.0,Windows,10,undefined,undefined,1920 x 1080,1920 x 1080
S008,34,Mannelijk,Rechts,3,26,left,no,50,leftarrow,360,true,focus,yes,590370,Chrome,109.0,Windows,10,undefined,undefined,1920 x 1080,1920 x 1080
S008,34,Mannelijk,Rechts,3,27,left,yes,50,leftarrow,449,false,focus,yes,591577,Chrome,109.0,Windows,10,undefined,undefined,1920 x 1080,1920 x 1080
S008,34,Mannelijk,Rechts,3,28,left,no,50,leftarrow,350,true,focus,yes,592686,Chrome,109.0,Windows,10,undefined,undefined,1920 x 1080,1920 x 1080
S008,34,Mannelijk,Rechts,3,29,left,no,50,leftarrow,387,true,focus,yes,593830,Chrome,109.0,Windows,10,undefined,undefined,1920 x 1080,1920 x 1080
S008,34,Mannelijk,Rechts,3,30,right,yes,50,rightarrow,394,false,focus,yes,594987,Chrome,109.0,Windows,10,undefined,undefined,1920 x 1080,1920 x 1080
S008,34,Mannelijk,Rechts,3,31,right,no,50,leftarrow,269,false,focus,yes,596015,Chrome,109.0,Windows,10,undefined,undefined,1920 x 1080,1920 x 1080
S008,34,Mannelijk,Rechts,3,32,right,no,50,rightarrow,435,true,focus,yes,597210,Chrome,109.0,Windows,10,undefined,undefined,1920 x 1080,1920 x 1080
S008,34,Mannelijk,Rechts,3,33,right,no,50,rightarrow,352,true,focus,yes,598320,Chrome,109.0,Windows,10,undefined,undefined,1920 x 1080,1920 x 1080
S008,34,Mannelijk,Rechts,3,34,right,yes,50,rightarrow,332,false,focus,yes,599411,Chrome,109.0,Windows,10,undefined,undefined,1920 x 1080,1920 x 1080
S008,34,Mannelijk,Rechts,3,35,left,no,50,rightarrow,241,false,focus,yes,600418,Chrome,109.0,Windows,10,undefined,undefined,1920 x 1080,1920 x 1080
S008,34,Mannelijk,Rechts,3,36,left,no,50,rightarrow,229,false,focus,yes,601405,Chrome,109.0,Windows,10,undefined,undefined,1920 x 1080,1920 x 1080
S008,34,Mannelijk,Rechts,3,37,right,no,50,leftarrow,254,false,focus,yes,602424,Chrome,109.0,Windows,10,undefined,undefined,1920 x 1080,1920 x 1080
S008,34,Mannelijk,Rechts,3,38,right,no,50,rightarrow,540,true,focus,yes,603725,Chrome,109.0,Windows,10,undefined,undefined,1920 x 1080,1920 x 1080
S008,34,Mannelijk,Rechts,3,39,left,no,50,leftarrow,393,true,focus,yes,604884,Chrome,109.0,Windows,10,undefined,undefined,1920 x 1080,1920 x 1080
S008,34,Mannelijk,Rechts,3,40,left,yes,50,leftarrow,418,false,focus,yes,606068,Chrome,109.0,Windows,10,undefined,undefined,1920 x 1080,1920 x 1080
S008,34,Mannelijk,Rechts,3,41,left,no,50,leftarrow,427,true,focus,yes,607252,Chrome,109.0,Windows,10,undefined,undefined,1920 x 1080,1920 x 1080
S008,34,Mannelijk,Rechts,3,42,left,no,50,leftarrow,331,true,focus,yes,608346,Chrome,109.0,Windows,10,undefined,undefined,1920 x 1080,1920 x 1080
S008,34,Mannelijk,Rechts,3,43,right,no,50,leftarrow,324,false,focus,yes,609439,Chrome,109.0,Windows,10,undefined,undefined,1920 x 1080,1920 x 1080
S008,34,Mannelijk,Rechts,3,44,left,yes,50,leftarrow,414,false,focus,yes,610617,Chrome,109.0,Windows,10,undefined,undefined,1920 x 1080,1920 x 1080
S008,34,Mannelijk,Rechts,3,45,right,yes,50,rightarrow,388,false,focus,yes,611767,Chrome,109.0,Windows,10,undefined,undefined,1920 x 1080,1920 x 1080
S008,34,Mannelijk,Rechts,3,46,right,no,50,rightarrow,443,true,focus,yes,612975,Chrome,109.0,Windows,10,undefined,undefined,1920 x 1080,1920 x 1080
S008,34,Mannelijk,Rechts,3,47,right,no,50,leftarrow,218,false,focus,yes,613959,Chrome,109.0,Windows,10,undefined,undefined,1920 x 1080,1920 x 1080
S008,34,Mannelijk,Rechts,3,48,left,no,50,leftarrow,353,true,focus,yes,615079,Chrome,109.0,Windows,10,undefined,undefined,1920 x 1080,1920 x 1080
S008,34,Mannelijk,Rechts,3,49,right,no,50,rightarrow,535,true,focus,yes,616380,Chrome,109.0,Windows,10,undefined,undefined,1920 x 1080,1920 x 1080
S008,34,Mannelijk,Rechts,3,50,left,no,50,leftarrow,373,true,focus,yes,617521,Chrome,109.0,Windows,10,undefined,undefined,1920 x 1080,1920 x 1080
S008,34,Mannelijk,Rechts,3,51,left,yes,50,leftarrow,327,false,focus,yes,618610,Chrome,109.0,Windows,10,undefined,undefined,1920 x 1080,1920 x 1080
S008,34,Mannelijk,Rechts,3,52,left,no,50,leftarrow,346,true,focus,yes,619716,Chrome,109.0,Windows,10,undefined,undefined,1920 x 1080,1920 x 1080
S008,34,Mannelijk,Rechts,3,53,left,no,50,leftarrow,249,true,focus,yes,620732,Chrome,109.0,Windows,10,undefined,undefined,1920 x 1080,1920 x 1080
S008,34,Mannelijk,Rechts,3,54,right,no,50,leftarrow,185,false,focus,yes,621681,Chrome,109.0,Windows,10,undefined,undefined,1920 x 1080,1920 x 1080
S008,34,Mannelijk,Rechts,3,55,right,no,50,leftarrow,146,false,focus,yes,622589,Chrome,109.0,Windows,10,undefined,undefined,1920 x 1080,1920 x 1080
S008,34,Mannelijk,Rechts,3,56,right,yes,50,rightarrow,437,false,focus,yes,623786,Chrome,109.0,Windows,10,undefined,undefined,1920 x 1080,1920 x 1080
S008,34,Mannelijk,Rechts,3,57,right,no,50,rightarrow,385,true,focus,yes,624929,Chrome,109.0,Windows,10,undefined,undefined,1920 x 1080,1920 x 1080
S008,34,Mannelijk,Rechts,3,58,left,no,50,leftarrow,403,true,focus,yes,626096,Chrome,109.0,Windows,10,undefined,undefined,1920 x 1080,1920 x 1080
S008,34,Mannelijk,Rechts,3,59,right,no,50,rightarrow,594,true,focus,yes,627452,Chrome,109.0,Windows,10,undefined,undefined,1920 x 1080,1920 x 1080
S008,34,Mannelijk,Rechts,3,60,right,no,50,rightarrow,349,true,focus,yes,628567,Chrome,109.0,Windows,10,undefined,undefined,1920 x 1080,1920 x 1080
S008,34,Mannelijk,Rechts,3,61,left,no,50,leftarrow,296,true,focus,yes,629627,Chrome,109.0,Windows,10,undefined,undefined,1920 x 1080,1920 x 1080
S008,34,Mannelijk,Rechts,3,62,left,no,50,leftarrow,299,true,focus,yes,630688,Chrome,109.0,Windows,10,undefined,undefined,1920 x 1080,1920 x 1080
S008,34,Mannelijk,Rechts,3,63,right,yes,50,rightarrow,435,false,focus,yes,631890,Chrome,109.0,Windows,10,undefined,undefined,1920 x 1080,1920 x 1080
S008,34,Mannelijk,Rechts,3,64,left,yes,50,leftarrow,196,false,focus,yes,632854,Chrome,109.0,Windows,10,undefined,undefined,1920 x 1080,1920 x 1080
S008,34,Mannelijk,Rechts,3,65,right,no,50,rightarrow,232,true,focus,yes,633853,Chrome,109.0,Windows,10,undefined,undefined,1920 x 1080,1920 x 1080
S008,34,Mannelijk,Rechts,3,66,left,no,50,leftarrow,153,true,focus,yes,634772,Chrome,109.0,Windows,10,undefined,undefined,1920 x 1080,1920 x 1080
S008,34,Mannelijk,Rechts,3,67,right,no,50,rightarrow,330,true,focus,yes,635870,Chrome,109.0,Windows,10,undefined,undefined,1920 x 1080,1920 x 1080
S008,34,Mannelijk,Rechts,3,68,left,yes,50,leftarrow,332,false,focus,yes,636970,Chrome,109.0,Windows,10,undefined,undefined,1920 x 1080,1920 x 1080
S008,34,Mannelijk,Rechts,3,69,right,no,50,rightarrow,197,true,focus,yes,637930,Chrome,109.0,Windows,10,undefined,undefined,1920 x 1080,1920 x 1080
S008,34,Mannelijk,Rechts,3,70,right,yes,50,rightarrow,400,false,focus,yes,639094,Chrome,109.0,Windows,10,undefined,undefined,1920 x 1080,1920 x 1080
S008,34,Mannelijk,Rechts,3,71,left,no,50,leftarrow,300,true,focus,yes,640160,Chrome,109.0,Windows,10,undefined,undefined,1920 x 1080,1920 x 1080
S008,34,Mannelijk,Rechts,3,72,left,no,50,rightarrow,298,false,focus,yes,641225,Chrome,109.0,Windows,10,undefined,undefined,1920 x 1080,1920 x 1080
S008,34,Mannelijk,Rechts,3,73,right,no,50,rightarrow,251,true,focus,yes,642243,Chrome,109.0,Windows,10,undefined,undefined,1920 x 1080,1920 x 1080
S008,34,Mannelijk,Rechts,3,74,left,no,50,leftarrow,217,true,focus,yes,643228,Chrome,109.0,Windows,10,undefined,undefined,1920 x 1080,1920 x 1080
S008,34,Mannelijk,Rechts,3,75,left,no,50,leftarrow,636,true,focus,yes,644626,Chrome,109.0,Windows,10,undefined,undefined,1920 x 1080,1920 x 1080
S008,34,Mannelijk,Rechts,3,76,right,yes,50,rightarrow,595,false,focus,yes,645986,Chrome,109.0,Windows,10,undefined,undefined,1920 x 1080,1920 x 1080
S008,34,Mannelijk,Rechts,3,77,left,yes,50,leftarrow,298,false,focus,yes,647055,Chrome,109.0,Windows,10,undefined,undefined,1920 x 1080,1920 x 1080
S008,34,Mannelijk,Rechts,3,78,right,no,50,rightarrow,321,true,focus,yes,648143,Chrome,109.0,Windows,10,undefined,undefined,1920 x 1080,1920 x 1080
S008,34,Mannelijk,Rechts,3,79,right,no,50,leftarrow,260,false,focus,yes,649170,Chrome,109.0,Windows,10,undefined,undefined,1920 x 1080,1920 x 1080
S008,34,Mannelijk,Rechts,3,80,left,no,50,leftarrow,337,true,focus,yes,650276,Chrome,109.0,Windows,10,undefined,undefined,1920 x 1080,1920 x 1080
S008,34,Mannelijk,Rechts,3,81,right,yes,50,rightarrow,308,false,focus,yes,651350,Chrome,109.0,Windows,10,undefined,undefined,1920 x 1080,1920 x 1080
S008,34,Mannelijk,Rechts,3,82,left,no,50,leftarrow,275,true,focus,yes,652393,Chrome,109.0,Windows,10,undefined,undefined,1920 x 1080,1920 x 1080
S008,34,Mannelijk,Rechts,3,83,right,no,50,rightarrow,295,true,focus,yes,653453,Chrome,109.0,Windows,10,undefined,undefined,1920 x 1080,1920 x 1080
S008,34,Mannelijk,Rechts,3,84,right,no,50,leftarrow,137,false,focus,yes,654358,Chrome,109.0,Windows,10,undefined,undefined,1920 x 1080,1920 x 1080
S008,34,Mannelijk,Rechts,3,85,right,no,50,leftarrow,221,false,focus,yes,655341,Chrome,109.0,Windows,10,undefined,undefined,1920 x 1080,1920 x 1080
S008,34,Mannelijk,Rechts,3,86,left,yes,50,leftarrow,370,false,focus,yes,656477,Chrome,109.0,Windows,10,undefined,undefined,1920 x 1080,1920 x 1080
S008,34,Mannelijk,Rechts,3,87,left,no,50,leftarrow,411,true,focus,yes,657646,Chrome,109.0,Windows,10,undefined,undefined,1920 x 1080,1920 x 1080
S008,34,Mannelijk,Rechts,3,88,left,no,50,leftarrow,384,true,focus,yes,658795,Chrome,109.0,Windows,10,undefined,undefined,1920 x 1080,1920 x 1080
S008,34,Mannelijk,Rechts,3,89,right,yes,50,rightarrow,334,false,focus,yes,659888,Chrome,109.0,Windows,10,undefined,undefined,1920 x 1080,1920 x 1080
S008,34,Mannelijk,Rechts,3,90,left,no,50,leftarrow,386,true,focus,yes,661031,Chrome,109.0,Windows,10,undefined,undefined,1920 x 1080,1920 x 1080
S008,34,Mannelijk,Rechts,3,91,left,no,50,leftarrow,353,true,focus,yes,662146,Chrome,109.0,Windows,10,undefined,undefined,1920 x 1080,1920 x 1080
S008,34,Mannelijk,Rechts,3,92,left,no,50,rightarrow,283,false,focus,yes,663195,Chrome,109.0,Windows,10,undefined,undefined,1920 x 1080,1920 x 1080
S008,34,Mannelijk,Rechts,3,93,left,yes,50,leftarrow,555,false,focus,yes,664515,Chrome,109.0,Windows,10,undefined,undefined,1920 x 1080,1920 x 1080
S008,34,Mannelijk,Rechts,3,94,right,no,50,rightarrow,332,true,focus,yes,665612,Chrome,109.0,Windows,10,undefined,undefined,1920 x 1080,1920 x 1080
S008,34,Mannelijk,Rechts,3,95,right,no,50,rightarrow,321,true,focus,yes,666697,Chrome,109.0,Windows,10,undefined,undefined,1920 x 1080,1920 x 1080
S008,34,Mannelijk,Rechts,3,96,right,no,50,rightarrow,251,true,focus,yes,667710,Chrome,109.0,Windows,10,undefined,undefined,1920 x 1080,1920 x 1080
S008,34,Mannelijk,Rechts,3,97,right,no,50,rightarrow,299,true,focus,yes,668774,Chrome,109.0,Windows,10,undefined,undefined,1920 x 1080,1920 x 1080
S008,34,Mannelijk,Rechts,3,98,left,no,50,rightarrow,302,false,focus,yes,669840,Chrome,109.0,Windows,10,undefined,undefined,1920 x 1080,1920 x 1080
S008,34,Mannelijk,Rechts,3,99,right,no,50,rightarrow,367,true,focus,yes,670968,Chrome,109.0,Windows,10,undefined,undefined,1920 x 1080,1920 x 1080
S008,34,Mannelijk,Rechts,3,100,left,no,50,rightarrow,281,false,focus,yes,672012,Chrome,109.0,Windows,10,undefined,undefined,1920 x 1080,1920 x 1080
S008,34,Mannelijk,Rechts,3,101,left,no,50,rightarrow,224,false,focus,yes,672994,Chrome,109.0,Windows,10,undefined,undefined,1920 x 1080,1920 x 1080
S008,34,Mannelijk,Rechts,3,102,left,yes,50,leftarrow,565,false,focus,yes,674318,Chrome,109.0,Windows,10,undefined,undefined,1920 x 1080,1920 x 1080
S008,34,Mannelijk,Rechts,3,103,right,no,50,rightarrow,315,true,focus,yes,675391,Chrome,109.0,Windows,10,undefined,undefined,1920 x 1080,1920 x 1080
S008,34,Mannelijk,Rechts,3,104,right,yes,50,rightarrow,365,false,focus,yes,676520,Chrome,109.0,Windows,10,undefined,undefined,1920 x 1080,1920 x 1080
S008,34,Mannelijk,Rechts,3,105,right,yes,50,rightarrow,380,false,focus,yes,677660,Chrome,109.0,Windows,10,undefined,undefined,1920 x 1080,1920 x 1080
S008,34,Mannelijk,Rechts,3,106,left,no,50,leftarrow,425,true,focus,yes,678851,Chrome,109.0,Windows,10,undefined,undefined,1920 x 1080,1920 x 1080
S008,34,Mannelijk,Rechts,3,107,right,no,50,rightarrow,369,true,focus,yes,679978,Chrome,109.0,Windows,10,undefined,undefined,1920 x 1080,1920 x 1080
S008,34,Mannelijk,Rechts,3,108,left,no,50,leftarrow,314,true,focus,yes,681051,Chrome,109.0,Windows,10,undefined,undefined,1920 x 1080,1920 x 1080
S008,34,Mannelijk,Rechts,3,109,left,yes,50,leftarrow,407,false,focus,yes,682220,Chrome,109.0,Windows,10,undefined,undefined,1920 x 1080,1920 x 1080
S008,34,Mannelijk,Rechts,3,110,right,no,50,rightarrow,371,true,focus,yes,683359,Chrome,109.0,Windows,10,undefined,undefined,1920 x 1080,1920 x 1080
S008,34,Mannelijk,Rechts,3,111,left,no,50,leftarrow,302,true,focus,yes,684423,Chrome,109.0,Windows,10,undefined,undefined,1920 x 1080,1920 x 1080
S008,34,Mannelijk,Rechts,3,112,right,no,50,rightarrow,316,true,focus,yes,685502,Chrome,109.0,Windows,10,undefined,undefined,1920 x 1080,1920 x 1080
S008,34,Mannelijk,Rechts,3,113,left,no,50,leftarrow,299,true,focus,yes,686567,Chrome,109.0,Windows,10,undefined,undefined,1920 x 1080,1920 x 1080
S008,34,Mannelijk,Rechts,3,114,left,yes,50,leftarrow,590,false,focus,yes,687912,Chrome,109.0,Windows,10,undefined,undefined,1920 x 1080,1920 x 1080
S008,34,Mannelijk,Rechts,3,115,left,no,50,leftarrow,347,true,focus,yes,689024,Chrome,109.0,Windows,10,undefined,undefined,1920 x 1080,1920 x 1080
S008,34,Mannelijk,Rechts,3,116,right,no,50,rightarrow,429,true,focus,yes,690218,Chrome,109.0,Windows,10,undefined,undefined,1920 x 1080,1920 x 1080
S008,34,Mannelijk,Rechts,3,117,left,no,50,leftarrow,308,true,focus,yes,691298,Chrome,109.0,Windows,10,undefined,undefined,1920 x 1080,1920 x 1080
S008,34,Mannelijk,Rechts,3,118,right,no,50,rightarrow,359,true,focus,yes,692427,Chrome,109.0,Windows,10,undefined,undefined,1920 x 1080,1920 x 1080
S008,34,Mannelijk,Rechts,3,119,right,no,50,rightarrow,379,true,focus,yes,693576,Chrome,109.0,Windows,10,undefined,undefined,1920 x 1080,1920 x 1080
S008,34,Mannelijk,Rechts,3,120,right,yes,50,rightarrow,441,false,focus,yes,694782,Chrome,109.0,Windows,10,undefined,undefined,1920 x 1080,1920 x 1080
S008,34,Mannelijk,Rechts,3,121,right,no,50,rightarrow,395,true,focus,yes,695938,Chrome,109.0,Windows,10,undefined,undefined,1920 x 1080,1920 x 1080
S008,34,Mannelijk,Rechts,3,122,left,yes,50,leftarrow,323,false,focus,yes,697024,Chrome,109.0,Windows,10,undefined,undefined,1920 x 1080,1920 x 1080
S008,34,Mannelijk,Rechts,3,123,right,no,50,rightarrow,423,true,focus,yes,698211,Chrome,109.0,Windows,10,undefined,undefined,1920 x 1080,1920 x 1080
S008,34,Mannelijk,Rechts,3,124,left,no,50,leftarrow,310,true,focus,yes,699287,Chrome,109.0,Windows,10,undefined,undefined,1920 x 1080,1920 x 1080
S008,34,Mannelijk,Rechts,3,125,left,no,50,leftarrow,425,true,focus,yes,700474,Chrome,109.0,Windows,10,undefined,undefined,1920 x 1080,1920 x 1080
S008,34,Mannelijk,Rechts,3,126,right,yes,50,rightarrow,337,false,focus,yes,701577,Chrome,109.0,Windows,10,undefined,undefined,1920 x 1080,1920 x 1080
S008,34,Mannelijk,Rechts,3,127,left,no,50,leftarrow,259,true,focus,yes,702597,Chrome,109.0,Windows,10,undefined,undefined,1920 x 1080,1920 x 1080
S008,34,Mannelijk,Rechts,3,128,right,no,50,rightarrow,218,true,focus,yes,703583,Chrome,109.0,Windows,10,undefined,undefined,1920 x 1080,1920 x 1080
S008,34,Mannelijk,Rechts,4,1,left,no,50,leftarrow,303,true,focus,yes,726878,Chrome,109.0,Windows,10,undefined,undefined,1920 x 1080,1920 x 1080
S008,34,Mannelijk,Rechts,4,2,left,no,50,leftarrow,234,true,focus,yes,727875,Chrome,109.0,Windows,10,undefined,undefined,1920 x 1080,1920 x 1080
S008,34,Mannelijk,Rechts,4,3,right,no,50,leftarrow,243,false,focus,yes,728889,Chrome,109.0,Windows,10,undefined,undefined,1920 x 1080,1920 x 1080
S008,34,Mannelijk,Rechts,4,4,left,yes,50,leftarrow,371,false,focus,yes,730027,Chrome,109.0,Windows,10,undefined,undefined,1920 x 1080,1920 x 1080
S008,34,Mannelijk,Rechts,4,5,right,yes,50,rightarrow,353,false,focus,yes,731146,Chrome,109.0,Windows,10,undefined,undefined,1920 x 1080,1920 x 1080
S008,34,Mannelijk,Rechts,4,6,left,no,50,leftarrow,300,true,focus,yes,732205,Chrome,109.0,Windows,10,undefined,undefined,1920 x 1080,1920 x 1080
S008,34,Mannelijk,Rechts,4,7,right,no,50,leftarrow,186,false,focus,yes,733149,Chrome,109.0,Windows,10,undefined,undefined,1920 x 1080,1920 x 1080
S008,34,Mannelijk,Rechts,4,8,right,no,50,leftarrow,258,false,focus,yes,734166,Chrome,109.0,Windows,10,undefined,undefined,1920 x 1080,1920 x 1080
S008,34,Mannelijk,Rechts,4,9,left,no,50,leftarrow,457,true,focus,yes,735389,Chrome,109.0,Windows,10,undefined,undefined,1920 x 1080,1920 x 1080
S008,34,Mannelijk,Rechts,4,10,left,yes,50,leftarrow,470,false,focus,yes,736625,Chrome,109.0,Windows,10,undefined,undefined,1920 x 1080,1920 x 1080
S008,34,Mannelijk,Rechts,4,11,right,yes,50,rightarrow,504,false,focus,yes,737886,Chrome,109.0,Windows,10,undefined,undefined,1920 x 1080,1920 x 1080
S008,34,Mannelijk,Rechts,4,12,left,no,50,leftarrow,355,true,focus,yes,739000,Chrome,109.0,Windows,10,undefined,undefined,1920 x 1080,1920 x 1080
S008,34,Mannelijk,Rechts,4,13,right,no,50,rightarrow,388,true,focus,yes,740151,Chrome,109.0,Windows,10,undefined,undefined,1920 x 1080,1920 x 1080
S008,34,Mannelijk,Rechts,4,14,left,no,50,leftarrow,298,true,focus,yes,741207,Chrome,109.0,Windows,10,undefined,undefined,1920 x 1080,1920 x 1080
S008,34,Mannelijk,Rechts,4,15,right,no,50,rightarrow,290,true,focus,yes,742258,Chrome,109.0,Windows,10,undefined,undefined,1920 x 1080,1920 x 1080
S008,34,Mannelijk,Rechts,4,16,right,no,50,leftarrow,270,false,focus,yes,743286,Chrome,109.0,Windows,10,undefined,undefined,1920 x 1080,1920 x 1080
S008,34,Mannelijk,Rechts,4,17,left,yes,50,leftarrow,287,false,focus,yes,744338,Chrome,109.0,Windows,10,undefined,undefined,1920 x 1080,1920 x 1080
S008,34,Mannelijk,Rechts,4,18,right,yes,50,rightarrow,592,false,focus,yes,745692,Chrome,109.0,Windows,10,undefined,undefined,1920 x 1080,1920 x 1080
S008,34,Mannelijk,Rechts,4,19,right,no,50,rightarrow,431,true,focus,yes,746884,Chrome,109.0,Windows,10,undefined,undefined,1920 x 1080,1920 x 1080
S008,34,Mannelijk,Rechts,4,20,right,no,50,leftarrow,305,false,focus,yes,747953,Chrome,109.0,Windows,10,undefined,undefined,1920 x 1080,1920 x 1080
S008,34,Mannelijk,Rechts,4,21,right,no,50,rightarrow,897,true,focus,yes,749614,Chrome,109.0,Windows,10,undefined,undefined,1920 x 1080,1920 x 1080
S008,34,Mannelijk,Rechts,4,22,left,no,50,leftarrow,403,true,focus,yes,750782,Chrome,109.0,Windows,10,undefined,undefined,1920 x 1080,1920 x 1080
S008,34,Mannelijk,Rechts,4,23,left,no,50,leftarrow,372,true,focus,yes,751911,Chrome,109.0,Windows,10,undefined,undefined,1920 x 1080,1920 x 1080
S008,34,Mannelijk,Rechts,4,24,left,no,50,leftarrow,371,true,focus,yes,753048,Chrome,109.0,Windows,10,undefined,undefined,1920 x 1080,1920 x 1080
S008,34,Mannelijk,Rechts,4,25,left,no,50,leftarrow,301,true,focus,yes,754115,Chrome,109.0,Windows,10,undefined,undefined,1920 x 1080,1920 x 1080
S008,34,Mannelijk,Rechts,4,26,right,yes,50,rightarrow,491,false,focus,yes,755364,Chrome,109.0,Windows,10,undefined,undefined,1920 x 1080,1920 x 1080
S008,34,Mannelijk,Rechts,4,27,left,no,50,leftarrow,421,true,focus,yes,756546,Chrome,109.0,Windows,10,undefined,undefined,1920 x 1080,1920 x 1080
S008,34,Mannelijk,Rechts,4,28,right,no,50,rightarrow,409,true,focus,yes,757716,Chrome,109.0,Windows,10,undefined,undefined,1920 x 1080,1920 x 1080
S008,34,Mannelijk,Rechts,4,29,right,no,50,rightarrow,390,true,focus,yes,758873,Chrome,109.0,Windows,10,undefined,undefined,1920 x 1080,1920 x 1080
S008,34,Mannelijk,Rechts,4,30,right,no,50,rightarrow,365,true,focus,yes,759998,Chrome,109.0,Windows,10,undefined,undefined,1920 x 1080,1920 x 1080
S008,34,Mannelijk,Rechts,4,31,left,no,50,leftarrow,378,true,focus,yes,761135,Chrome,109.0,Windows,10,undefined,undefined,1920 x 1080,1920 x 1080
S008,34,Mannelijk,Rechts,4,32,left,yes,50,leftarrow,398,false,focus,yes,762295,Chrome,109.0,Windows,10,undefined,undefined,1920 x 1080,1920 x 1080
S008,34,Mannelijk,Rechts,4,33,right,no,50,rightarrow,357,true,focus,yes,763416,Chrome,109.0,Windows,10,undefined,undefined,1920 x 1080,1920 x 1080
S008,34,Mannelijk,Rechts,4,34,left,no,50,leftarrow,384,true,focus,yes,764565,Chrome,109.0,Windows,10,undefined,undefined,1920 x 1080,1920 x 1080
S008,34,Mannelijk,Rechts,4,35,right,yes,50,rightarrow,446,false,focus,yes,765776,Chrome,109.0,Windows,10,undefined,undefined,1920 x 1080,1920 x 1080
S008,34,Mannelijk,Rechts,4,36,left,yes,50,leftarrow,321,false,focus,yes,766863,Chrome,109.0,Windows,10,undefined,undefined,1920 x 1080,1920 x 1080
S008,34,Mannelijk,Rechts,4,37,right,no,50,rightarrow,402,true,focus,yes,768030,Chrome,109.0,Windows,10,undefined,undefined,1920 x 1080,1920 x 1080
S008,34,Mannelijk,Rechts,4,38,right,no,50,rightarrow,565,true,focus,yes,769361,Chrome,109.0,Windows,10,undefined,undefined,1920 x 1080,1920 x 1080
S008,34,Mannelijk,Rechts,4,39,left,no,50,leftarrow,524,true,focus,yes,770650,Chrome,109.0,Windows,10,undefined,undefined,1920 x 1080,1920 x 1080
S008,34,Mannelijk,Rechts,4,40,left,no,50,leftarrow,353,true,focus,yes,771767,Chrome,109.0,Windows,10,undefined,undefined,1920 x 1080,1920 x 1080
S008,34,Mannelijk,Rechts,4,41,right,no,50,rightarrow,348,true,focus,yes,772880,Chrome,109.0,Windows,10,undefined,undefined,1920 x 1080,1920 x 1080
S008,34,Mannelijk,Rechts,4,42,left,yes,50,rightarrow,279,false,focus,yes,773925,Chrome,109.0,Windows,10,undefined,undefined,1920 x 1080,1920 x 1080
S008,34,Mannelijk,Rechts,4,43,left,no,50,leftarrow,547,true,focus,yes,775238,Chrome,109.0,Windows,10,undefined,undefined,1920 x 1080,1920 x 1080
S008,34,Mannelijk,Rechts,4,44,right,no,50,rightarrow,285,true,focus,yes,776290,Chrome,109.0,Windows,10,undefined,undefined,1920 x 1080,1920 x 1080
S008,34,Mannelijk,Rechts,4,45,right,yes,50,rightarrow,663,false,focus,yes,777718,Chrome,109.0,Windows,10,undefined,undefined,1920 x 1080,1920 x 1080
S008,34,Mannelijk,Rechts,4,46,left,no,50,leftarrow,276,true,focus,yes,778760,Chrome,109.0,Windows,10,undefined,undefined,1920 x 1080,1920 x 1080
S008,34,Mannelijk,Rechts,4,47,right,no,50,rightarrow,390,true,focus,yes,779916,Chrome,109.0,Windows,10,undefined,undefined,1920 x 1080,1920 x 1080
S008,34,Mannelijk,Rechts,4,48,left,no,50,leftarrow,324,true,focus,yes,781006,Chrome,109.0,Windows,10,undefined,undefined,1920 x 1080,1920 x 1080
S008,34,Mannelijk,Rechts,4,49,left,no,50,leftarrow,272,true,focus,yes,782046,Chrome,109.0,Windows,10,undefined,undefined,1920 x 1080,1920 x 1080
S008,34,Mannelijk,Rechts,4,50,left,no,50,leftarrow,349,true,focus,yes,783165,Chrome,109.0,Windows,10,undefined,undefined,1920 x 1080,1920 x 1080
S008,34,Mannelijk,Rechts,4,51,right,no,50,leftarrow,143,false,focus,yes,784077,Chrome,109.0,Windows,10,undefined,undefined,1920 x 1080,1920 x 1080
S008,34,Mannelijk,Rechts,4,52,right,no,50,leftarrow,222,false,focus,yes,785062,Chrome,109.0,Windows,10,undefined,undefined,1920 x 1080,1920 x 1080
S008,34,Mannelijk,Rechts,4,53,left,yes,50,leftarrow,373,false,focus,yes,786203,Chrome,109.0,Windows,10,undefined,undefined,1920 x 1080,1920 x 1080
S008,34,Mannelijk,Rechts,4,54,left,no,50,leftarrow,373,true,focus,yes,787339,Chrome,109.0,Windows,10,undefined,undefined,1920 x 1080,1920 x 1080
S008,34,Mannelijk,Rechts,4,55,right,yes,50,rightarrow,341,false,focus,yes,788450,Chrome,109.0,Windows,10,undefined,undefined,1920 x 1080,1920 x 1080
S008,34,Mannelijk,Rechts,4,56,right,no,50,rightarrow,739,true,focus,yes,789954,Chrome,109.0,Windows,10,undefined,undefined,1920 x 1080,1920 x 1080
S008,34,Mannelijk,Rechts,4,57,right,no,50,rightarrow,375,true,focus,yes,791101,Chrome,109.0,Windows,10,undefined,undefined,1920 x 1080,1920 x 1080
S008,34,Mannelijk,Rechts,4,58,left,no,50,leftarrow,400,true,focus,yes,792267,Chrome,109.0,Windows,10,undefined,undefined,1920 x 1080,1920 x 1080
S008,34,Mannelijk,Rechts,4,59,left,no,50,leftarrow,343,true,focus,yes,793376,Chrome,109.0,Windows,10,undefined,undefined,1920 x 1080,1920 x 1080
S008,34,Mannelijk,Rechts,4,60,right,yes,50,rightarrow,390,false,focus,yes,794533,Chrome,109.0,Windows,10,undefined,undefined,1920 x 1080,1920 x 1080
S008,34,Mannelijk,Rechts,4,61,left,no,50,leftarrow,314,true,focus,yes,795618,Chrome,109.0,Windows,10,undefined,undefined,1920 x 1080,1920 x 1080
S008,34,Mannelijk,Rechts,4,62,right,no,50,rightarrow,298,true,focus,yes,796677,Chrome,109.0,Windows,10,undefined,undefined,1920 x 1080,1920 x 1080
S008,34,Mannelijk,Rechts,4,63,left,yes,50,leftarrow,226,false,focus,yes,797669,Chrome,109.0,Windows,10,undefined,undefined,1920 x 1080,1920 x 1080
S008,34,Mannelijk,Rechts,4,64,right,no,50,rightarrow,120,true,focus,yes,798556,Chrome,109.0,Windows,10,undefined,undefined,1920 x 1080,1920 x 1080
S008,34,Mannelijk,Rechts,4,65,left,no,50,leftarrow,89,true,focus,yes,799412,Chrome,109.0,Windows,10,undefined,undefined,1920 x 1080,1920 x 1080
S008,34,Mannelijk,Rechts,4,66,left,no,50,leftarrow,312,true,focus,yes,800484,Chrome,109.0,Windows,10,undefined,undefined,1920 x 1080,1920 x 1080
S008,34,Mannelijk,Rechts,4,67,left,no,50,leftarrow,382,true,focus,yes,801633,Chrome,109.0,Windows,10,undefined,undefined,1920 x 1080,1920 x 1080
S008,34,Mannelijk,Rechts,4,68,right,no,50,rightarrow,704,true,focus,yes,803098,Chrome,109.0,Windows,10,undefined,undefined,1920 x 1080,1920 x 1080
S008,34,Mannelijk,Rechts,4,69,right,yes,50,rightarrow,499,false,focus,yes,804356,Chrome,109.0,Windows,10,undefined,undefined,1920 x 1080,1920 x 1080
S008,34,Mannelijk,Rechts,4,70,right,no,50,leftarrow,466,false,focus,yes,805581,Chrome,109.0,Windows,10,undefined,undefined,1920 x 1080,1920 x 1080
S008,34,Mannelijk,Rechts,4,71,right,no,50,leftarrow,294,false,focus,yes,806633,Chrome,109.0,Windows,10,undefined,undefined,1920 x 1080,1920 x 1080
S008,34,Mannelijk,Rechts,4,72,left,yes,50,leftarrow,304,false,focus,yes,807700,Chrome,109.0,Windows,10,undefined,undefined,1920 x 1080,1920 x 1080
S008,34,Mannelijk,Rechts,4,73,left,yes,50,leftarrow,435,false,focus,yes,808902,Chrome,109.0,Windows,10,undefined,undefined,1920 x 1080,1920 x 1080
S008,34,Mannelijk,Rechts,4,74,right,no,50,rightarrow,303,true,focus,yes,809970,Chrome,109.0,Windows,10,undefined,undefined,1920 x 1080,1920 x 1080
S008,34,Mannelijk,Rechts,4,75,right,no,50,rightarrow,309,true,focus,yes,811040,Chrome,109.0,Windows,10,undefined,undefined,1920 x 1080,1920 x 1080
S008,34,Mannelijk,Rechts,4,76,left,no,50,leftarrow,428,true,focus,yes,812228,Chrome,109.0,Windows,10,undefined,undefined,1920 x 1080,1920 x 1080
S008,34,Mannelijk,Rechts,4,77,right,no,50,rightarrow,378,true,focus,yes,813373,Chrome,109.0,Windows,10,undefined,undefined,1920 x 1080,1920 x 1080
S008,34,Mannelijk,Rechts,4,78,right,yes,50,rightarrow,258,false,focus,yes,814398,Chrome,109.0,Windows,10,undefined,undefined,1920 x 1080,1920 x 1080
S008,34,Mannelijk,Rechts,4,79,left,no,50,leftarrow,145,true,focus,yes,815307,Chrome,109.0,Windows,10,undefined,undefined,1920 x 1080,1920 x 1080
S008,34,Mannelijk,Rechts,4,80,left,no,50,rightarrow,-84,false,focus,yes,815984,Chrome,109.0,Windows,10,undefined,undefined,1920 x 1080,1920 x 1080
S008,34,Mannelijk,Rechts,4,81,left,no,50,leftarrow,467,true,focus,yes,817210,Chrome,109.0,Windows,10,undefined,undefined,1920 x 1080,1920 x 1080
S008,34,Mannelijk,Rechts,4,82,right,no,50,rightarrow,342,true,focus,yes,818314,Chrome,109.0,Windows,10,undefined,undefined,1920 x 1080,1920 x 1080
S008,34,Mannelijk,Rechts,4,83,left,no,50,leftarrow,-70,false,focus,yes,819005,Chrome,109.0,Windows,10,undefined,undefined,1920 x 1080,1920 x 1080
S008,34,Mannelijk,Rechts,4,84,right,no,50,rightarrow,572,true,focus,yes,820344,Chrome,109.0,Windows,10,undefined,undefined,1920 x 1080,1920 x 1080
S008,34,Mannelijk,Rechts,4,85,left,no,50,leftarrow,258,true,focus,yes,821365,Chrome,109.0,Windows,10,undefined,undefined,1920 x 1080,1920 x 1080
S008,34,Mannelijk,Rechts,4,86,right,no,50,rightarrow,342,true,focus,yes,822476,Chrome,109.0,Windows,10,undefined,undefined,1920 x 1080,1920 x 1080
S008,34,Mannelijk,Rechts,4,87,right,yes,50,leftarrow,243,false,focus,yes,823481,Chrome,109.0,Windows,10,undefined,undefined,1920 x 1080,1920 x 1080
S008,34,Mannelijk,Rechts,4,88,left,yes,50,leftarrow,278,false,focus,yes,824522,Chrome,109.0,Windows,10,undefined,undefined,1920 x 1080,1920 x 1080
S008,34,Mannelijk,Rechts,4,89,left,no,50,leftarrow,279,true,focus,yes,825563,Chrome,109.0,Windows,10,undefined,undefined,1920 x 1080,1920 x 1080
S008,34,Mannelijk,Rechts,4,90,right,no,50,rightarrow,363,true,focus,yes,826688,Chrome,109.0,Windows,10,undefined,undefined,1920 x 1080,1920 x 1080
S008,34,Mannelijk,Rechts,4,91,right,no,50,rightarrow,523,true,focus,yes,827976,Chrome,109.0,Windows,10,undefined,undefined,1920 x 1080,1920 x 1080
S008,34,Mannelijk,Rechts,4,92,left,yes,50,leftarrow,391,false,focus,yes,829130,Chrome,109.0,Windows,10,undefined,undefined,1920 x 1080,1920 x 1080
S008,34,Mannelijk,Rechts,4,93,right,yes,50,rightarrow,255,false,focus,yes,830146,Chrome,109.0,Windows,10,undefined,undefined,1920 x 1080,1920 x 1080
S008,34,Mannelijk,Rechts,4,94,right,no,50,rightarrow,404,true,focus,yes,831311,Chrome,109.0,Windows,10,undefined,undefined,1920 x 1080,1920 x 1080
S008,34,Mannelijk,Rechts,4,95,left,no,50,leftarrow,214,true,focus,yes,832290,Chrome,109.0,Windows,10,undefined,undefined,1920 x 1080,1920 x 1080
S008,34,Mannelijk,Rechts,4,96,left,no,50,leftarrow,249,true,focus,yes,833301,Chrome,109.0,Windows,10,undefined,undefined,1920 x 1080,1920 x 1080
S008,34,Mannelijk,Rechts,4,97,right,no,50,rightarrow,273,true,focus,yes,834335,Chrome,109.0,Windows,10,undefined,undefined,1920 x 1080,1920 x 1080
S008,34,Mannelijk,Rechts,4,98,right,no,50,rightarrow,297,true,focus,yes,835394,Chrome,109.0,Windows,10,undefined,undefined,1920 x 1080,1920 x 1080
S008,34,Mannelijk,Rechts,4,99,right,no,50,rightarrow,353,true,focus,yes,836510,Chrome,109.0,Windows,10,undefined,undefined,1920 x 1080,1920 x 1080
S008,34,Mannelijk,Rechts,4,100,left,no,50,leftarrow,900,true,focus,yes,838175,Chrome,109.0,Windows,10,undefined,undefined,1920 x 1080,1920 x 1080
S008,34,Mannelijk,Rechts,4,101,left,no,50,leftarrow,417,true,focus,yes,839358,Chrome,109.0,Windows,10,undefined,undefined,1920 x 1080,1920 x 1080
S008,34,Mannelijk,Rechts,4,102,left,no,50,leftarrow,382,true,focus,yes,840507,Chrome,109.0,Windows,10,undefined,undefined,1920 x 1080,1920 x 1080
S008,34,Mannelijk,Rechts,4,103,right,yes,50,rightarrow,328,false,focus,yes,841598,Chrome,109.0,Windows,10,undefined,undefined,1920 x 1080,1920 x 1080
S008,34,Mannelijk,Rechts,4,104,left,yes,50,leftarrow,261,false,focus,yes,842626,Chrome,109.0,Windows,10,undefined,undefined,1920 x 1080,1920 x 1080
S008,34,Mannelijk,Rechts,4,105,left,yes,50,rightarrow,255,false,focus,yes,843646,Chrome,109.0,Windows,10,undefined,undefined,1920 x 1080,1920 x 1080
S008,34,Mannelijk,Rechts,4,106,right,no,50,rightarrow,309,true,focus,yes,844723,Chrome,109.0,Windows,10,undefined,undefined,1920 x 1080,1920 x 1080
S008,34,Mannelijk,Rechts,4,107,left,no,50,leftarrow,325,true,focus,yes,845812,Chrome,109.0,Windows,10,undefined,undefined,1920 x 1080,1920 x 1080
S008,34,Mannelijk,Rechts,4,108,left,no,50,leftarrow,376,true,focus,yes,846956,Chrome,109.0,Windows,10,undefined,undefined,1920 x 1080,1920 x 1080
S008,34,Mannelijk,Rechts,4,109,left,no,50,leftarrow,328,true,focus,yes,848054,Chrome,109.0,Windows,10,undefined,undefined,1920 x 1080,1920 x 1080
S008,34,Mannelijk,Rechts,4,110,right,no,50,leftarrow,290,false,focus,yes,849114,Chrome,109.0,Windows,10,undefined,undefined,1920 x 1080,1920 x 1080
S008,34,Mannelijk,Rechts,4,111,right,yes,50,rightarrow,489,false,focus,yes,850376,Chrome,109.0,Windows,10,undefined,undefined,1920 x 1080,1920 x 1080
S008,34,Mannelijk,Rechts,4,112,right,no,50,rightarrow,409,true,focus,yes,851552,Chrome,109.0,Windows,10,undefined,undefined,1920 x 1080,1920 x 1080
S008,34,Mannelijk,Rechts,4,113,left,yes,50,leftarrow,433,false,focus,yes,852749,Chrome,109.0,Windows,10,undefined,undefined,1920 x 1080,1920 x 1080
S008,34,Mannelijk,Rechts,4,114,right,yes,50,rightarrow,355,false,focus,yes,853869,Chrome,109.0,Windows,10,undefined,undefined,1920 x 1080,1920 x 1080
S008,34,Mannelijk,Rechts,4,115,right,no,50,rightarrow,359,true,focus,yes,854994,Chrome,109.0,Windows,10,undefined,undefined,1920 x 1080,1920 x 1080
S008,34,Mannelijk,Rechts,4,116,left,no,50,leftarrow,259,true,focus,yes,856016,Chrome,109.0,Windows,10,undefined,undefined,1920 x 1080,1920 x 1080
S008,34,Mannelijk,Rechts,4,117,left,no,50,leftarrow,336,true,focus,yes,857114,Chrome,109.0,Windows,10,undefined,undefined,1920 x 1080,1920 x 1080
S008,34,Mannelijk,Rechts,4,118,right,no,50,rightarrow,377,true,focus,yes,858255,Chrome,109.0,Windows,10,undefined,undefined,1920 x 1080,1920 x 1080
S008,34,Mannelijk,Rechts,4,119,left,no,50,leftarrow,298,true,focus,yes,859320,Chrome,109.0,Windows,10,undefined,undefined,1920 x 1080,1920 x 1080
S008,34,Mannelijk,Rechts,4,120,right,no,50,rightarrow,333,true,focus,yes,860420,Chrome,109.0,Windows,10,undefined,undefined,1920 x 1080,1920 x 1080
S008,34,Mannelijk,Rechts,4,121,right,no,50,rightarrow,427,true,focus,yes,861611,Chrome,109.0,Windows,10,undefined,undefined,1920 x 1080,1920 x 1080
S008,34,Mannelijk,Rechts,4,122,right,yes,50,rightarrow,397,false,focus,yes,862775,Chrome,109.0,Windows,10,undefined,undefined,1920 x 1080,1920 x 1080
S008,34,Mannelijk,Rechts,4,123,left,no,50,leftarrow,317,true,focus,yes,863860,Chrome,109.0,Windows,10,undefined,undefined,1920 x 1080,1920 x 1080
S008,34,Mannelijk,Rechts,4,124,left,no,50,leftarrow,399,true,focus,yes,865028,Chrome,109.0,Windows,10,undefined,undefined,1920 x 1080,1920 x 1080
S008,34,Mannelijk,Rechts,4,125,right,no,50,rightarrow,314,true,focus,yes,866109,Chrome,109.0,Windows,10,undefined,undefined,1920 x 1080,1920 x 1080
S008,34,Mannelijk,Rechts,4,126,left,yes,50,leftarrow,347,false,focus,yes,867226,Chrome,109.0,Windows,10,undefined,undefined,1920 x 1080,1920 x 1080
S008,34,Mannelijk,Rechts,4,127,left,no,50,leftarrow,365,true,focus,yes,868352,Chrome,109.0,Windows,10,undefined,undefined,1920 x 1080,1920 x 1080
S008,34,Mannelijk,Rechts,4,128,right,no,50,rightarrow,289,true,focus,yes,869401,Chrome,109.0,Windows,10,undefined,undefined,1920 x 1080,1920 x 1080
S008,34,Mannelijk,Rechts,5,1,left,yes,50,leftarrow,265,false,focus,yes,888858,Chrome,109.0,Windows,10,undefined,undefined,1920 x 1080,1920 x 1080
S008,34,Mannelijk,Rechts,5,2,right,no,50,rightarrow,188,true,focus,yes,889815,Chrome,109.0,Windows,10,undefined,undefined,1920 x 1080,1920 x 1080
S008,34,Mannelijk,Rechts,5,3,right,no,50,leftarrow,90,false,focus,yes,890668,Chrome,109.0,Windows,10,undefined,undefined,1920 x 1080,1920 x 1080
S008,34,Mannelijk,Rechts,5,4,left,no,50,leftarrow,212,true,focus,yes,891649,Chrome,109.0,Windows,10,undefined,undefined,1920 x 1080,1920 x 1080
S008,34,Mannelijk,Rechts,5,5,right,no,50,rightarrow,265,true,focus,yes,892678,Chrome,109.0,Windows,10,undefined,undefined,1920 x 1080,1920 x 1080
S008,34,Mannelijk,Rechts,5,6,left,no,50,leftarrow,227,true,focus,yes,893672,Chrome,109.0,Windows,10,undefined,undefined,1920 x 1080,1920 x 1080
S008,34,Mannelijk,Rechts,5,7,left,no,50,leftarrow,503,true,focus,yes,894941,Chrome,109.0,Windows,10,undefined,undefined,1920 x 1080,1920 x 1080
S008,34,Mannelijk,Rechts,5,8,right,yes,50,rightarrow,321,false,focus,yes,896023,Chrome,109.0,Windows,10,undefined,undefined,1920 x 1080,1920 x 1080
S008,34,Mannelijk,Rechts,5,9,right,no,50,leftarrow,215,false,focus,yes,897003,Chrome,109.0,Windows,10,undefined,undefined,1920 x 1080,1920 x 1080
S008,34,Mannelijk,Rechts,5,10,left,no,50,leftarrow,205,true,focus,yes,897972,Chrome,109.0,Windows,10,undefined,undefined,1920 x 1080,1920 x 1080
S008,34,Mannelijk,Rechts,5,11,left,no,50,rightarrow,266,false,focus,yes,899005,Chrome,109.0,Windows,10,undefined,undefined,1920 x 1080,1920 x 1080
S008,34,Mannelijk,Rechts,5,12,left,yes,50,leftarrow,256,false,focus,yes,900029,Chrome,109.0,Windows,10,undefined,undefined,1920 x 1080,1920 x 1080
S008,34,Mannelijk,Rechts,5,13,right,no,50,rightarrow,303,true,focus,yes,901095,Chrome,109.0,Windows,10,undefined,undefined,1920 x 1080,1920 x 1080
S008,34,Mannelijk,Rechts,5,14,right,no,50,rightarrow,285,true,focus,yes,902144,Chrome,109.0,Windows,10,undefined,undefined,1920 x 1080,1920 x 1080
S008,34,Mannelijk,Rechts,5,15,right,yes,50,rightarrow,135,false,focus,yes,903038,Chrome,109.0,Windows,10,undefined,undefined,1920 x 1080,1920 x 1080
S008,34,Mannelijk,Rechts,5,16,left,no,50,leftarrow,351,true,focus,yes,904153,Chrome,109.0,Windows,10,undefined,undefined,1920 x 1080,1920 x 1080
S008,34,Mannelijk,Rechts,5,17,left,no,50,rightarrow,275,false,focus,yes,905201,Chrome,109.0,Windows,10,undefined,undefined,1920 x 1080,1920 x 1080
S008,34,Mannelijk,Rechts,5,18,left,no,50,rightarrow,221,false,focus,yes,906187,Chrome,109.0,Windows,10,undefined,undefined,1920 x 1080,1920 x 1080
S008,34,Mannelijk,Rechts,5,19,left,yes,50,leftarrow,563,false,focus,yes,907516,Chrome,109.0,Windows,10,undefined,undefined,1920 x 1080,1920 x 1080
S008,34,Mannelijk,Rechts,5,20,left,no,50,leftarrow,376,true,focus,yes,908656,Chrome,109.0,Windows,10,undefined,undefined,1920 x 1080,1920 x 1080
S008,34,Mannelijk,Rechts,5,21,right,no,50,rightarrow,335,true,focus,yes,909751,Chrome,109.0,Windows,10,undefined,undefined,1920 x 1080,1920 x 1080
S008,34,Mannelijk,Rechts,5,22,right,no,50,rightarrow,299,true,focus,yes,910815,Chrome,109.0,Windows,10,undefined,undefined,1920 x 1080,1920 x 1080
S008,34,Mannelijk,Rechts,5,23,right,no,50,rightarrow,310,true,focus,yes,911891,Chrome,109.0,Windows,10,undefined,undefined,1920 x 1080,1920 x 1080
S008,34,Mannelijk,Rechts,5,24,right,yes,50,rightarrow,281,false,focus,yes,912936,Chrome,109.0,Windows,10,undefined,undefined,1920 x 1080,1920 x 1080
S008,34,Mannelijk,Rechts,5,25,right,no,50,rightarrow,243,true,focus,yes,913946,Chrome,109.0,Windows,10,undefined,undefined,1920 x 1080,1920 x 1080
S008,34,Mannelijk,Rechts,5,26,right,no,50,leftarrow,211,false,focus,yes,914922,Chrome,109.0,Windows,10,undefined,undefined,1920 x 1080,1920 x 1080
S008,34,Mannelijk,Rechts,5,27,right,yes,50,rightarrow,585,false,focus,yes,916271,Chrome,109.0,Windows,10,undefined,undefined,1920 x 1080,1920 x 1080
S008,34,Mannelijk,Rechts,5,28,left,yes,50,leftarrow,389,false,focus,yes,917425,Chrome,109.0,Windows,10,undefined,undefined,1920 x 1080,1920 x 1080
S008,34,Mannelijk,Rechts,5,29,left,no,50,leftarrow,342,true,focus,yes,918532,Chrome,109.0,Windows,10,undefined,undefined,1920 x 1080,1920 x 1080
S008,34,Mannelijk,Rechts,5,30,left,no,50,leftarrow,265,true,focus,yes,919568,Chrome,109.0,Windows,10,undefined,undefined,1920 x 1080,1920 x 1080
S008,34,Mannelijk,Rechts,5,31,right,no,50,rightarrow,369,true,focus,yes,920701,Chrome,109.0,Windows,10,undefined,undefined,1920 x 1080,1920 x 1080
S008,34,Mannelijk,Rechts,5,32,left,no,50,leftarrow,281,true,focus,yes,921752,Chrome,109.0,Windows,10,undefined,undefined,1920 x 1080,1920 x 1080
S008,34,Mannelijk,Rechts,5,33,right,no,50,leftarrow,285,false,focus,yes,922803,Chrome,109.0,Windows,10,undefined,undefined,1920 x 1080,1920 x 1080
S008,34,Mannelijk,Rechts,5,34,right,no,50,rightarrow,521,true,focus,yes,924095,Chrome,109.0,Windows,10,undefined,undefined,1920 x 1080,1920 x 1080
S008,34,Mannelijk,Rechts,5,35,left,no,50,leftarrow,353,true,focus,yes,925217,Chrome,109.0,Windows,10,undefined,undefined,1920 x 1080,1920 x 1080
S008,34,Mannelijk,Rechts,5,36,right,yes,50,rightarrow,474,false,focus,yes,926464,Chrome,109.0,Windows,10,undefined,undefined,1920 x 1080,1920 x 1080
S008,34,Mannelijk,Rechts,5,37,right,no,50,rightarrow,365,true,focus,yes,927589,Chrome,109.0,Windows,10,undefined,undefined,1920 x 1080,1920 x 1080
S008,34,Mannelijk,Rechts,5,38,left,no,50,leftarrow,390,true,focus,yes,928748,Chrome,109.0,Windows,10,undefined,undefined,1920 x 1080,1920 x 1080
S008,34,Mannelijk,Rechts,5,39,left,yes,50,leftarrow,282,false,focus,yes,929801,Chrome,109.0,Windows,10,undefined,undefined,1920 x 1080,1920 x 1080
S008,34,Mannelijk,Rechts,5,40,left,no,50,leftarrow,311,true,focus,yes,930884,Chrome,109.0,Windows,10,undefined,undefined,1920 x 1080,1920 x 1080
S008,34,Mannelijk,Rechts,5,41,left,yes,50,rightarrow,292,false,focus,yes,931942,Chrome,109.0,Windows,10,undefined,undefined,1920 x 1080,1920 x 1080
S008,34,Mannelijk,Rechts,5,42,right,yes,50,rightarrow,475,false,focus,yes,933187,Chrome,109.0,Windows,10,undefined,undefined,1920 x 1080,1920 x 1080
S008,34,Mannelijk,Rechts,5,43,right,no,50,rightarrow,276,true,focus,yes,934227,Chrome,109.0,Windows,10,undefined,undefined,1920 x 1080,1920 x 1080
S008,34,Mannelijk,Rechts,5,44,right,no,50,rightarrow,190,true,focus,yes,935188,Chrome,109.0,Windows,10,undefined,undefined,1920 x 1080,1920 x 1080
S008,34,Mannelijk,Rechts,5,45,left,no,50,leftarrow,296,true,focus,yes,936252,Chrome,109.0,Windows,10,undefined,undefined,1920 x 1080,1920 x 1080
S008,34,Mannelijk,Rechts,5,46,left,no,50,leftarrow,255,true,focus,yes,937269,Chrome,109.0,Windows,10,undefined,undefined,1920 x 1080,1920 x 1080
S008,34,Mannelijk,Rechts,5,47,left,no,50,leftarrow,295,true,focus,yes,938334,Chrome,109.0,Windows,10,undefined,undefined,1920 x 1080,1920 x 1080
S008,34,Mannelijk,Rechts,5,48,right,no,50,leftarrow,243,false,focus,yes,939345,Chrome,109.0,Windows,10,undefined,undefined,1920 x 1080,1920 x 1080
S008,34,Mannelijk,Rechts,5,49,right,yes,50,rightarrow,346,false,focus,yes,940453,Chrome,109.0,Windows,10,undefined,undefined,1920 x 1080,1920 x 1080
S008,34,Mannelijk,Rechts,5,50,left,yes,50,leftarrow,251,false,focus,yes,941470,Chrome,109.0,Windows,10,undefined,undefined,1920 x 1080,1920 x 1080
S008,34,Mannelijk,Rechts,5,51,left,no,50,leftarrow,352,true,focus,yes,942587,Chrome,109.0,Windows,10,undefined,undefined,1920 x 1080,1920 x 1080
S008,34,Mannelijk,Rechts,5,52,left,no,50,leftarrow,305,true,focus,yes,943660,Chrome,109.0,Windows,10,undefined,undefined,1920 x 1080,1920 x 1080
S008,34,Mannelijk,Rechts,5,53,right,no,50,rightarrow,373,true,focus,yes,944793,Chrome,109.0,Windows,10,undefined,undefined,1920 x 1080,1920 x 1080
S008,34,Mannelijk,Rechts,5,54,right,no,50,rightarrow,388,true,focus,yes,945942,Chrome,109.0,Windows,10,undefined,undefined,1920 x 1080,1920 x 1080
S008,34,Mannelijk,Rechts,5,55,right,no,50,rightarrow,357,true,focus,yes,947062,Chrome,109.0,Windows,10,undefined,undefined,1920 x 1080,1920 x 1080
S008,34,Mannelijk,Rechts,5,56,left,no,50,leftarrow,321,true,focus,yes,948148,Chrome,109.0,Windows,10,undefined,undefined,1920 x 1080,1920 x 1080
S008,34,Mannelijk,Rechts,5,57,left,no,50,leftarrow,439,true,focus,yes,949355,Chrome,109.0,Windows,10,undefined,undefined,1920 x 1080,1920 x 1080
S008,34,Mannelijk,Rechts,5,58,right,yes,50,rightarrow,359,false,focus,yes,950473,Chrome,109.0,Windows,10,undefined,undefined,1920 x 1080,1920 x 1080
S008,34,Mannelijk,Rechts,5,59,right,no,50,rightarrow,303,true,focus,yes,951540,Chrome,109.0,Windows,10,undefined,undefined,1920 x 1080,1920 x 1080
S008,34,Mannelijk,Rechts,5,60,left,no,50,leftarrow,382,true,focus,yes,952688,Chrome,109.0,Windows,10,undefined,undefined,1920 x 1080,1920 x 1080
S008,34,Mannelijk,Rechts,5,61,right,no,50,rightarrow,326,true,focus,yes,953778,Chrome,109.0,Windows,10,undefined,undefined,1920 x 1080,1920 x 1080
S008,34,Mannelijk,Rechts,5,62,right,no,50,rightarrow,299,true,focus,yes,954839,Chrome,109.0,Windows,10,undefined,undefined,1920 x 1080,1920 x 1080
S008,34,Mannelijk,Rechts,5,63,left,no,50,rightarrow,143,false,focus,yes,955748,Chrome,109.0,Windows,10,undefined,undefined,1920 x 1080,1920 x 1080
S008,34,Mannelijk,Rechts,5,64,left,yes,50,rightarrow,200,false,focus,yes,956715,Chrome,109.0,Windows,10,undefined,undefined,1920 x 1080,1920 x 1080
S008,34,Mannelijk,Rechts,5,65,right,no,50,rightarrow,340,true,focus,yes,957818,Chrome,109.0,Windows,10,undefined,undefined,1920 x 1080,1920 x 1080
S008,34,Mannelijk,Rechts,5,66,left,no,50,rightarrow,24,false,focus,yes,958606,Chrome,109.0,Windows,10,undefined,undefined,1920 x 1080,1920 x 1080
S008,34,Mannelijk,Rechts,5,67,right,no,50,rightarrow,307,true,focus,yes,959677,Chrome,109.0,Windows,10,undefined,undefined,1920 x 1080,1920 x 1080
S008,34,Mannelijk,Rechts,5,68,left,no,50,leftarrow,308,true,focus,yes,960752,Chrome,109.0,Windows,10,undefined,undefined,1920 x 1080,1920 x 1080
S008,34,Mannelijk,Rechts,5,69,right,no,50,rightarrow,327,true,focus,yes,961842,Chrome,109.0,Windows,10,undefined,undefined,1920 x 1080,1920 x 1080
S008,34,Mannelijk,Rechts,5,70,left,no,50,leftarrow,285,true,focus,yes,962890,Chrome,109.0,Windows,10,undefined,undefined,1920 x 1080,1920 x 1080
S008,34,Mannelijk,Rechts,5,71,left,yes,50,leftarrow,431,false,focus,yes,964083,Chrome,109.0,Windows,10,undefined,undefined,1920 x 1080,1920 x 1080
S008,34,Mannelijk,Rechts,5,72,right,yes,50,rightarrow,276,false,focus,yes,965124,Chrome,109.0,Windows,10,undefined,undefined,1920 x 1080,1920 x 1080
S008,34,Mannelijk,Rechts,5,73,right,no,50,rightarrow,416,true,focus,yes,966305,Chrome,109.0,Windows,10,undefined,undefined,1920 x 1080,1920 x 1080
S008,34,Mannelijk,Rechts,5,74,right,no,50,leftarrow,314,false,focus,yes,967382,Chrome,109.0,Windows,10,undefined,undefined,1920 x 1080,1920 x 1080
S008,34,Mannelijk,Rechts,5,75,left,no,50,leftarrow,408,true,focus,yes,968555,Chrome,109.0,Windows,10,undefined,undefined,1920 x 1080,1920 x 1080
S008,34,Mannelijk,Rechts,5,76,right,yes,50,rightarrow,432,false,focus,yes,969752,Chrome,109.0,Windows,10,undefined,undefined,1920 x 1080,1920 x 1080
S008,34,Mannelijk,Rechts,5,77,right,no,50,leftarrow,237,false,focus,yes,970750,Chrome,109.0,Windows,10,undefined,undefined,1920 x 1080,1920 x 1080
S008,34,Mannelijk,Rechts,5,78,left,no,50,leftarrow,341,true,focus,yes,971856,Chrome,109.0,Windows,10,undefined,undefined,1920 x 1080,1920 x 1080
S008,34,Mannelijk,Rechts,5,79,left,no,50,leftarrow,372,true,focus,yes,972992,Chrome,109.0,Windows,10,undefined,undefined,1920 x 1080,1920 x 1080
S008,34,Mannelijk,Rechts,5,80,left,yes,50,leftarrow,313,false,focus,yes,974069,Chrome,109.0,Windows,10,undefined,undefined,1920 x 1080,1920 x 1080
S008,34,Mannelijk,Rechts,5,81,right,no,50,rightarrow,354,true,focus,yes,975189,Chrome,109.0,Windows,10,undefined,undefined,1920 x 1080,1920 x 1080
S008,34,Mannelijk,Rechts,5,82,right,no,50,rightarrow,288,true,focus,yes,976242,Chrome,109.0,Windows,10,undefined,undefined,1920 x 1080,1920 x 1080
S008,34,Mannelijk,Rechts,5,83,left,no,50,leftarrow,480,true,focus,yes,977485,Chrome,109.0,Windows,10,undefined,undefined,1920 x 1080,1920 x 1080
S008,34,Mannelijk,Rechts,5,84,right,yes,50,rightarrow,307,false,focus,yes,978555,Chrome,109.0,Windows,10,undefined,undefined,1920 x 1080,1920 x 1080
S008,34,Mannelijk,Rechts,5,85,left,no,50,leftarrow,289,true,focus,yes,979611,Chrome,109.0,Windows,10,undefined,undefined,1920 x 1080,1920 x 1080
S008,34,Mannelijk,Rechts,5,86,left,no,50,rightarrow,278,false,focus,yes,980652,Chrome,109.0,Windows,10,undefined,undefined,1920 x 1080,1920 x 1080
S008,34,Mannelijk,Rechts,5,87,left,yes,50,rightarrow,283,false,focus,yes,981703,Chrome,109.0,Windows,10,undefined,undefined,1920 x 1080,1920 x 1080
S008,34,Mannelijk,Rechts,5,88,right,no,50,rightarrow,389,true,focus,yes,982859,Chrome,109.0,Windows,10,undefined,undefined,1920 x 1080,1920 x 1080
S008,34,Mannelijk,Rechts,5,89,right,no,50,rightarrow,318,true,focus,yes,983945,Chrome,109.0,Windows,10,undefined,undefined,1920 x 1080,1920 x 1080
S008,34,Mannelijk,Rechts,5,90,right,yes,50,rightarrow,411,false,focus,yes,985125,Chrome,109.0,Windows,10,undefined,undefined,1920 x 1080,1920 x 1080
S008,34,Mannelijk,Rechts,5,91,right,no,50,rightarrow,331,true,focus,yes,986222,Chrome,109.0,Windows,10,undefined,undefined,1920 x 1080,1920 x 1080
S008,34,Mannelijk,Rechts,5,92,left,yes,50,rightarrow,291,false,focus,yes,987279,Chrome,109.0,Windows,10,undefined,undefined,1920 x 1080,1920 x 1080
S008,34,Mannelijk,Rechts,5,93,left,no,50,leftarrow,597,true,focus,yes,988640,Chrome,109.0,Windows,10,undefined,undefined,1920 x 1080,1920 x 1080
S008,34,Mannelijk,Rechts,5,94,left,no,50,leftarrow,345,true,focus,yes,989749,Chrome,109.0,Windows,10,undefined,undefined,1920 x 1080,1920 x 1080
S008,34,Mannelijk,Rechts,5,95,right,no,50,rightarrow,349,true,focus,yes,990865,Chrome,109.0,Windows,10,undefined,undefined,1920 x 1080,1920 x 1080
S008,34,Mannelijk,Rechts,5,96,left,no,50,leftarrow,399,true,focus,yes,992028,Chrome,109.0,Windows,10,undefined,undefined,1920 x 1080,1920 x 1080
S008,34,Mannelijk,Rechts,5,97,right,yes,50,rightarrow,366,false,focus,yes,993165,Chrome,109.0,Windows,10,undefined,undefined,1920 x 1080,1920 x 1080
S008,34,Mannelijk,Rechts,5,98,right,no,50,rightarrow,418,true,focus,yes,994350,Chrome,109.0,Windows,10,undefined,undefined,1920 x 1080,1920 x 1080
S008,34,Mannelijk,Rechts,5,99,right,no,50,rightarrow,404,true,focus,yes,995519,Chrome,109.0,Windows,10,undefined,undefined,1920 x 1080,1920 x 1080
S008,34,Mannelijk,Rechts,5,100,left,no,50,leftarrow,396,true,focus,yes,996682,Chrome,109.0,Windows,10,undefined,undefined,1920 x 1080,1920 x 1080
S008,34,Mannelijk,Rechts,5,101,right,no,50,rightarrow,461,true,focus,yes,997909,Chrome,109.0,Windows,10,undefined,undefined,1920 x 1080,1920 x 1080
S008,34,Mannelijk,Rechts,5,102,left,no,50,leftarrow,287,true,focus,yes,998965,Chrome,109.0,Windows,10,undefined,undefined,1920 x 1080,1920 x 1080
S008,34,Mannelijk,Rechts,5,103,left,yes,50,rightarrow,227,false,focus,yes,999959,Chrome,109.0,Windows,10,undefined,undefined,1920 x 1080,1920 x 1080
S008,34,Mannelijk,Rechts,5,104,left,no,50,leftarrow,448,true,focus,yes,1001176,Chrome,109.0,Windows,10,undefined,undefined,1920 x 1080,1920 x 1080
S008,34,Mannelijk,Rechts,5,105,left,no,50,leftarrow,414,true,focus,yes,1002357,Chrome,109.0,Windows,10,undefined,undefined,1920 x 1080,1920 x 1080
S008,34,Mannelijk,Rechts,5,106,left,yes,50,leftarrow,306,false,focus,yes,1003433,Chrome,109.0,Windows,10,undefined,undefined,1920 x 1080,1920 x 1080
S008,34,Mannelijk,Rechts,5,107,left,no,50,leftarrow,296,true,focus,yes,1004491,Chrome,109.0,Windows,10,undefined,undefined,1920 x 1080,1920 x 1080
S008,34,Mannelijk,Rechts,5,108,left,no,50,leftarrow,274,true,focus,yes,1005534,Chrome,109.0,Windows,10,undefined,undefined,1920 x 1080,1920 x 1080
S008,34,Mannelijk,Rechts,5,109,right,no,50,leftarrow,275,false,focus,yes,1006577,Chrome,109.0,Windows,10,undefined,undefined,1920 x 1080,1920 x 1080
S008,34,Mannelijk,Rechts,5,110,right,no,50,rightarrow,496,true,focus,yes,1007836,Chrome,109.0,Windows,10,undefined,undefined,1920 x 1080,1920 x 1080
S008,34,Mannelijk,Rechts,5,111,right,no,50,rightarrow,383,true,focus,yes,1008989,Chrome,109.0,Windows,10,undefined,undefined,1920 x 1080,1920 x 1080
S008,34,Mannelijk,Rechts,5,112,right,yes,50,rightarrow,289,false,focus,yes,1010050,Chrome,109.0,Windows,10,undefined,undefined,1920 x 1080,1920 x 1080
S008,34,Mannelijk,Rechts,5,113,left,no,50,rightarrow,259,false,focus,yes,1011082,Chrome,109.0,Windows,10,undefined,undefined,1920 x 1080,1920 x 1080
S008,34,Mannelijk,Rechts,5,114,left,yes,50,rightarrow,271,false,focus,yes,1012114,Chrome,109.0,Windows,10,undefined,undefined,1920 x 1080,1920 x 1080
S008,34,Mannelijk,Rechts,5,115,right,no,50,rightarrow,398,true,focus,yes,1013279,Chrome,109.0,Windows,10,undefined,undefined,1920 x 1080,1920 x 1080
S008,34,Mannelijk,Rechts,5,116,left,no,50,leftarrow,338,true,focus,yes,1014380,Chrome,109.0,Windows,10,undefined,undefined,1920 x 1080,1920 x 1080
S008,34,Mannelijk,Rechts,5,117,right,yes,50,rightarrow,331,false,focus,yes,1015476,Chrome,109.0,Windows,10,undefined,undefined,1920 x 1080,1920 x 1080
S008,34,Mannelijk,Rechts,5,118,right,no,50,rightarrow,598,true,focus,yes,1016833,Chrome,109.0,Windows,10,undefined,undefined,1920 x 1080,1920 x 1080
S008,34,Mannelijk,Rechts,5,119,left,no,50,leftarrow,404,true,focus,yes,1017998,Chrome,109.0,Windows,10,undefined,undefined,1920 x 1080,1920 x 1080
S008,34,Mannelijk,Rechts,5,120,right,no,50,rightarrow,379,true,focus,yes,1019143,Chrome,109.0,Windows,10,undefined,undefined,1920 x 1080,1920 x 1080
S008,34,Mannelijk,Rechts,5,121,right,no,50,rightarrow,392,true,focus,yes,1020300,Chrome,109.0,Windows,10,undefined,undefined,1920 x 1080,1920 x 1080
S008,34,Mannelijk,Rechts,5,122,right,no,50,rightarrow,356,true,focus,yes,1021422,Chrome,109.0,Windows,10,undefined,undefined,1920 x 1080,1920 x 1080
S008,34,Mannelijk,Rechts,5,123,left,no,50,rightarrow,262,false,focus,yes,1022451,Chrome,109.0,Windows,10,undefined,undefined,1920 x 1080,1920 x 1080
S008,34,Mannelijk,Rechts,5,124,left,no,50,leftarrow,867,true,focus,yes,1024079,Chrome,109.0,Windows,10,undefined,undefined,1920 x 1080,1920 x 1080
S008,34,Mannelijk,Rechts,5,125,left,yes,50,leftarrow,681,false,focus,yes,1025526,Chrome,109.0,Windows,10,undefined,undefined,1920 x 1080,1920 x 1080
S008,34,Mannelijk,Rechts,5,126,left,no,50,leftarrow,562,true,focus,yes,1026854,Chrome,109.0,Windows,10,undefined,undefined,1920 x 1080,1920 x 1080
S008,34,Mannelijk,Rechts,5,127,right,yes,50,rightarrow,390,false,focus,yes,1028008,Chrome,109.0,Windows,10,undefined,undefined,1920 x 1080,1920 x 1080
S008,34,Mannelijk,Rechts,5,128,right,no,50,rightarrow,418,true,focus,yes,1029190,Chrome,109.0,Windows,10,undefined,undefined,1920 x 1080,1920 x 1080
S008,34,Mannelijk,Rechts,6,1,right,no,50,rightarrow,434,true,focus,yes,1051226,Chrome,109.0,Windows,10,undefined,undefined,1920 x 1080,1920 x 1080
S008,34,Mannelijk,Rechts,6,2,left,yes,50,leftarrow,380,false,focus,yes,1052370,Chrome,109.0,Windows,10,undefined,undefined,1920 x 1080,1920 x 1080
S008,34,Mannelijk,Rechts,6,3,right,no,50,rightarrow,351,true,focus,yes,1053485,Chrome,109.0,Windows,10,undefined,undefined,1920 x 1080,1920 x 1080
S008,34,Mannelijk,Rechts,6,4,left,no,50,leftarrow,226,true,focus,yes,1054478,Chrome,109.0,Windows,10,undefined,undefined,1920 x 1080,1920 x 1080
S008,34,Mannelijk,Rechts,6,5,right,no,50,rightarrow,368,true,focus,yes,1055613,Chrome,109.0,Windows,10,undefined,undefined,1920 x 1080,1920 x 1080
S008,34,Mannelijk,Rechts,6,6,left,no,50,leftarrow,227,true,focus,yes,1056610,Chrome,109.0,Windows,10,undefined,undefined,1920 x 1080,1920 x 1080
S008,34,Mannelijk,Rechts,6,7,left,no,50,leftarrow,307,true,focus,yes,1057690,Chrome,109.0,Windows,10,undefined,undefined,1920 x 1080,1920 x 1080
S008,34,Mannelijk,Rechts,6,8,right,yes,50,rightarrow,346,false,focus,yes,1058806,Chrome,109.0,Windows,10,undefined,undefined,1920 x 1080,1920 x 1080
S008,34,Mannelijk,Rechts,6,9,left,yes,50,leftarrow,209,false,focus,yes,1059781,Chrome,109.0,Windows,10,undefined,undefined,1920 x 1080,1920 x 1080
S008,34,Mannelijk,Rechts,6,10,right,no,50,leftarrow,223,false,focus,yes,1060770,Chrome,109.0,Windows,10,undefined,undefined,1920 x 1080,1920 x 1080
S008,34,Mannelijk,Rechts,6,11,right,no,50,rightarrow,642,true,focus,yes,1062177,Chrome,109.0,Windows,10,undefined,undefined,1920 x 1080,1920 x 1080
S008,34,Mannelijk,Rechts,6,12,left,no,50,leftarrow,258,true,focus,yes,1063202,Chrome,109.0,Windows,10,undefined,undefined,1920 x 1080,1920 x 1080
S008,34,Mannelijk,Rechts,6,13,left,no,50,leftarrow,284,true,focus,yes,1064251,Chrome,109.0,Windows,10,undefined,undefined,1920 x 1080,1920 x 1080
S008,34,Mannelijk,Rechts,6,14,left,no,50,leftarrow,224,true,focus,yes,1065237,Chrome,109.0,Windows,10,undefined,undefined,1920 x 1080,1920 x 1080
S008,34,Mannelijk,Rechts,6,15,right,yes,50,rightarrow,312,false,focus,yes,1066320,Chrome,109.0,Windows,10,undefined,undefined,1920 x 1080,1920 x 1080
S008,34,Mannelijk,Rechts,6,16,right,no,50,leftarrow,103,false,focus,yes,1067196,Chrome,109.0,Windows,10,undefined,undefined,1920 x 1080,1920 x 1080
S008,34,Mannelijk,Rechts,6,17,left,no,50,leftarrow,299,true,focus,yes,1068263,Chrome,109.0,Windows,10,undefined,undefined,1920 x 1080,1920 x 1080
S008,34,Mannelijk,Rechts,6,18,right,no,50,rightarrow,409,true,focus,yes,1069438,Chrome,109.0,Windows,10,undefined,undefined,1920 x 1080,1920 x 1080
S008,34,Mannelijk,Rechts,6,19,right,no,50,leftarrow,275,false,focus,yes,1070479,Chrome,109.0,Windows,10,undefined,undefined,1920 x 1080,1920 x 1080
S008,34,Mannelijk,Rechts,6,20,right,yes,50,rightarrow,626,false,focus,yes,1071868,Chrome,109.0,Windows,10,undefined,undefined,1920 x 1080,1920 x 1080
S008,34,Mannelijk,Rechts,6,21,right,no,50,rightarrow,406,true,focus,yes,1073041,Chrome,109.0,Windows,10,undefined,undefined,1920 x 1080,1920 x 1080
S008,34,Mannelijk,Rechts,6,22,left,yes,50,leftarrow,427,false,focus,yes,1074235,Chrome,109.0,Windows,10,undefined,undefined,1920 x 1080,1920 x 1080
S008,34,Mannelijk,Rechts,6,23,left,no,50,leftarrow,405,true,focus,yes,1075409,Chrome,109.0,Windows,10,undefined,undefined,1920 x 1080,1920 x 1080
S008,34,Mannelijk,Rechts,6,24,left,no,50,leftarrow,462,true,focus,yes,1076646,Chrome,109.0,Windows,10,undefined,undefined,1920 x 1080,1920 x 1080
S008,34,Mannelijk,Rechts,6,25,left,yes,50,leftarrow,372,false,focus,yes,1077786,Chrome,109.0,Windows,10,undefined,undefined,1920 x 1080,1920 x 1080
S008,34,Mannelijk,Rechts,6,26,right,no,50,rightarrow,330,true,focus,yes,1078882,Chrome,109.0,Windows,10,undefined,undefined,1920 x 1080,1920 x 1080
S008,34,Mannelijk,Rechts,6,27,left,no,50,leftarrow,366,true,focus,yes,1080014,Chrome,109.0,Windows,10,undefined,undefined,1920 x 1080,1920 x 1080
S008,34,Mannelijk,Rechts,6,28,left,no,50,leftarrow,588,true,focus,yes,1081365,Chrome,109.0,Windows,10,undefined,undefined,1920 x 1080,1920 x 1080
S008,34,Mannelijk,Rechts,6,29,left,no,50,leftarrow,376,true,focus,yes,1082507,Chrome,109.0,Windows,10,undefined,undefined,1920 x 1080,1920 x 1080
S008,34,Mannelijk,Rechts,6,30,right,no,50,rightarrow,375,true,focus,yes,1083646,Chrome,109.0,Windows,10,undefined,undefined,1920 x 1080,1920 x 1080
S008,34,Mannelijk,Rechts,6,31,right,no,50,rightarrow,389,true,focus,yes,1084802,Chrome,109.0,Windows,10,undefined,undefined,1920 x 1080,1920 x 1080
