participantID;age;gender;handedness;block_i;trial_i;stim;signal;SSD;response;rt;correct;focus;Fullscreen;time_elapsed;browser_name;browser_version;os_name;os_version;tablet;mobile;screen_resolution;window_resolution
H013;34;Mannelijk;Rechts;0;1;right;no;200;rightarrow;448;true;focus;yes;287141;Chrome;112.0;Windows;10;undefined;undefined;1366 x 768;1366 x 768
H013;34;Mannelijk;Rechts;0;2;right;no;200;rightarrow;485;true;focus;yes;289131;Chrome;112.0;Windows;10;undefined;undefined;1366 x 768;1366 x 768
H013;34;Mannelijk;Rechts;0;3;left;no;200;leftarrow;826;true;focus;yes;291460;Chrome;112.0;Windows;10;undefined;undefined;1366 x 768;1366 x 768
H013;34;Mannelijk;Rechts;0;4;left;no;200;leftarrow;392;true;focus;yes;293356;Chrome;112.0;Windows;10;undefined;undefined;1366 x 768;1366 x 768
H013;34;Mannelijk;Rechts;0;5;left;no;200;leftarrow;375;true;focus;yes;295235;Chrome;112.0;Windows;10;undefined;undefined;1366 x 768;1366 x 768
H013;34;Mannelijk;Rechts;0;6;left;yes;200;leftarrow;416;false;focus;yes;297158;Chrome;112.0;Windows;10;undefined;undefined;1366 x 768;1366 x 768
H013;34;Mannelijk;Rechts;0;7;right;yes;150;rightarrow;290;false;focus;yes;298952;Chrome;112.0;Windows;10;undefined;undefined;1366 x 768;1366 x 768
H013;34;Mannelijk;Rechts;0;8;right;no;100;leftarrow;237;false;focus;yes;300695;Chrome;112.0;Windows;10;undefined;undefined;1366 x 768;1366 x 768
H013;34;Mannelijk;Rechts;1;1;right;no;100;rightarrow;373;true;focus;yes;321334;Chrome;112.0;Windows;10;undefined;undefined;1366 x 768;1366 x 768
H013;34;Mannelijk;Rechts;1;2;left;yes;100;leftarrow;454;false;focus;yes;322542;Chrome;112.0;Windows;10;undefined;undefined;1366 x 768;1366 x 768
H013;34;Mannelijk;Rechts;1;3;left;no;50;leftarrow;343;true;focus;yes;323640;Chrome;112.0;Windows;10;undefined;undefined;1366 x 768;1366 x 768
H013;34;Mannelijk;Rechts;1;4;right;yes;50;rightarrow;345;false;focus;yes;324740;Chrome;112.0;Windows;10;undefined;undefined;1366 x 768;1366 x 768
H013;34;Mannelijk;Rechts;1;5;left;no;50;leftarrow;339;true;focus;yes;325833;Chrome;112.0;Windows;10;undefined;undefined;1366 x 768;1366 x 768
H013;34;Mannelijk;Rechts;1;6;right;no;50;rightarrow;324;true;focus;yes;326911;Chrome;112.0;Windows;10;undefined;undefined;1366 x 768;1366 x 768
H013;34;Mannelijk;Rechts;1;7;left;no;50;leftarrow;293;true;focus;yes;327958;Chrome;112.0;Windows;10;undefined;undefined;1366 x 768;1366 x 768
H013;34;Mannelijk;Rechts;1;8;right;no;50;rightarrow;287;true;focus;yes;329000;Chrome;112.0;Windows;10;undefined;undefined;1366 x 768;1366 x 768
H013;34;Mannelijk;Rechts;1;9;left;no;50;leftarrow;312;true;focus;yes;330065;Chrome;112.0;Windows;10;undefined;undefined;1366 x 768;1366 x 768
H013;34;Mannelijk;Rechts;1;10;right;no;50;rightarrow;359;true;focus;yes;331178;Chrome;112.0;Windows;10;undefined;undefined;1366 x 768;1366 x 768
H013;34;Mannelijk;Rechts;1;11;left;yes;50;leftarrow;282;false;focus;yes;332215;Chrome;112.0;Windows;10;undefined;undefined;1366 x 768;1366 x 768
H013;34;Mannelijk;Rechts;1;12;right;no;50;rightarrow;285;true;focus;yes;333253;Chrome;112.0;Windows;10;undefined;undefined;1366 x 768;1366 x 768
H013;34;Mannelijk;Rechts;1;13;right;yes;50;undefined;null;true;focus;yes;335257;Chrome;112.0;Windows;10;undefined;undefined;1366 x 768;1366 x 768
H013;34;Mannelijk;Rechts;1;14;right;no;100;rightarrow;383;true;focus;yes;336394;Chrome;112.0;Windows;10;undefined;undefined;1366 x 768;1366 x 768
H013;34;Mannelijk;Rechts;1;15;left;no;100;leftarrow;402;true;focus;yes;337550;Chrome;112.0;Windows;10;undefined;undefined;1366 x 768;1366 x 768
H013;34;Mannelijk;Rechts;1;16;left;no;100;leftarrow;382;true;focus;yes;338689;Chrome;112.0;Windows;10;undefined;undefined;1366 x 768;1366 x 768
H013;34;Mannelijk;Rechts;1;17;left;no;100;leftarrow;333;true;focus;yes;339775;Chrome;112.0;Windows;10;undefined;undefined;1366 x 768;1366 x 768
H013;34;Mannelijk;Rechts;1;18;left;no;100;rightarrow;300;false;focus;yes;340829;Chrome;112.0;Windows;10;undefined;undefined;1366 x 768;1366 x 768
H013;34;Mannelijk;Rechts;1;19;right;yes;100;rightarrow;540;false;focus;yes;342124;Chrome;112.0;Windows;10;undefined;undefined;1366 x 768;1366 x 768
H013;34;Mannelijk;Rechts;1;20;left;no;50;leftarrow;366;true;focus;yes;343243;Chrome;112.0;Windows;10;undefined;undefined;1366 x 768;1366 x 768
H013;34;Mannelijk;Rechts;1;21;right;no;50;rightarrow;358;true;focus;yes;344355;Chrome;112.0;Windows;10;undefined;undefined;1366 x 768;1366 x 768
H013;34;Mannelijk;Rechts;1;22;right;no;50;rightarrow;431;true;focus;yes;345540;Chrome;112.0;Windows;10;undefined;undefined;1366 x 768;1366 x 768
H013;34;Mannelijk;Rechts;1;23;left;yes;50;leftarrow;559;false;focus;yes;346854;Chrome;112.0;Windows;10;undefined;undefined;1366 x 768;1366 x 768
H013;34;Mannelijk;Rechts;1;24;right;no;50;rightarrow;351;true;focus;yes;347959;Chrome;112.0;Windows;10;undefined;undefined;1366 x 768;1366 x 768
H013;34;Mannelijk;Rechts;1;25;left;no;50;leftarrow;373;true;focus;yes;349086;Chrome;112.0;Windows;10;undefined;undefined;1366 x 768;1366 x 768
H013;34;Mannelijk;Rechts;1;26;left;yes;50;undefined;null;true;focus;yes;351091;Chrome;112.0;Windows;10;undefined;undefined;1366 x 768;1366 x 768
H013;34;Mannelijk;Rechts;1;27;right;yes;100;rightarrow;314;false;focus;yes;352158;Chrome;112.0;Windows;10;undefined;undefined;1366 x 768;1366 x 768
H013;34;Mannelijk;Rechts;1;28;left;no;50;leftarrow;514;true;focus;yes;353426;Chrome;112.0;Windows;10;undefined;undefined;1366 x 768;1366 x 768
H013;34;Mannelijk;Rechts;1;29;right;no;50;rightarrow;350;true;focus;yes;354529;Chrome;112.0;Windows;10;undefined;undefined;1366 x 768;1366 x 768
H013;34;Mannelijk;Rechts;1;30;right;no;50;rightarrow;347;true;focus;yes;355629;Chrome;112.0;Windows;10;undefined;undefined;1366 x 768;1366 x 768
H013;34;Mannelijk;Rechts;1;31;left;no;50;leftarrow;344;true;focus;yes;356728;Chrome;112.0;Windows;10;undefined;undefined;1366 x 768;1366 x 768
H013;34;Mannelijk;Rechts;1;32;right;no;50;leftarrow;339;false;focus;yes;357821;Chrome;112.0;Windows;10;undefined;undefined;1366 x 768;1366 x 768
H013;34;Mannelijk;Rechts;1;33;right;no;50;rightarrow;382;true;focus;yes;358957;Chrome;112.0;Windows;10;undefined;undefined;1366 x 768;1366 x 768
H013;34;Mannelijk;Rechts;1;34;right;yes;50;rightarrow;653;false;focus;yes;360364;Chrome;112.0;Windows;10;undefined;undefined;1366 x 768;1366 x 768
H013;34;Mannelijk;Rechts;1;35;right;no;50;rightarrow;394;true;focus;yes;361513;Chrome;112.0;Windows;10;undefined;undefined;1366 x 768;1366 x 768
H013;34;Mannelijk;Rechts;1;36;right;no;50;rightarrow;365;true;focus;yes;362632;Chrome;112.0;Windows;10;undefined;undefined;1366 x 768;1366 x 768
H013;34;Mannelijk;Rechts;1;42;right;no;50;rightarrow;377;true;focus;yes;369278;Chrome;112.0;Windows;10;undefined;undefined;1366 x 768;1366 x 768
H013;34;Mannelijk;Rechts;1;43;left;no;50;leftarrow;374;true;focus;yes;370406;Chrome;112.0;Windows;10;undefined;undefined;1366 x 768;1366 x 768
H013;34;Mannelijk;Rechts;1;44;right;no;50;rightarrow;327;true;focus;yes;371488;Chrome;112.0;Windows;10;undefined;undefined;1366 x 768;1366 x 768
H013;34;Mannelijk;Rechts;1;45;right;no;50;rightarrow;366;true;focus;yes;372608;Chrome;112.0;Windows;10;undefined;undefined;1366 x 768;1366 x 768
H013;34;Mannelijk;Rechts;1;46;right;yes;50;undefined;null;true;focus;yes;374612;Chrome;112.0;Windows;10;undefined;undefined;1366 x 768;1366 x 768
H013;34;Mannelijk;Rechts;1;47;left;no;100;leftarrow;349;true;focus;yes;375714;Chrome;112.0;Windows;10;undefined;undefined;1366 x 768;1366 x 768
H013;34;Mannelijk;Rechts;1;48;left;yes;100;leftarrow;329;false;focus;yes;376796;Chrome;112.0;Windows;10;undefined;undefined;1366 x 768;1366 x 768
H013;34;Mannelijk;Rechts;1;49;right;no;50;leftarrow;344;false;focus;yes;377892;Chrome;112.0;Windows;10;undefined;undefined;1366 x 768;1366 x 768
H013;34;Mannelijk;Rechts;1;50;left;yes;50;undefined;null;true;focus;yes;379897;Chrome;112.0;Windows;10;undefined;undefined;1366 x 768;1366 x 768
H013;34;Mannelijk;Rechts;1;51;right;no;100;rightarrow;359;true;focus;yes;381009;Chrome;112.0;Windows;10;undefined;undefined;1366 x 768;1366 x 768
H013;34;Mannelijk;Rechts;1;52;left;no;100;leftarrow;389;true;focus;yes;382154;Chrome;112.0;Windows;10;undefined;undefined;1366 x 768;1366 x 768
H013;34;Mannelijk;Rechts;1;53;right;no;100;rightarrow;402;true;focus;yes;383309;Chrome;112.0;Windows;10;undefined;undefined;1366 x 768;1366 x 768
H013;34;Mannelijk;Rechts;1;36;right;no;50;rightarrow;365;true;focus;yes;362632;Chrome;112.0;Windows;10;undefined;undefined;1366 x 768;1366 x 768
H013;34;Mannelijk;Rechts;1;54;left;no;100;leftarrow;324;true;focus;yes;384387;Chrome;112.0;Windows;10;undefined;undefined;1366 x 768;1366 x 768
H013;34;Mannelijk;Rechts;1;55;left;no;100;leftarrow;354;true;focus;yes;385495;Chrome;112.0;Windows;10;undefined;undefined;1366 x 768;1366 x 768
H013;34;Mannelijk;Rechts;1;56;right;yes;100;rightarrow;383;false;focus;yes;386633;Chrome;112.0;Windows;10;undefined;undefined;1366 x 768;1366 x 768
H013;34;Mannelijk;Rechts;1;57;right;no;50;rightarrow;452;true;focus;yes;387842;Chrome;112.0;Windows;10;undefined;undefined;1366 x 768;1366 x 768
H013;34;Mannelijk;Rechts;1;58;right;no;50;rightarrow;294;true;focus;yes;388890;Chrome;112.0;Windows;10;undefined;undefined;1366 x 768;1366 x 768
H013;34;Mannelijk;Rechts;1;59;left;no;50;leftarrow;363;true;focus;yes;390008;Chrome;112.0;Windows;10;undefined;undefined;1366 x 768;1366 x 768
H013;34;Mannelijk;Rechts;1;60;right;no;50;rightarrow;412;true;focus;yes;391173;Chrome;112.0;Windows;10;undefined;undefined;1366 x 768;1366 x 768
H013;34;Mannelijk;Rechts;1;61;left;no;50;leftarrow;360;true;focus;yes;392288;Chrome;112.0;Windows;10;undefined;undefined;1366 x 768;1366 x 768
H013;34;Mannelijk;Rechts;1;62;left;yes;50;undefined;null;true;focus;yes;394293;Chrome;112.0;Windows;10;undefined;undefined;1366 x 768;1366 x 768
H013;34;Mannelijk;Rechts;1;63;right;yes;100;rightarrow;350;false;focus;yes;395397;Chrome;112.0;Windows;10;undefined;undefined;1366 x 768;1366 x 768
H013;34;Mannelijk;Rechts;1;64;left;no;50;rightarrow;396;false;focus;yes;396546;Chrome;112.0;Windows;10;undefined;undefined;1366 x 768;1366 x 768
H013;34;Mannelijk;Rechts;1;65;right;yes;50;undefined;null;true;focus;yes;398801;Chrome;112.0;Windows;10;undefined;undefined;1366 x 768;1366 x 768
H013;34;Mannelijk;Rechts;1;66;left;no;100;leftarrow;378;true;focus;yes;399933;Chrome;112.0;Windows;10;undefined;undefined;1366 x 768;1366 x 768
H013;34;Mannelijk;Rechts;1;67;left;no;100;leftarrow;344;true;focus;yes;401033;Chrome;112.0;Windows;10;undefined;undefined;1366 x 768;1366 x 768
H013;34;Mannelijk;Rechts;1;68;right;no;100;rightarrow;379;true;focus;yes;402167;Chrome;112.0;Windows;10;undefined;undefined;1366 x 768;1366 x 768
H013;34;Mannelijk;Rechts;1;69;left;yes;100;undefined;null;true;focus;yes;404173;Chrome;112.0;Windows;10;undefined;undefined;1366 x 768;1366 x 768
H013;34;Mannelijk;Rechts;1;70;right;no;150;rightarrow;330;true;focus;yes;405258;Chrome;112.0;Windows;10;undefined;undefined;1366 x 768;1366 x 768
H013;34;Mannelijk;Rechts;1;71;right;no;150;rightarrow;365;true;focus;yes;406378;Chrome;112.0;Windows;10;undefined;undefined;1366 x 768;1366 x 768
H013;34;Mannelijk;Rechts;1;72;left;no;150;leftarrow;473;true;focus;yes;407605;Chrome;112.0;Windows;10;undefined;undefined;1366 x 768;1366 x 768
H013;34;Mannelijk;Rechts;1;73;right;no;150;rightarrow;344;true;focus;yes;408703;Chrome;112.0;Windows;10;undefined;undefined;1366 x 768;1366 x 768
H013;34;Mannelijk;Rechts;1;74;left;no;150;leftarrow;332;true;focus;yes;409790;Chrome;112.0;Windows;10;undefined;undefined;1366 x 768;1366 x 768
H013;34;Mannelijk;Rechts;1;75;left;no;150;leftarrow;358;true;focus;yes;410903;Chrome;112.0;Windows;10;undefined;undefined;1366 x 768;1366 x 768
H013;34;Mannelijk;Rechts;1;76;left;no;150;leftarrow;322;true;focus;yes;411981;Chrome;112.0;Windows;10;undefined;undefined;1366 x 768;1366 x 768
H013;34;Mannelijk;Rechts;1;77;right;no;150;rightarrow;415;true;focus;yes;413149;Chrome;112.0;Windows;10;undefined;undefined;1366 x 768;1366 x 768
H013;34;Mannelijk;Rechts;1;78;right;no;150;rightarrow;326;true;focus;yes;414230;Chrome;112.0;Windows;10;undefined;undefined;1366 x 768;1366 x 768
H013;34;Mannelijk;Rechts;1;79;right;yes;150;rightarrow;314;false;focus;yes;415298;Chrome;112.0;Windows;10;undefined;undefined;1366 x 768;1366 x 768
H013;34;Mannelijk;Rechts;1;80;left;yes;100;undefined;null;true;focus;yes;417302;Chrome;112.0;Windows;10;undefined;undefined;1366 x 768;1366 x 768
H013;34;Mannelijk;Rechts;1;81;left;no;150;rightarrow;349;false;focus;yes;418404;Chrome;112.0;Windows;10;undefined;undefined;1366 x 768;1366 x 768
H013;34;Mannelijk;Rechts;1;82;left;no;150;leftarrow;377;true;focus;yes;419535;Chrome;112.0;Windows;10;undefined;undefined;1366 x 768;1366 x 768
H013;34;Mannelijk;Rechts;1;83;left;yes;150;leftarrow;356;false;focus;yes;420645;Chrome;112.0;Windows;10;undefined;undefined;1366 x 768;1366 x 768
H013;34;Mannelijk;Rechts;1;84;right;no;100;rightarrow;397;true;focus;yes;421797;Chrome;112.0;Windows;10;undefined;undefined;1366 x 768;1366 x 768
H013;34;Mannelijk;Rechts;1;85;right;yes;100;rightarrow;303;false;focus;yes;422855;Chrome;112.0;Windows;10;undefined;undefined;1366 x 768;1366 x 768
H013;34;Mannelijk;Rechts;1;86;right;no;50;leftarrow;338;false;focus;yes;423947;Chrome;112.0;Windows;10;undefined;undefined;1366 x 768;1366 x 768
H013;34;Mannelijk;Rechts;1;87;left;no;50;leftarrow;406;true;focus;yes;425106;Chrome;112.0;Windows;10;undefined;undefined;1366 x 768;1366 x 768
H013;34;Mannelijk;Rechts;1;88;right;no;50;rightarrow;405;true;focus;yes;426265;Chrome;112.0;Windows;10;undefined;undefined;1366 x 768;1366 x 768
H013;34;Mannelijk;Rechts;1;89;left;no;50;leftarrow;434;true;focus;yes;427454;Chrome;112.0;Windows;10;undefined;undefined;1366 x 768;1366 x 768
H013;34;Mannelijk;Rechts;1;90;right;no;50;rightarrow;331;true;focus;yes;428540;Chrome;112.0;Windows;10;undefined;undefined;1366 x 768;1366 x 768
H013;34;Mannelijk;Rechts;1;91;left;yes;50;leftarrow;441;false;focus;yes;429734;Chrome;112.0;Windows;10;undefined;undefined;1366 x 768;1366 x 768
H013;34;Mannelijk;Rechts;1;92;right;no;50;rightarrow;366;true;focus;yes;430854;Chrome;112.0;Windows;10;undefined;undefined;1366 x 768;1366 x 768
H013;34;Mannelijk;Rechts;1;93;left;no;50;leftarrow;435;true;focus;yes;432043;Chrome;112.0;Windows;10;undefined;undefined;1366 x 768;1366 x 768
H013;34;Mannelijk;Rechts;1;94;right;no;50;rightarrow;373;true;focus;yes;433170;Chrome;112.0;Windows;10;undefined;undefined;1366 x 768;1366 x 768
H013;34;Mannelijk;Rechts;1;95;left;no;50;rightarrow;405;false;focus;yes;434328;Chrome;112.0;Windows;10;undefined;undefined;1366 x 768;1366 x 768
H013;34;Mannelijk;Rechts;1;96;right;yes;50;rightarrow;448;false;focus;yes;435529;Chrome;112.0;Windows;10;undefined;undefined;1366 x 768;1366 x 768
H013;34;Mannelijk;Rechts;1;97;left;yes;50;leftarrow;480;false;focus;yes;436763;Chrome;112.0;Windows;10;undefined;undefined;1366 x 768;1366 x 768
H013;34;Mannelijk;Rechts;1;98;right;no;50;rightarrow;336;true;focus;yes;437854;Chrome;112.0;Windows;10;undefined;undefined;1366 x 768;1366 x 768
H013;34;Mannelijk;Rechts;1;99;left;no;50;leftarrow;599;true;focus;yes;439207;Chrome;112.0;Windows;10;undefined;undefined;1366 x 768;1366 x 768
H013;34;Mannelijk;Rechts;1;100;left;no;50;leftarrow;461;true;focus;yes;440422;Chrome;112.0;Windows;10;undefined;undefined;1366 x 768;1366 x 768
H013;34;Mannelijk;Rechts;1;101;right;no;50;rightarrow;397;true;focus;yes;441574;Chrome;112.0;Windows;10;undefined;undefined;1366 x 768;1366 x 768
H013;34;Mannelijk;Rechts;1;102;right;no;50;rightarrow;331;true;focus;yes;442659;Chrome;112.0;Windows;10;undefined;undefined;1366 x 768;1366 x 768
H013;34;Mannelijk;Rechts;1;103;right;yes;50;undefined;null;true;focus;yes;444665;Chrome;112.0;Windows;10;undefined;undefined;1366 x 768;1366 x 768
H013;34;Mannelijk;Rechts;1;104;left;no;100;leftarrow;355;true;focus;yes;445774;Chrome;112.0;Windows;10;undefined;undefined;1366 x 768;1366 x 768
H013;34;Mannelijk;Rechts;1;105;left;no;100;leftarrow;309;true;focus;yes;446836;Chrome;112.0;Windows;10;undefined;undefined;1366 x 768;1366 x 768
H013;34;Mannelijk;Rechts;1;106;right;yes;100;undefined;null;true;focus;yes;448841;Chrome;112.0;Windows;10;undefined;undefined;1366 x 768;1366 x 768
H013;34;Mannelijk;Rechts;1;107;right;no;150;rightarrow;338;true;focus;yes;449935;Chrome;112.0;Windows;10;undefined;undefined;1366 x 768;1366 x 768
H013;34;Mannelijk;Rechts;1;108;right;no;150;rightarrow;306;true;focus;yes;450996;Chrome;112.0;Windows;10;undefined;undefined;1366 x 768;1366 x 768
H013;34;Mannelijk;Rechts;1;109;left;no;150;leftarrow;358;true;focus;yes;452108;Chrome;112.0;Windows;10;undefined;undefined;1366 x 768;1366 x 768
H013;34;Mannelijk;Rechts;1;110;right;no;150;rightarrow;384;true;focus;yes;453247;Chrome;112.0;Windows;10;undefined;undefined;1366 x 768;1366 x 768
H013;34;Mannelijk;Rechts;1;111;left;yes;150;leftarrow;362;false;focus;yes;454366;Chrome;112.0;Windows;10;undefined;undefined;1366 x 768;1366 x 768
H013;34;Mannelijk;Rechts;1;112;left;no;100;leftarrow;432;true;focus;yes;455553;Chrome;112.0;Windows;10;undefined;undefined;1366 x 768;1366 x 768
H013;34;Mannelijk;Rechts;1;113;left;no;100;leftarrow;418;true;focus;yes;456725;Chrome;112.0;Windows;10;undefined;undefined;1366 x 768;1366 x 768
H013;34;Mannelijk;Rechts;1;114;left;no;100;leftarrow;368;true;focus;yes;457849;Chrome;112.0;Windows;10;undefined;undefined;1366 x 768;1366 x 768
H013;34;Mannelijk;Rechts;1;115;right;yes;100;rightarrow;416;false;focus;yes;459019;Chrome;112.0;Windows;10;undefined;undefined;1366 x 768;1366 x 768
H013;34;Mannelijk;Rechts;1;116;left;yes;50;undefined;null;true;focus;yes;461024;Chrome;112.0;Windows;10;undefined;undefined;1366 x 768;1366 x 768
H013;34;Mannelijk;Rechts;1;117;right;no;100;rightarrow;325;true;focus;yes;462105;Chrome;112.0;Windows;10;undefined;undefined;1366 x 768;1366 x 768
H013;34;Mannelijk;Rechts;1;118;right;no;100;rightarrow;332;true;focus;yes;463192;Chrome;112.0;Windows;10;undefined;undefined;1366 x 768;1366 x 768
H013;34;Mannelijk;Rechts;1;119;left;no;100;leftarrow;397;true;focus;yes;464346;Chrome;112.0;Windows;10;undefined;undefined;1366 x 768;1366 x 768
H013;34;Mannelijk;Rechts;1;120;right;no;100;rightarrow;395;true;focus;yes;465495;Chrome;112.0;Windows;10;undefined;undefined;1366 x 768;1366 x 768
H013;34;Mannelijk;Rechts;1;121;left;no;100;leftarrow;393;true;focus;yes;466642;Chrome;112.0;Windows;10;undefined;undefined;1366 x 768;1366 x 768
H013;34;Mannelijk;Rechts;1;122;right;yes;100;rightarrow;395;false;focus;yes;467791;Chrome;112.0;Windows;10;undefined;undefined;1366 x 768;1366 x 768
H013;34;Mannelijk;Rechts;1;123;right;no;50;rightarrow;369;true;focus;yes;468915;Chrome;112.0;Windows;10;undefined;undefined;1366 x 768;1366 x 768
H013;34;Mannelijk;Rechts;1;124;left;no;50;leftarrow;383;true;focus;yes;470052;Chrome;112.0;Windows;10;undefined;undefined;1366 x 768;1366 x 768
H013;34;Mannelijk;Rechts;1;125;right;no;50;rightarrow;409;true;focus;yes;471215;Chrome;112.0;Windows;10;undefined;undefined;1366 x 768;1366 x 768
H013;34;Mannelijk;Rechts;1;126;left;yes;50;undefined;null;true;focus;yes;473222;Chrome;112.0;Windows;10;undefined;undefined;1366 x 768;1366 x 768
H013;34;Mannelijk;Rechts;1;127;right;no;100;rightarrow;303;true;focus;yes;474280;Chrome;112.0;Windows;10;undefined;undefined;1366 x 768;1366 x 768
H013;34;Mannelijk;Rechts;1;128;left;no;100;leftarrow;406;true;focus;yes;475439;Chrome;112.0;Windows;10;undefined;undefined;1366 x 768;1366 x 768
H013;34;Mannelijk;Rechts;2;1;left;yes;100;leftarrow;389;false;focus;yes;498008;Chrome;112.0;Windows;10;undefined;undefined;1366 x 768;1366 x 768
H013;34;Mannelijk;Rechts;2;2;right;no;50;rightarrow;371;true;focus;yes;499133;Chrome;112.0;Windows;10;undefined;undefined;1366 x 768;1366 x 768
H013;34;Mannelijk;Rechts;2;3;right;no;50;rightarrow;418;true;focus;yes;500305;Chrome;112.0;Windows;10;undefined;undefined;1366 x 768;1366 x 768
H013;34;Mannelijk;Rechts;2;4;left;no;50;leftarrow;705;true;focus;yes;501763;Chrome;112.0;Windows;10;undefined;undefined;1366 x 768;1366 x 768
H013;34;Mannelijk;Rechts;2;5;right;no;50;rightarrow;362;true;focus;yes;502880;Chrome;112.0;Windows;10;undefined;undefined;1366 x 768;1366 x 768
H013;34;Mannelijk;Rechts;2;6;left;no;50;leftarrow;390;true;focus;yes;504027;Chrome;112.0;Windows;10;undefined;undefined;1366 x 768;1366 x 768
H013;34;Mannelijk;Rechts;2;7;right;yes;50;undefined;null;true;focus;yes;506032;Chrome;112.0;Windows;10;undefined;undefined;1366 x 768;1366 x 768
H013;34;Mannelijk;Rechts;2;8;left;no;100;leftarrow;320;true;focus;yes;507108;Chrome;112.0;Windows;10;undefined;undefined;1366 x 768;1366 x 768
H013;34;Mannelijk;Rechts;2;9;right;no;100;rightarrow;392;true;focus;yes;508254;Chrome;112.0;Windows;10;undefined;undefined;1366 x 768;1366 x 768
H013;34;Mannelijk;Rechts;2;10;left;yes;100;undefined;null;true;focus;yes;510259;Chrome;112.0;Windows;10;undefined;undefined;1366 x 768;1366 x 768
H013;34;Mannelijk;Rechts;2;11;left;no;150;leftarrow;429;true;focus;yes;511441;Chrome;112.0;Windows;10;undefined;undefined;1366 x 768;1366 x 768
H013;34;Mannelijk;Rechts;2;12;right;yes;150;rightarrow;383;false;focus;yes;512579;Chrome;112.0;Windows;10;undefined;undefined;1366 x 768;1366 x 768
H013;34;Mannelijk;Rechts;2;23;right;no;100;rightarrow;379;true;focus;yes;526034;Chrome;112.0;Windows;10;undefined;undefined;1366 x 768;1366 x 768
H013;34;Mannelijk;Rechts;2;24;left;no;100;leftarrow;423;true;focus;yes;527210;Chrome;112.0;Windows;10;undefined;undefined;1366 x 768;1366 x 768
H013;34;Mannelijk;Rechts;2;25;right;no;100;rightarrow;424;true;focus;yes;528389;Chrome;112.0;Windows;10;undefined;undefined;1366 x 768;1366 x 768
H013;34;Mannelijk;Rechts;2;26;left;no;100;leftarrow;328;true;focus;yes;529471;Chrome;112.0;Windows;10;undefined;undefined;1366 x 768;1366 x 768
H013;34;Mannelijk;Rechts;2;27;right;yes;100;rightarrow;277;false;focus;yes;530503;Chrome;112.0;Windows;10;undefined;undefined;1366 x 768;1366 x 768
H013;34;Mannelijk;Rechts;2;28;left;yes;50;leftarrow;478;false;focus;yes;531737;Chrome;112.0;Windows;10;undefined;undefined;1366 x 768;1366 x 768
H013;34;Mannelijk;Rechts;2;29;right;no;50;rightarrow;327;true;focus;yes;532819;Chrome;112.0;Windows;10;undefined;undefined;1366 x 768;1366 x 768
H013;34;Mannelijk;Rechts;2;30;left;no;50;leftarrow;451;true;focus;yes;534024;Chrome;112.0;Windows;10;undefined;undefined;1366 x 768;1366 x 768
H013;34;Mannelijk;Rechts;2;31;right;no;50;rightarrow;366;true;focus;yes;535145;Chrome;112.0;Windows;10;undefined;undefined;1366 x 768;1366 x 768
H013;34;Mannelijk;Rechts;2;32;left;no;50;leftarrow;331;true;focus;yes;536230;Chrome;112.0;Windows;10;undefined;undefined;1366 x 768;1366 x 768
H013;34;Mannelijk;Rechts;2;33;right;yes;50;undefined;null;true;focus;yes;538238;Chrome;112.0;Windows;10;undefined;undefined;1366 x 768;1366 x 768
H013;34;Mannelijk;Rechts;2;34;right;no;100;rightarrow;360;true;focus;yes;539352;Chrome;112.0;Windows;10;undefined;undefined;1366 x 768;1366 x 768
H013;34;Mannelijk;Rechts;2;35;left;no;100;leftarrow;352;true;focus;yes;540459;Chrome;112.0;Windows;10;undefined;undefined;1366 x 768;1366 x 768
H013;34;Mannelijk;Rechts;2;36;right;no;100;rightarrow;396;true;focus;yes;541609;Chrome;112.0;Windows;10;undefined;undefined;1366 x 768;1366 x 768
H013;34;Mannelijk;Rechts;2;37;left;no;100;leftarrow;428;true;focus;yes;542792;Chrome;112.0;Windows;10;undefined;undefined;1366 x 768;1366 x 768
H013;34;Mannelijk;Rechts;2;38;left;yes;100;undefined;null;true;focus;yes;544801;Chrome;112.0;Windows;10;undefined;undefined;1366 x 768;1366 x 768
H013;34;Mannelijk;Rechts;2;39;left;no;150;rightarrow;307;false;focus;yes;545862;Chrome;112.0;Windows;10;undefined;undefined;1366 x 768;1366 x 768
H013;34;Mannelijk;Rechts;2;40;right;no;150;rightarrow;345;true;focus;yes;546962;Chrome;112.0;Windows;10;undefined;undefined;1366 x 768;1366 x 768
H013;34;Mannelijk;Rechts;2;41;left;yes;150;leftarrow;336;false;focus;yes;548052;Chrome;112.0;Windows;10;undefined;undefined;1366 x 768;1366 x 768
H013;34;Mannelijk;Rechts;2;42;left;no;100;leftarrow;387;true;focus;yes;549193;Chrome;112.0;Windows;10;undefined;undefined;1366 x 768;1366 x 768
H013;34;Mannelijk;Rechts;2;43;left;no;100;leftarrow;367;true;focus;yes;550315;Chrome;112.0;Windows;10;undefined;undefined;1366 x 768;1366 x 768
H013;34;Mannelijk;Rechts;2;44;right;no;100;rightarrow;415;true;focus;yes;551484;Chrome;112.0;Windows;10;undefined;undefined;1366 x 768;1366 x 768
H013;34;Mannelijk;Rechts;2;45;right;yes;100;undefined;null;true;focus;yes;553490;Chrome;112.0;Windows;10;undefined;undefined;1366 x 768;1366 x 768
H013;34;Mannelijk;Rechts;2;46;right;no;150;rightarrow;428;true;focus;yes;554676;Chrome;112.0;Windows;10;undefined;undefined;1366 x 768;1366 x 768
H013;34;Mannelijk;Rechts;2;47;left;no;150;leftarrow;331;true;focus;yes;555761;Chrome;112.0;Windows;10;undefined;undefined;1366 x 768;1366 x 768
H013;34;Mannelijk;Rechts;2;48;right;no;150;rightarrow;348;true;focus;yes;556864;Chrome;112.0;Windows;10;undefined;undefined;1366 x 768;1366 x 768
H013;34;Mannelijk;Rechts;2;49;left;no;150;leftarrow;377;true;focus;yes;557995;Chrome;112.0;Windows;10;undefined;undefined;1366 x 768;1366 x 768
H013;34;Mannelijk;Rechts;2;50;right;no;150;rightarrow;340;true;focus;yes;559089;Chrome;112.0;Windows;10;undefined;undefined;1366 x 768;1366 x 768
H013;34;Mannelijk;Rechts;2;51;left;no;150;leftarrow;382;true;focus;yes;560227;Chrome;112.0;Windows;10;undefined;undefined;1366 x 768;1366 x 768
H013;34;Mannelijk;Rechts;2;52;right;yes;150;undefined;null;true;focus;yes;562232;Chrome;112.0;Windows;10;undefined;undefined;1366 x 768;1366 x 768
H013;34;Mannelijk;Rechts;2;53;left;yes;200;leftarrow;431;false;focus;yes;563419;Chrome;112.0;Windows;10;undefined;undefined;1366 x 768;1366 x 768
H013;34;Mannelijk;Rechts;2;54;right;no;150;rightarrow;337;true;focus;yes;564512;Chrome;112.0;Windows;10;undefined;undefined;1366 x 768;1366 x 768
H013;34;Mannelijk;Rechts;2;55;right;no;150;rightarrow;375;true;focus;yes;565643;Chrome;112.0;Windows;10;undefined;undefined;1366 x 768;1366 x 768
H013;34;Mannelijk;Rechts;2;56;left;no;150;leftarrow;407;true;focus;yes;566804;Chrome;112.0;Windows;10;undefined;undefined;1366 x 768;1366 x 768
H013;34;Mannelijk;Rechts;2;57;right;no;150;rightarrow;399;true;focus;yes;567957;Chrome;112.0;Windows;10;undefined;undefined;1366 x 768;1366 x 768
H013;34;Mannelijk;Rechts;2;58;left;no;150;leftarrow;349;true;focus;yes;569061;Chrome;112.0;Windows;10;undefined;undefined;1366 x 768;1366 x 768
H013;34;Mannelijk;Rechts;2;59;left;no;150;leftarrow;442;true;focus;yes;570258;Chrome;112.0;Windows;10;undefined;undefined;1366 x 768;1366 x 768
H013;34;Mannelijk;Rechts;2;60;right;no;150;rightarrow;357;true;focus;yes;571369;Chrome;112.0;Windows;10;undefined;undefined;1366 x 768;1366 x 768
H013;34;Mannelijk;Rechts;2;61;left;yes;150;undefined;null;true;focus;yes;573375;Chrome;112.0;Windows;10;undefined;undefined;1366 x 768;1366 x 768
H013;34;Mannelijk;Rechts;2;62;left;no;200;leftarrow;400;true;focus;yes;574529;Chrome;112.0;Windows;10;undefined;undefined;1366 x 768;1366 x 768
H013;34;Mannelijk;Rechts;2;63;right;no;200;rightarrow;385;true;focus;yes;575669;Chrome;112.0;Windows;10;undefined;undefined;1366 x 768;1366 x 768
H013;34;Mannelijk;Rechts;2;64;right;yes;200;rightarrow;393;false;focus;yes;576817;Chrome;112.0;Windows;10;undefined;undefined;1366 x 768;1366 x 768
H013;34;Mannelijk;Rechts;2;65;right;no;150;rightarrow;475;true;focus;yes;578046;Chrome;112.0;Windows;10;undefined;undefined;1366 x 768;1366 x 768
H013;34;Mannelijk;Rechts;2;66;left;no;150;leftarrow;425;true;focus;yes;579225;Chrome;112.0;Windows;10;undefined;undefined;1366 x 768;1366 x 768
H013;34;Mannelijk;Rechts;2;67;left;no;150;leftarrow;364;true;focus;yes;580344;Chrome;112.0;Windows;10;undefined;undefined;1366 x 768;1366 x 768
H013;34;Mannelijk;Rechts;2;68;right;yes;150;rightarrow;393;false;focus;yes;581492;Chrome;112.0;Windows;10;undefined;undefined;1366 x 768;1366 x 768
H013;34;Mannelijk;Rechts;2;69;right;no;100;rightarrow;513;true;focus;yes;582758;Chrome;112.0;Windows;10;undefined;undefined;1366 x 768;1366 x 768
H013;34;Mannelijk;Rechts;2;70;left;yes;100;undefined;null;true;focus;yes;584765;Chrome;112.0;Windows;10;undefined;undefined;1366 x 768;1366 x 768
H013;34;Mannelijk;Rechts;2;71;right;no;150;rightarrow;371;true;focus;yes;585890;Chrome;112.0;Windows;10;undefined;undefined;1366 x 768;1366 x 768
H013;34;Mannelijk;Rechts;2;72;left;no;150;leftarrow;335;true;focus;yes;586981;Chrome;112.0;Windows;10;undefined;undefined;1366 x 768;1366 x 768
H013;34;Mannelijk;Rechts;2;73;right;no;150;rightarrow;377;true;focus;yes;588113;Chrome;112.0;Windows;10;undefined;undefined;1366 x 768;1366 x 768
H013;34;Mannelijk;Rechts;2;74;left;no;150;leftarrow;375;true;focus;yes;589242;Chrome;112.0;Windows;10;undefined;undefined;1366 x 768;1366 x 768
H013;34;Mannelijk;Rechts;2;75;right;yes;150;undefined;null;true;focus;yes;591246;Chrome;112.0;Windows;10;undefined;undefined;1366 x 768;1366 x 768
H013;34;Mannelijk;Rechts;2;76;left;no;200;leftarrow;318;true;focus;yes;592319;Chrome;112.0;Windows;10;undefined;undefined;1366 x 768;1366 x 768
H013;34;Mannelijk;Rechts;2;77;left;yes;200;rightarrow;190;false;focus;yes;593264;Chrome;112.0;Windows;10;undefined;undefined;1366 x 768;1366 x 768
H013;34;Mannelijk;Rechts;2;12;right;yes;150;rightarrow;383;false;focus;yes;512579;Chrome;112.0;Windows;10;undefined;undefined;1366 x 768;1366 x 768
H013;34;Mannelijk;Rechts;2;78;left;no;150;leftarrow;471;true;focus;yes;594490;Chrome;112.0;Windows;10;undefined;undefined;1366 x 768;1366 x 768
H013;34;Mannelijk;Rechts;2;79;right;no;150;rightarrow;388;true;focus;yes;595634;Chrome;112.0;Windows;10;undefined;undefined;1366 x 768;1366 x 768
H013;34;Mannelijk;Rechts;2;80;right;no;150;rightarrow;412;true;focus;yes;596801;Chrome;112.0;Windows;10;undefined;undefined;1366 x 768;1366 x 768
H013;34;Mannelijk;Rechts;2;81;right;no;150;rightarrow;312;true;focus;yes;597868;Chrome;112.0;Windows;10;undefined;undefined;1366 x 768;1366 x 768
H013;34;Mannelijk;Rechts;2;82;left;no;150;leftarrow;415;true;focus;yes;599038;Chrome;112.0;Windows;10;undefined;undefined;1366 x 768;1366 x 768
H013;34;Mannelijk;Rechts;2;83;right;yes;150;rightarrow;438;false;focus;yes;600229;Chrome;112.0;Windows;10;undefined;undefined;1366 x 768;1366 x 768
H013;34;Mannelijk;Rechts;2;84;left;no;100;leftarrow;343;true;focus;yes;601325;Chrome;112.0;Windows;10;undefined;undefined;1366 x 768;1366 x 768
H013;34;Mannelijk;Rechts;2;85;right;no;100;rightarrow;407;true;focus;yes;602486;Chrome;112.0;Windows;10;undefined;undefined;1366 x 768;1366 x 768
H013;34;Mannelijk;Rechts;2;86;left;yes;100;undefined;null;true;focus;yes;604491;Chrome;112.0;Windows;10;undefined;undefined;1366 x 768;1366 x 768
H013;34;Mannelijk;Rechts;2;87;right;no;150;rightarrow;508;true;focus;yes;605754;Chrome;112.0;Windows;10;undefined;undefined;1366 x 768;1366 x 768
H013;34;Mannelijk;Rechts;2;88;left;no;150;leftarrow;386;true;focus;yes;606895;Chrome;112.0;Windows;10;undefined;undefined;1366 x 768;1366 x 768
H013;34;Mannelijk;Rechts;2;89;right;no;150;rightarrow;349;true;focus;yes;607999;Chrome;112.0;Windows;10;undefined;undefined;1366 x 768;1366 x 768
H013;34;Mannelijk;Rechts;2;90;left;yes;150;leftarrow;351;false;focus;yes;609105;Chrome;112.0;Windows;10;undefined;undefined;1366 x 768;1366 x 768
H013;34;Mannelijk;Rechts;2;91;left;no;100;leftarrow;427;true;focus;yes;610288;Chrome;112.0;Windows;10;undefined;undefined;1366 x 768;1366 x 768
H013;34;Mannelijk;Rechts;2;92;left;no;100;leftarrow;339;true;focus;yes;611383;Chrome;112.0;Windows;10;undefined;undefined;1366 x 768;1366 x 768
H013;34;Mannelijk;Rechts;2;93;right;no;100;rightarrow;437;true;focus;yes;612575;Chrome;112.0;Windows;10;undefined;undefined;1366 x 768;1366 x 768
H013;34;Mannelijk;Rechts;2;94;right;no;100;rightarrow;424;true;focus;yes;613753;Chrome;112.0;Windows;10;undefined;undefined;1366 x 768;1366 x 768
H013;34;Mannelijk;Rechts;2;95;right;yes;100;undefined;null;true;focus;yes;615758;Chrome;112.0;Windows;10;undefined;undefined;1366 x 768;1366 x 768
H013;34;Mannelijk;Rechts;2;96;left;no;150;leftarrow;327;true;focus;yes;616841;Chrome;112.0;Windows;10;undefined;undefined;1366 x 768;1366 x 768
H013;34;Mannelijk;Rechts;2;97;right;no;150;rightarrow;378;true;focus;yes;617975;Chrome;112.0;Windows;10;undefined;undefined;1366 x 768;1366 x 768
H013;34;Mannelijk;Rechts;2;98;right;no;150;rightarrow;438;true;focus;yes;619170;Chrome;112.0;Windows;10;undefined;undefined;1366 x 768;1366 x 768
H013;34;Mannelijk;Rechts;2;99;left;yes;150;leftarrow;363;false;focus;yes;620287;Chrome;112.0;Windows;10;undefined;undefined;1366 x 768;1366 x 768
H013;34;Mannelijk;Rechts;2;100;right;yes;100;rightarrow;305;false;focus;yes;621348;Chrome;112.0;Windows;10;undefined;undefined;1366 x 768;1366 x 768
H013;34;Mannelijk;Rechts;2;101;left;no;50;leftarrow;367;true;focus;yes;622469;Chrome;112.0;Windows;10;undefined;undefined;1366 x 768;1366 x 768
H013;34;Mannelijk;Rechts;2;102;left;no;50;leftarrow;426;true;focus;yes;623649;Chrome;112.0;Windows;10;undefined;undefined;1366 x 768;1366 x 768
H013;34;Mannelijk;Rechts;2;103;left;no;50;leftarrow;390;true;focus;yes;624796;Chrome;112.0;Windows;10;undefined;undefined;1366 x 768;1366 x 768
H013;34;Mannelijk;Rechts;2;104;right;no;50;rightarrow;398;true;focus;yes;625950;Chrome;112.0;Windows;10;undefined;undefined;1366 x 768;1366 x 768
H013;34;Mannelijk;Rechts;2;105;right;no;50;rightarrow;354;true;focus;yes;627058;Chrome;112.0;Windows;10;undefined;undefined;1366 x 768;1366 x 768
H013;34;Mannelijk;Rechts;2;106;left;no;50;leftarrow;389;true;focus;yes;628202;Chrome;112.0;Windows;10;undefined;undefined;1366 x 768;1366 x 768
H013;34;Mannelijk;Rechts;2;107;left;yes;50;undefined;null;true;focus;yes;630209;Chrome;112.0;Windows;10;undefined;undefined;1366 x 768;1366 x 768
H013;34;Mannelijk;Rechts;2;108;left;no;100;leftarrow;380;true;focus;yes;631345;Chrome;112.0;Windows;10;undefined;undefined;1366 x 768;1366 x 768
H013;34;Mannelijk;Rechts;2;109;right;no;100;rightarrow;384;true;focus;yes;632484;Chrome;112.0;Windows;10;undefined;undefined;1366 x 768;1366 x 768
H013;34;Mannelijk;Rechts;2;110;right;no;100;rightarrow;363;true;focus;yes;633602;Chrome;112.0;Windows;10;undefined;undefined;1366 x 768;1366 x 768
H013;34;Mannelijk;Rechts;2;111;right;yes;100;rightarrow;373;false;focus;yes;634731;Chrome;112.0;Windows;10;undefined;undefined;1366 x 768;1366 x 768
H013;34;Mannelijk;Rechts;2;112;left;no;50;leftarrow;416;true;focus;yes;635902;Chrome;112.0;Windows;10;undefined;undefined;1366 x 768;1366 x 768
H013;34;Mannelijk;Rechts;2;113;left;yes;50;undefined;null;true;focus;yes;637907;Chrome;112.0;Windows;10;undefined;undefined;1366 x 768;1366 x 768
H013;34;Mannelijk;Rechts;2;114;right;no;100;rightarrow;343;true;focus;yes;639006;Chrome;112.0;Windows;10;undefined;undefined;1366 x 768;1366 x 768
H013;34;Mannelijk;Rechts;2;115;right;yes;100;rightarrow;295;false;focus;yes;640055;Chrome;112.0;Windows;10;undefined;undefined;1366 x 768;1366 x 768
H013;34;Mannelijk;Rechts;2;116;right;no;50;rightarrow;633;true;focus;yes;641442;Chrome;112.0;Windows;10;undefined;undefined;1366 x 768;1366 x 768
H013;34;Mannelijk;Rechts;2;117;right;no;50;rightarrow;674;true;focus;yes;642870;Chrome;112.0;Windows;10;undefined;undefined;1366 x 768;1366 x 768
H013;34;Mannelijk;Rechts;2;118;left;no;50;rightarrow;36;false;focus;yes;643662;Chrome;112.0;Windows;10;undefined;undefined;1366 x 768;1366 x 768
H013;34;Mannelijk;Rechts;2;119;left;no;50;leftarrow;304;true;focus;yes;644720;Chrome;112.0;Windows;10;undefined;undefined;1366 x 768;1366 x 768
H013;34;Mannelijk;Rechts;2;120;left;no;50;leftarrow;332;true;focus;yes;645809;Chrome;112.0;Windows;10;undefined;undefined;1366 x 768;1366 x 768
H013;34;Mannelijk;Rechts;2;121;left;no;50;leftarrow;392;true;focus;yes;646957;Chrome;112.0;Windows;10;undefined;undefined;1366 x 768;1366 x 768
H013;34;Mannelijk;Rechts;2;122;left;no;50;leftarrow;390;true;focus;yes;648102;Chrome;112.0;Windows;10;undefined;undefined;1366 x 768;1366 x 768
H013;34;Mannelijk;Rechts;2;123;right;no;50;rightarrow;443;true;focus;yes;649299;Chrome;112.0;Windows;10;undefined;undefined;1366 x 768;1366 x 768
H013;34;Mannelijk;Rechts;2;124;left;no;50;leftarrow;393;true;focus;yes;650447;Chrome;112.0;Windows;10;undefined;undefined;1366 x 768;1366 x 768
H013;34;Mannelijk;Rechts;2;125;right;yes;50;undefined;null;true;focus;yes;652453;Chrome;112.0;Windows;10;undefined;undefined;1366 x 768;1366 x 768
H013;34;Mannelijk;Rechts;2;126;right;no;100;rightarrow;419;true;focus;yes;653627;Chrome;112.0;Windows;10;undefined;undefined;1366 x 768;1366 x 768
H013;34;Mannelijk;Rechts;2;127;right;no;100;rightarrow;366;true;focus;yes;654748;Chrome;112.0;Windows;10;undefined;undefined;1366 x 768;1366 x 768
H013;34;Mannelijk;Rechts;2;128;left;yes;100;leftarrow;399;false;focus;yes;655902;Chrome;112.0;Windows;10;undefined;undefined;1366 x 768;1366 x 768
H013;34;Mannelijk;Rechts;3;1;right;no;50;rightarrow;363;true;focus;yes;675330;Chrome;112.0;Windows;10;undefined;undefined;1366 x 768;1366 x 768
H013;34;Mannelijk;Rechts;3;2;right;no;50;rightarrow;336;true;focus;yes;676421;Chrome;112.0;Windows;10;undefined;undefined;1366 x 768;1366 x 768
H013;34;Mannelijk;Rechts;3;3;right;yes;50;undefined;null;true;focus;yes;678426;Chrome;112.0;Windows;10;undefined;undefined;1366 x 768;1366 x 768
H013;34;Mannelijk;Rechts;3;4;left;yes;100;leftarrow;373;false;focus;yes;679554;Chrome;112.0;Windows;10;undefined;undefined;1366 x 768;1366 x 768
H013;34;Mannelijk;Rechts;3;5;left;no;50;leftarrow;352;true;focus;yes;680661;Chrome;112.0;Windows;10;undefined;undefined;1366 x 768;1366 x 768
H013;34;Mannelijk;Rechts;3;6;left;no;50;leftarrow;359;true;focus;yes;681776;Chrome;112.0;Windows;10;undefined;undefined;1366 x 768;1366 x 768
H013;34;Mannelijk;Rechts;3;7;right;no;50;rightarrow;393;true;focus;yes;682925;Chrome;112.0;Windows;10;undefined;undefined;1366 x 768;1366 x 768
H013;34;Mannelijk;Rechts;3;8;left;no;50;leftarrow;458;true;focus;yes;684138;Chrome;112.0;Windows;10;undefined;undefined;1366 x 768;1366 x 768
H013;34;Mannelijk;Rechts;3;9;left;no;50;leftarrow;453;true;focus;yes;685345;Chrome;112.0;Windows;10;undefined;undefined;1366 x 768;1366 x 768
H013;34;Mannelijk;Rechts;3;10;right;no;50;rightarrow;373;true;focus;yes;686474;Chrome;112.0;Windows;10;undefined;undefined;1366 x 768;1366 x 768
H013;34;Mannelijk;Rechts;3;11;right;no;50;rightarrow;383;true;focus;yes;687613;Chrome;112.0;Windows;10;undefined;undefined;1366 x 768;1366 x 768
H013;34;Mannelijk;Rechts;3;12;left;yes;50;undefined;null;true;focus;yes;689621;Chrome;112.0;Windows;10;undefined;undefined;1366 x 768;1366 x 768
H013;34;Mannelijk;Rechts;3;13;left;no;100;leftarrow;398;true;focus;yes;690772;Chrome;112.0;Windows;10;undefined;undefined;1366 x 768;1366 x 768
H013;34;Mannelijk;Rechts;3;14;right;yes;100;rightarrow;389;false;focus;yes;691918;Chrome;112.0;Windows;10;undefined;undefined;1366 x 768;1366 x 768
H013;34;Mannelijk;Rechts;3;15;right;no;50;rightarrow;500;true;focus;yes;693173;Chrome;112.0;Windows;10;undefined;undefined;1366 x 768;1366 x 768
H013;34;Mannelijk;Rechts;3;16;left;no;50;leftarrow;369;true;focus;yes;694297;Chrome;112.0;Windows;10;undefined;undefined;1366 x 768;1366 x 768
H013;34;Mannelijk;Rechts;3;17;right;yes;50;undefined;null;true;focus;yes;696302;Chrome;112.0;Windows;10;undefined;undefined;1366 x 768;1366 x 768
H013;34;Mannelijk;Rechts;3;18;left;no;100;leftarrow;431;true;focus;yes;697487;Chrome;112.0;Windows;10;undefined;undefined;1366 x 768;1366 x 768
H013;34;Mannelijk;Rechts;3;19;right;no;100;rightarrow;393;true;focus;yes;698637;Chrome;112.0;Windows;10;undefined;undefined;1366 x 768;1366 x 768
H013;34;Mannelijk;Rechts;3;20;right;no;100;leftarrow;305;false;focus;yes;699697;Chrome;112.0;Windows;10;undefined;undefined;1366 x 768;1366 x 768
H013;34;Mannelijk;Rechts;3;21;right;no;100;rightarrow;311;true;focus;yes;700763;Chrome;112.0;Windows;10;undefined;undefined;1366 x 768;1366 x 768
H013;34;Mannelijk;Rechts;3;22;left;no;100;leftarrow;421;true;focus;yes;701940;Chrome;112.0;Windows;10;undefined;undefined;1366 x 768;1366 x 768
H013;34;Mannelijk;Rechts;3;23;left;yes;100;undefined;null;true;focus;yes;703947;Chrome;112.0;Windows;10;undefined;undefined;1366 x 768;1366 x 768
H013;34;Mannelijk;Rechts;3;24;left;no;150;leftarrow;492;true;focus;yes;705194;Chrome;112.0;Windows;10;undefined;undefined;1366 x 768;1366 x 768
H013;34;Mannelijk;Rechts;3;25;right;no;150;rightarrow;435;true;focus;yes;706386;Chrome;112.0;Windows;10;undefined;undefined;1366 x 768;1366 x 768
H013;34;Mannelijk;Rechts;3;26;left;no;150;leftarrow;411;true;focus;yes;707553;Chrome;112.0;Windows;10;undefined;undefined;1366 x 768;1366 x 768
H013;34;Mannelijk;Rechts;3;27;left;no;150;leftarrow;410;true;focus;yes;708718;Chrome;112.0;Windows;10;undefined;undefined;1366 x 768;1366 x 768
H013;34;Mannelijk;Rechts;3;28;left;yes;150;leftarrow;380;false;focus;yes;709852;Chrome;112.0;Windows;10;undefined;undefined;1366 x 768;1366 x 768
H013;34;Mannelijk;Rechts;3;29;left;no;100;leftarrow;358;true;focus;yes;710966;Chrome;112.0;Windows;10;undefined;undefined;1366 x 768;1366 x 768
H013;34;Mannelijk;Rechts;3;30;right;yes;100;undefined;null;true;focus;yes;712971;Chrome;112.0;Windows;10;undefined;undefined;1366 x 768;1366 x 768
H013;34;Mannelijk;Rechts;3;31;right;no;150;rightarrow;494;true;focus;yes;714220;Chrome;112.0;Windows;10;undefined;undefined;1366 x 768;1366 x 768
H013;34;Mannelijk;Rechts;3;32;right;no;150;rightarrow;308;true;focus;yes;715285;Chrome;112.0;Windows;10;undefined;undefined;1366 x 768;1366 x 768
H013;34;Mannelijk;Rechts;3;33;right;no;150;rightarrow;381;true;focus;yes;716420;Chrome;112.0;Windows;10;undefined;undefined;1366 x 768;1366 x 768
H013;34;Mannelijk;Rechts;3;34;left;no;150;leftarrow;439;true;focus;yes;717614;Chrome;112.0;Windows;10;undefined;undefined;1366 x 768;1366 x 768
H013;34;Mannelijk;Rechts;3;35;left;no;150;leftarrow;348;true;focus;yes;718719;Chrome;112.0;Windows;10;undefined;undefined;1366 x 768;1366 x 768
H013;34;Mannelijk;Rechts;3;36;right;no;150;rightarrow;351;true;focus;yes;719824;Chrome;112.0;Windows;10;undefined;undefined;1366 x 768;1366 x 768
H013;34;Mannelijk;Rechts;3;37;right;no;150;rightarrow;515;true;focus;yes;721093;Chrome;112.0;Windows;10;undefined;undefined;1366 x 768;1366 x 768
H013;34;Mannelijk;Rechts;3;38;left;yes;150;leftarrow;377;false;focus;yes;722226;Chrome;112.0;Windows;10;undefined;undefined;1366 x 768;1366 x 768
H013;34;Mannelijk;Rechts;3;39;right;yes;100;rightarrow;315;false;focus;yes;723296;Chrome;112.0;Windows;10;undefined;undefined;1366 x 768;1366 x 768
H013;34;Mannelijk;Rechts;3;40;left;no;50;leftarrow;388;true;focus;yes;724441;Chrome;112.0;Windows;10;undefined;undefined;1366 x 768;1366 x 768
H013;34;Mannelijk;Rechts;3;41;left;yes;50;undefined;null;true;focus;yes;726446;Chrome;112.0;Windows;10;undefined;undefined;1366 x 768;1366 x 768
H013;34;Mannelijk;Rechts;3;42;left;no;100;leftarrow;403;true;focus;yes;727604;Chrome;112.0;Windows;10;undefined;undefined;1366 x 768;1366 x 768
H013;34;Mannelijk;Rechts;3;43;right;no;100;rightarrow;382;true;focus;yes;728741;Chrome;112.0;Windows;10;undefined;undefined;1366 x 768;1366 x 768
H013;34;Mannelijk;Rechts;3;44;right;no;100;rightarrow;379;true;focus;yes;729875;Chrome;112.0;Windows;10;undefined;undefined;1366 x 768;1366 x 768
H013;34;Mannelijk;Rechts;3;45;right;yes;100;undefined;null;true;focus;yes;731880;Chrome;112.0;Windows;10;undefined;undefined;1366 x 768;1366 x 768
H013;34;Mannelijk;Rechts;3;46;left;no;150;leftarrow;384;true;focus;yes;733018;Chrome;112.0;Windows;10;undefined;undefined;1366 x 768;1366 x 768
H013;34;Mannelijk;Rechts;3;47;right;no;150;rightarrow;386;true;focus;yes;734159;Chrome;112.0;Windows;10;undefined;undefined;1366 x 768;1366 x 768
H013;34;Mannelijk;Rechts;3;48;left;no;150;leftarrow;319;true;focus;yes;735234;Chrome;112.0;Windows;10;undefined;undefined;1366 x 768;1366 x 768
H013;34;Mannelijk;Rechts;3;49;left;yes;150;leftarrow;382;false;focus;yes;736370;Chrome;112.0;Windows;10;undefined;undefined;1366 x 768;1366 x 768
H013;34;Mannelijk;Rechts;3;50;right;no;100;rightarrow;411;true;focus;yes;737537;Chrome;112.0;Windows;10;undefined;undefined;1366 x 768;1366 x 768
H013;34;Mannelijk;Rechts;3;51;right;yes;100;rightarrow;326;false;focus;yes;738617;Chrome;112.0;Windows;10;undefined;undefined;1366 x 768;1366 x 768
H013;34;Mannelijk;Rechts;3;52;right;no;50;rightarrow;439;true;focus;yes;739812;Chrome;112.0;Windows;10;undefined;undefined;1366 x 768;1366 x 768
H013;34;Mannelijk;Rechts;3;53;left;no;50;leftarrow;337;true;focus;yes;740905;Chrome;112.0;Windows;10;undefined;undefined;1366 x 768;1366 x 768
H013;34;Mannelijk;Rechts;3;54;right;no;50;rightarrow;370;true;focus;yes;742031;Chrome;112.0;Windows;10;undefined;undefined;1366 x 768;1366 x 768
H013;34;Mannelijk;Rechts;3;55;left;no;50;leftarrow;391;true;focus;yes;743177;Chrome;112.0;Windows;10;undefined;undefined;1366 x 768;1366 x 768
H013;34;Mannelijk;Rechts;3;56;left;no;50;leftarrow;457;true;focus;yes;744389;Chrome;112.0;Windows;10;undefined;undefined;1366 x 768;1366 x 768
H013;34;Mannelijk;Rechts;3;57;left;no;50;leftarrow;406;true;focus;yes;745550;Chrome;112.0;Windows;10;undefined;undefined;1366 x 768;1366 x 768
H013;34;Mannelijk;Rechts;3;58;right;yes;50;undefined;null;true;focus;yes;747557;Chrome;112.0;Windows;10;undefined;undefined;1366 x 768;1366 x 768
H013;34;Mannelijk;Rechts;3;59;right;no;100;rightarrow;366;true;focus;yes;748678;Chrome;112.0;Windows;10;undefined;undefined;1366 x 768;1366 x 768
H013;34;Mannelijk;Rechts;3;60;right;no;100;rightarrow;322;true;focus;yes;749753;Chrome;112.0;Windows;10;undefined;undefined;1366 x 768;1366 x 768
H013;34;Mannelijk;Rechts;3;61;right;no;100;rightarrow;347;true;focus;yes;750857;Chrome;112.0;Windows;10;undefined;undefined;1366 x 768;1366 x 768
H013;34;Mannelijk;Rechts;3;62;left;yes;100;undefined;null;true;focus;yes;752862;Chrome;112.0;Windows;10;undefined;undefined;1366 x 768;1366 x 768
H013;34;Mannelijk;Rechts;3;63;left;no;150;leftarrow;433;true;focus;yes;754050;Chrome;112.0;Windows;10;undefined;undefined;1366 x 768;1366 x 768
H013;34;Mannelijk;Rechts;3;64;left;no;150;leftarrow;319;true;focus;yes;755125;Chrome;112.0;Windows;10;undefined;undefined;1366 x 768;1366 x 768
H013;34;Mannelijk;Rechts;3;65;left;yes;150;leftarrow;353;false;focus;yes;756234;Chrome;112.0;Windows;10;undefined;undefined;1366 x 768;1366 x 768
H013;34;Mannelijk;Rechts;3;66;right;no;100;rightarrow;373;true;focus;yes;757362;Chrome;112.0;Windows;10;undefined;undefined;1366 x 768;1366 x 768
H013;34;Mannelijk;Rechts;3;67;right;no;100;rightarrow;352;true;focus;yes;758469;Chrome;112.0;Windows;10;undefined;undefined;1366 x 768;1366 x 768
H013;34;Mannelijk;Rechts;3;68;left;no;100;leftarrow;497;true;focus;yes;759723;Chrome;112.0;Windows;10;undefined;undefined;1366 x 768;1366 x 768
H013;34;Mannelijk;Rechts;3;69;left;no;100;leftarrow;413;true;focus;yes;760891;Chrome;112.0;Windows;10;undefined;undefined;1366 x 768;1366 x 768
H013;34;Mannelijk;Rechts;3;70;right;yes;100;undefined;null;true;focus;yes;762897;Chrome;112.0;Windows;10;undefined;undefined;1366 x 768;1366 x 768
H013;34;Mannelijk;Rechts;3;71;right;no;150;rightarrow;386;true;focus;yes;764039;Chrome;112.0;Windows;10;undefined;undefined;1366 x 768;1366 x 768
H013;34;Mannelijk;Rechts;3;72;left;no;150;rightarrow;124;false;focus;yes;764918;Chrome;112.0;Windows;10;undefined;undefined;1366 x 768;1366 x 768
H013;34;Mannelijk;Rechts;3;73;left;yes;150;leftarrow;358;false;focus;yes;766032;Chrome;112.0;Windows;10;undefined;undefined;1366 x 768;1366 x 768
H013;34;Mannelijk;Rechts;3;74;right;no;100;rightarrow;374;true;focus;yes;767162;Chrome;112.0;Windows;10;undefined;undefined;1366 x 768;1366 x 768
H013;34;Mannelijk;Rechts;3;75;right;yes;100;undefined;null;true;focus;yes;769167;Chrome;112.0;Windows;10;undefined;undefined;1366 x 768;1366 x 768
H013;34;Mannelijk;Rechts;3;76;left;no;150;leftarrow;502;true;focus;yes;770423;Chrome;112.0;Windows;10;undefined;undefined;1366 x 768;1366 x 768
H013;34;Mannelijk;Rechts;3;77;right;no;150;rightarrow;363;true;focus;yes;771542;Chrome;112.0;Windows;10;undefined;undefined;1366 x 768;1366 x 768
H013;34;Mannelijk;Rechts;3;78;right;no;150;rightarrow;380;true;focus;yes;772677;Chrome;112.0;Windows;10;undefined;undefined;1366 x 768;1366 x 768
H013;34;Mannelijk;Rechts;3;79;left;no;150;leftarrow;450;true;focus;yes;773882;Chrome;112.0;Windows;10;undefined;undefined;1366 x 768;1366 x 768
H013;34;Mannelijk;Rechts;3;80;left;no;150;leftarrow;418;true;focus;yes;775055;Chrome;112.0;Windows;10;undefined;undefined;1366 x 768;1366 x 768
H013;34;Mannelijk;Rechts;3;81;left;yes;150;leftarrow;360;false;focus;yes;776171;Chrome;112.0;Windows;10;undefined;undefined;1366 x 768;1366 x 768
H013;34;Mannelijk;Rechts;3;82;right;no;100;rightarrow;374;true;focus;yes;777302;Chrome;112.0;Windows;10;undefined;undefined;1366 x 768;1366 x 768
H013;34;Mannelijk;Rechts;3;83;right;no;100;rightarrow;390;true;focus;yes;778446;Chrome;112.0;Windows;10;undefined;undefined;1366 x 768;1366 x 768
H013;34;Mannelijk;Rechts;3;84;right;no;100;rightarrow;369;true;focus;yes;779570;Chrome;112.0;Windows;10;undefined;undefined;1366 x 768;1366 x 768
H013;34;Mannelijk;Rechts;3;85;right;yes;100;undefined;null;true;focus;yes;781577;Chrome;112.0;Windows;10;undefined;undefined;1366 x 768;1366 x 768
H013;34;Mannelijk;Rechts;3;86;left;no;150;rightarrow;324;false;focus;yes;782658;Chrome;112.0;Windows;10;undefined;undefined;1366 x 768;1366 x 768
H013;34;Mannelijk;Rechts;3;87;left;no;150;leftarrow;349;true;focus;yes;783768;Chrome;112.0;Windows;10;undefined;undefined;1366 x 768;1366 x 768
H013;34;Mannelijk;Rechts;3;88;left;no;150;leftarrow;342;true;focus;yes;784864;Chrome;112.0;Windows;10;undefined;undefined;1366 x 768;1366 x 768
H013;34;Mannelijk;Rechts;3;89;right;no;150;rightarrow;385;true;focus;yes;786005;Chrome;112.0;Windows;10;undefined;undefined;1366 x 768;1366 x 768
H013;34;Mannelijk;Rechts;3;90;right;no;150;rightarrow;363;true;focus;yes;787123;Chrome;112.0;Windows;10;undefined;undefined;1366 x 768;1366 x 768
H013;34;Mannelijk;Rechts;3;91;right;yes;150;undefined;null;true;focus;yes;789128;Chrome;112.0;Windows;10;undefined;undefined;1366 x 768;1366 x 768
H013;34;Mannelijk;Rechts;3;92;right;no;200;rightarrow;366;true;focus;yes;790249;Chrome;112.0;Windows;10;undefined;undefined;1366 x 768;1366 x 768
H013;34;Mannelijk;Rechts;3;93;left;no;200;leftarrow;428;true;focus;yes;791432;Chrome;112.0;Windows;10;undefined;undefined;1366 x 768;1366 x 768
H013;34;Mannelijk;Rechts;3;94;left;yes;200;leftarrow;363;false;focus;yes;792551;Chrome;112.0;Windows;10;undefined;undefined;1366 x 768;1366 x 768
H013;34;Mannelijk;Rechts;3;95;left;no;150;rightarrow;313;false;focus;yes;793620;Chrome;112.0;Windows;10;undefined;undefined;1366 x 768;1366 x 768
H013;34;Mannelijk;Rechts;3;96;left;no;150;leftarrow;358;true;focus;yes;794733;Chrome;112.0;Windows;10;undefined;undefined;1366 x 768;1366 x 768
H013;34;Mannelijk;Rechts;3;97;left;yes;150;undefined;null;true;focus;yes;796740;Chrome;112.0;Windows;10;undefined;undefined;1366 x 768;1366 x 768
H013;34;Mannelijk;Rechts;3;98;right;no;200;rightarrow;338;true;focus;yes;797833;Chrome;112.0;Windows;10;undefined;undefined;1366 x 768;1366 x 768
H013;34;Mannelijk;Rechts;3;99;right;yes;200;rightarrow;365;false;focus;yes;798952;Chrome;112.0;Windows;10;undefined;undefined;1366 x 768;1366 x 768
H013;34;Mannelijk;Rechts;3;100;right;no;150;rightarrow;455;true;focus;yes;800163;Chrome;112.0;Windows;10;undefined;undefined;1366 x 768;1366 x 768
H013;34;Mannelijk;Rechts;3;101;left;no;150;leftarrow;437;true;focus;yes;801355;Chrome;112.0;Windows;10;undefined;undefined;1366 x 768;1366 x 768
H013;34;Mannelijk;Rechts;3;102;left;no;150;leftarrow;383;true;focus;yes;802494;Chrome;112.0;Windows;10;undefined;undefined;1366 x 768;1366 x 768
H013;34;Mannelijk;Rechts;3;103;left;no;150;leftarrow;398;true;focus;yes;803646;Chrome;112.0;Windows;10;undefined;undefined;1366 x 768;1366 x 768
H013;34;Mannelijk;Rechts;3;104;right;no;150;rightarrow;457;true;focus;yes;804857;Chrome;112.0;Windows;10;undefined;undefined;1366 x 768;1366 x 768
H013;34;Mannelijk;Rechts;3;105;right;no;150;rightarrow;346;true;focus;yes;805959;Chrome;112.0;Windows;10;undefined;undefined;1366 x 768;1366 x 768
H013;34;Mannelijk;Rechts;3;106;left;no;150;leftarrow;402;true;focus;yes;807116;Chrome;112.0;Windows;10;undefined;undefined;1366 x 768;1366 x 768
H013;34;Mannelijk;Rechts;3;107;left;no;150;leftarrow;310;true;focus;yes;808180;Chrome;112.0;Windows;10;undefined;undefined;1366 x 768;1366 x 768
H013;34;Mannelijk;Rechts;3;108;right;yes;150;rightarrow;350;false;focus;yes;809286;Chrome;112.0;Windows;10;undefined;undefined;1366 x 768;1366 x 768
H013;34;Mannelijk;Rechts;3;109;left;yes;100;leftarrow;304;false;focus;yes;810345;Chrome;112.0;Windows;10;undefined;undefined;1366 x 768;1366 x 768
H013;34;Mannelijk;Rechts;3;110;right;no;50;rightarrow;349;true;focus;yes;811450;Chrome;112.0;Windows;10;undefined;undefined;1366 x 768;1366 x 768
H013;34;Mannelijk;Rechts;3;111;right;no;50;rightarrow;466;true;focus;yes;812675;Chrome;112.0;Windows;10;undefined;undefined;1366 x 768;1366 x 768
H013;34;Mannelijk;Rechts;3;112;left;no;50;leftarrow;500;true;focus;yes;813932;Chrome;112.0;Windows;10;undefined;undefined;1366 x 768;1366 x 768
H013;34;Mannelijk;Rechts;3;113;left;yes;50;undefined;null;true;focus;yes;815939;Chrome;112.0;Windows;10;undefined;undefined;1366 x 768;1366 x 768
H013;34;Mannelijk;Rechts;3;114;right;yes;100;rightarrow;312;false;focus;yes;817006;Chrome;112.0;Windows;10;undefined;undefined;1366 x 768;1366 x 768
H013;34;Mannelijk;Rechts;3;115;left;no;50;leftarrow;333;true;focus;yes;818093;Chrome;112.0;Windows;10;undefined;undefined;1366 x 768;1366 x 768
H013;34;Mannelijk;Rechts;3;116;right;no;50;rightarrow;525;true;focus;yes;819372;Chrome;112.0;Windows;10;undefined;undefined;1366 x 768;1366 x 768
H013;34;Mannelijk;Rechts;3;117;right;no;50;leftarrow;336;false;focus;yes;820464;Chrome;112.0;Windows;10;undefined;undefined;1366 x 768;1366 x 768
H013;34;Mannelijk;Rechts;3;118;left;no;50;leftarrow;466;true;focus;yes;821687;Chrome;112.0;Windows;10;undefined;undefined;1366 x 768;1366 x 768
H013;34;Mannelijk;Rechts;3;119;right;no;50;rightarrow;327;true;focus;yes;822769;Chrome;112.0;Windows;10;undefined;undefined;1366 x 768;1366 x 768
H013;34;Mannelijk;Rechts;3;120;left;no;50;leftarrow;362;true;focus;yes;823885;Chrome;112.0;Windows;10;undefined;undefined;1366 x 768;1366 x 768
H013;34;Mannelijk;Rechts;3;121;right;no;50;rightarrow;369;true;focus;yes;825010;Chrome;112.0;Windows;10;undefined;undefined;1366 x 768;1366 x 768
H013;34;Mannelijk;Rechts;3;122;right;yes;50;undefined;null;true;focus;yes;827017;Chrome;112.0;Windows;10;undefined;undefined;1366 x 768;1366 x 768
H013;34;Mannelijk;Rechts;3;123;right;no;100;rightarrow;439;true;focus;yes;828211;Chrome;112.0;Windows;10;undefined;undefined;1366 x 768;1366 x 768
H013;34;Mannelijk;Rechts;3;124;left;no;100;leftarrow;426;true;focus;yes;829392;Chrome;112.0;Windows;10;undefined;undefined;1366 x 768;1366 x 768
H013;34;Mannelijk;Rechts;3;125;right;no;100;rightarrow;431;true;focus;yes;830579;Chrome;112.0;Windows;10;undefined;undefined;1366 x 768;1366 x 768
H013;34;Mannelijk;Rechts;3;126;left;yes;100;undefined;null;true;focus;yes;832587;Chrome;112.0;Windows;10;undefined;undefined;1366 x 768;1366 x 768
H013;34;Mannelijk;Rechts;3;127;left;no;150;leftarrow;432;true;focus;yes;833774;Chrome;112.0;Windows;10;undefined;undefined;1366 x 768;1366 x 768
H013;34;Mannelijk;Rechts;3;128;left;no;150;leftarrow;442;true;focus;yes;834970;Chrome;112.0;Windows;10;undefined;undefined;1366 x 768;1366 x 768
H013;34;Mannelijk;Rechts;4;3;left;yes;200;leftarrow;394;false;focus;yes;857822;Chrome;112.0;Windows;10;undefined;undefined;1366 x 768;1366 x 768
H013;34;Mannelijk;Rechts;4;1;right;yes;150;undefined;null;true;focus;yes;855398;Chrome;112.0;Windows;10;undefined;undefined;1366 x 768;1366 x 768
H013;34;Mannelijk;Rechts;4;5;left;no;150;leftarrow;423;true;focus;yes;860153;Chrome;112.0;Windows;10;undefined;undefined;1366 x 768;1366 x 768
H013;34;Mannelijk;Rechts;4;2;right;no;200;rightarrow;515;true;focus;yes;856671;Chrome;112.0;Windows;10;undefined;undefined;1366 x 768;1366 x 768
H013;34;Mannelijk;Rechts;4;4;right;no;150;rightarrow;395;true;focus;yes;858973;Chrome;112.0;Windows;10;undefined;undefined;1366 x 768;1366 x 768
H013;34;Mannelijk;Rechts;4;6;right;no;150;rightarrow;387;true;focus;yes;861297;Chrome;112.0;Windows;10;undefined;undefined;1366 x 768;1366 x 768
H013;34;Mannelijk;Rechts;4;7;left;no;150;leftarrow;498;true;focus;yes;862550;Chrome;112.0;Windows;10;undefined;undefined;1366 x 768;1366 x 768
H013;34;Mannelijk;Rechts;4;8;left;no;150;leftarrow;436;true;focus;yes;863744;Chrome;112.0;Windows;10;undefined;undefined;1366 x 768;1366 x 768
H013;34;Mannelijk;Rechts;4;9;left;no;150;leftarrow;343;true;focus;yes;864841;Chrome;112.0;Windows;10;undefined;undefined;1366 x 768;1366 x 768
H013;34;Mannelijk;Rechts;4;10;right;no;150;rightarrow;414;true;focus;yes;866013;Chrome;112.0;Windows;10;undefined;undefined;1366 x 768;1366 x 768
H013;34;Mannelijk;Rechts;4;11;left;yes;150;leftarrow;398;false;focus;yes;867167;Chrome;112.0;Windows;10;undefined;undefined;1366 x 768;1366 x 768
H013;34;Mannelijk;Rechts;4;12;left;no;100;leftarrow;483;true;focus;yes;868406;Chrome;112.0;Windows;10;undefined;undefined;1366 x 768;1366 x 768
H013;34;Mannelijk;Rechts;4;13;right;no;100;rightarrow;356;true;focus;yes;869517;Chrome;112.0;Windows;10;undefined;undefined;1366 x 768;1366 x 768
H013;34;Mannelijk;Rechts;4;14;right;yes;100;undefined;null;true;focus;yes;871522;Chrome;112.0;Windows;10;undefined;undefined;1366 x 768;1366 x 768
H013;34;Mannelijk;Rechts;4;15;left;no;150;leftarrow;350;true;focus;yes;872628;Chrome;112.0;Windows;10;undefined;undefined;1366 x 768;1366 x 768
H013;34;Mannelijk;Rechts;4;16;right;no;150;rightarrow;334;true;focus;yes;873718;Chrome;112.0;Windows;10;undefined;undefined;1366 x 768;1366 x 768
H013;34;Mannelijk;Rechts;4;17;left;no;150;leftarrow;402;true;focus;yes;874875;Chrome;112.0;Windows;10;undefined;undefined;1366 x 768;1366 x 768
H013;34;Mannelijk;Rechts;4;18;left;no;150;leftarrow;372;true;focus;yes;876002;Chrome;112.0;Windows;10;undefined;undefined;1366 x 768;1366 x 768
H013;34;Mannelijk;Rechts;4;19;right;no;150;rightarrow;374;true;focus;yes;877132;Chrome;112.0;Windows;10;undefined;undefined;1366 x 768;1366 x 768
H013;34;Mannelijk;Rechts;4;20;right;yes;150;undefined;null;true;focus;yes;879140;Chrome;112.0;Windows;10;undefined;undefined;1366 x 768;1366 x 768
H013;34;Mannelijk;Rechts;4;21;left;yes;200;leftarrow;392;false;focus;yes;880287;Chrome;112.0;Windows;10;undefined;undefined;1366 x 768;1366 x 768
H013;34;Mannelijk;Rechts;4;22;right;no;150;rightarrow;543;true;focus;yes;881584;Chrome;112.0;Windows;10;undefined;undefined;1366 x 768;1366 x 768
H013;34;Mannelijk;Rechts;4;23;right;no;150;rightarrow;371;true;focus;yes;882711;Chrome;112.0;Windows;10;undefined;undefined;1366 x 768;1366 x 768
H013;34;Mannelijk;Rechts;4;24;left;no;150;leftarrow;449;true;focus;yes;883916;Chrome;112.0;Windows;10;undefined;undefined;1366 x 768;1366 x 768
H013;34;Mannelijk;Rechts;4;25;right;no;150;rightarrow;405;true;focus;yes;885077;Chrome;112.0;Windows;10;undefined;undefined;1366 x 768;1366 x 768
H013;34;Mannelijk;Rechts;4;26;left;no;150;leftarrow;403;true;focus;yes;886237;Chrome;112.0;Windows;10;undefined;undefined;1366 x 768;1366 x 768
H013;34;Mannelijk;Rechts;4;27;right;no;150;rightarrow;506;true;focus;yes;887497;Chrome;112.0;Windows;10;undefined;undefined;1366 x 768;1366 x 768
H013;34;Mannelijk;Rechts;4;28;left;yes;150;undefined;null;true;focus;yes;889504;Chrome;112.0;Windows;10;undefined;undefined;1366 x 768;1366 x 768
H013;34;Mannelijk;Rechts;4;29;left;no;200;leftarrow;401;true;focus;yes;890660;Chrome;112.0;Windows;10;undefined;undefined;1366 x 768;1366 x 768
H013;34;Mannelijk;Rechts;4;30;right;yes;200;rightarrow;404;false;focus;yes;891822;Chrome;112.0;Windows;10;undefined;undefined;1366 x 768;1366 x 768
H013;34;Mannelijk;Rechts;4;31;right;no;150;leftarrow;311;false;focus;yes;892888;Chrome;112.0;Windows;10;undefined;undefined;1366 x 768;1366 x 768
H013;34;Mannelijk;Rechts;4;32;left;no;150;leftarrow;481;true;focus;yes;894126;Chrome;112.0;Windows;10;undefined;undefined;1366 x 768;1366 x 768
H013;34;Mannelijk;Rechts;4;33;right;no;150;rightarrow;439;true;focus;yes;895321;Chrome;112.0;Windows;10;undefined;undefined;1366 x 768;1366 x 768
H013;34;Mannelijk;Rechts;4;34;right;no;150;rightarrow;364;true;focus;yes;896440;Chrome;112.0;Windows;10;undefined;undefined;1366 x 768;1366 x 768
H013;34;Mannelijk;Rechts;4;35;right;yes;150;rightarrow;396;false;focus;yes;897592;Chrome;112.0;Windows;10;undefined;undefined;1366 x 768;1366 x 768
H013;34;Mannelijk;Rechts;4;36;left;no;100;leftarrow;420;true;focus;yes;898767;Chrome;112.0;Windows;10;undefined;undefined;1366 x 768;1366 x 768
H013;34;Mannelijk;Rechts;4;37;left;yes;100;undefined;null;true;focus;yes;900774;Chrome;112.0;Windows;10;undefined;undefined;1366 x 768;1366 x 768
H013;34;Mannelijk;Rechts;4;38;left;no;150;leftarrow;418;true;focus;yes;901949;Chrome;112.0;Windows;10;undefined;undefined;1366 x 768;1366 x 768
H013;34;Mannelijk;Rechts;4;39;right;no;150;rightarrow;349;true;focus;yes;903055;Chrome;112.0;Windows;10;undefined;undefined;1366 x 768;1366 x 768
H013;34;Mannelijk;Rechts;4;40;left;no;150;leftarrow;452;true;focus;yes;904262;Chrome;112.0;Windows;10;undefined;undefined;1366 x 768;1366 x 768
H013;34;Mannelijk;Rechts;4;41;right;no;150;rightarrow;390;true;focus;yes;905408;Chrome;112.0;Windows;10;undefined;undefined;1366 x 768;1366 x 768
H013;34;Mannelijk;Rechts;4;42;left;no;150;leftarrow;423;true;focus;yes;906585;Chrome;112.0;Windows;10;undefined;undefined;1366 x 768;1366 x 768
H013;34;Mannelijk;Rechts;4;43;left;no;150;leftarrow;428;true;focus;yes;907769;Chrome;112.0;Windows;10;undefined;undefined;1366 x 768;1366 x 768
H013;34;Mannelijk;Rechts;4;44;right;no;150;rightarrow;362;true;focus;yes;908887;Chrome;112.0;Windows;10;undefined;undefined;1366 x 768;1366 x 768
H013;34;Mannelijk;Rechts;4;45;right;yes;150;rightarrow;393;false;focus;yes;910036;Chrome;112.0;Windows;10;undefined;undefined;1366 x 768;1366 x 768
H013;34;Mannelijk;Rechts;4;46;left;no;100;leftarrow;495;true;focus;yes;911288;Chrome;112.0;Windows;10;undefined;undefined;1366 x 768;1366 x 768
H013;34;Mannelijk;Rechts;4;47;left;yes;100;undefined;null;true;focus;yes;913294;Chrome;112.0;Windows;10;undefined;undefined;1366 x 768;1366 x 768
H013;34;Mannelijk;Rechts;4;48;right;no;150;rightarrow;435;true;focus;yes;914484;Chrome;112.0;Windows;10;undefined;undefined;1366 x 768;1366 x 768
H013;34;Mannelijk;Rechts;4;49;right;no;150;rightarrow;388;true;focus;yes;915626;Chrome;112.0;Windows;10;undefined;undefined;1366 x 768;1366 x 768
H013;34;Mannelijk;Rechts;4;50;right;no;150;rightarrow;368;true;focus;yes;916749;Chrome;112.0;Windows;10;undefined;undefined;1366 x 768;1366 x 768
H013;34;Mannelijk;Rechts;4;51;left;no;150;leftarrow;479;true;focus;yes;917983;Chrome;112.0;Windows;10;undefined;undefined;1366 x 768;1366 x 768
H013;34;Mannelijk;Rechts;4;52;left;yes;150;leftarrow;407;false;focus;yes;919146;Chrome;112.0;Windows;10;undefined;undefined;1366 x 768;1366 x 768
H013;34;Mannelijk;Rechts;4;53;left;no;100;leftarrow;557;true;focus;yes;920459;Chrome;112.0;Windows;10;undefined;undefined;1366 x 768;1366 x 768
H013;34;Mannelijk;Rechts;4;54;right;no;100;rightarrow;424;true;focus;yes;921638;Chrome;112.0;Windows;10;undefined;undefined;1366 x 768;1366 x 768
H013;34;Mannelijk;Rechts;4;55;right;yes;100;undefined;null;true;focus;yes;923645;Chrome;112.0;Windows;10;undefined;undefined;1366 x 768;1366 x 768
H013;34;Mannelijk;Rechts;4;56;left;no;150;leftarrow;441;true;focus;yes;924843;Chrome;112.0;Windows;10;undefined;undefined;1366 x 768;1366 x 768
H013;34;Mannelijk;Rechts;4;57;left;no;150;leftarrow;423;true;focus;yes;926024;Chrome;112.0;Windows;10;undefined;undefined;1366 x 768;1366 x 768
H013;34;Mannelijk;Rechts;4;58;left;no;150;leftarrow;385;true;focus;yes;927165;Chrome;112.0;Windows;10;undefined;undefined;1366 x 768;1366 x 768
H013;34;Mannelijk;Rechts;4;59;left;yes;150;leftarrow;369;false;focus;yes;928289;Chrome;112.0;Windows;10;undefined;undefined;1366 x 768;1366 x 768
H013;34;Mannelijk;Rechts;4;60;right;yes;100;rightarrow;444;false;focus;yes;929489;Chrome;112.0;Windows;10;undefined;undefined;1366 x 768;1366 x 768
H013;34;Mannelijk;Rechts;4;61;right;no;50;rightarrow;383;true;focus;yes;930628;Chrome;112.0;Windows;10;undefined;undefined;1366 x 768;1366 x 768
H013;34;Mannelijk;Rechts;4;62;left;no;50;leftarrow;395;true;focus;yes;931780;Chrome;112.0;Windows;10;undefined;undefined;1366 x 768;1366 x 768
H013;34;Mannelijk;Rechts;4;63;right;no;50;rightarrow;426;true;focus;yes;932962;Chrome;112.0;Windows;10;undefined;undefined;1366 x 768;1366 x 768
H013;34;Mannelijk;Rechts;4;64;right;no;50;rightarrow;423;true;focus;yes;934141;Chrome;112.0;Windows;10;undefined;undefined;1366 x 768;1366 x 768
H013;34;Mannelijk;Rechts;4;65;left;no;50;leftarrow;809;true;focus;yes;935706;Chrome;112.0;Windows;10;undefined;undefined;1366 x 768;1366 x 768
H013;34;Mannelijk;Rechts;4;66;right;no;50;rightarrow;419;true;focus;yes;936883;Chrome;112.0;Windows;10;undefined;undefined;1366 x 768;1366 x 768
H013;34;Mannelijk;Rechts;4;67;left;no;50;leftarrow;416;true;focus;yes;938054;Chrome;112.0;Windows;10;undefined;undefined;1366 x 768;1366 x 768
H013;34;Mannelijk;Rechts;4;68;right;no;50;rightarrow;368;true;focus;yes;939177;Chrome;112.0;Windows;10;undefined;undefined;1366 x 768;1366 x 768
H013;34;Mannelijk;Rechts;4;69;right;no;50;rightarrow;419;true;focus;yes;940351;Chrome;112.0;Windows;10;undefined;undefined;1366 x 768;1366 x 768
H013;34;Mannelijk;Rechts;4;70;right;yes;50;undefined;null;true;focus;yes;942359;Chrome;112.0;Windows;10;undefined;undefined;1366 x 768;1366 x 768
H013;34;Mannelijk;Rechts;4;71;left;yes;100;undefined;null;true;focus;yes;944366;Chrome;112.0;Windows;10;undefined;undefined;1366 x 768;1366 x 768
H013;34;Mannelijk;Rechts;4;72;left;no;150;leftarrow;427;true;focus;yes;945547;Chrome;112.0;Windows;10;undefined;undefined;1366 x 768;1366 x 768
H013;34;Mannelijk;Rechts;4;73;right;no;150;rightarrow;367;true;focus;yes;946671;Chrome;112.0;Windows;10;undefined;undefined;1366 x 768;1366 x 768
H013;34;Mannelijk;Rechts;4;74;left;yes;150;leftarrow;359;false;focus;yes;947787;Chrome;112.0;Windows;10;undefined;undefined;1366 x 768;1366 x 768
H013;34;Mannelijk;Rechts;4;75;left;no;100;leftarrow;438;true;focus;yes;948982;Chrome;112.0;Windows;10;undefined;undefined;1366 x 768;1366 x 768
H013;34;Mannelijk;Rechts;4;76;right;yes;100;undefined;null;true;focus;yes;950989;Chrome;112.0;Windows;10;undefined;undefined;1366 x 768;1366 x 768
H013;34;Mannelijk;Rechts;4;77;right;no;150;rightarrow;378;true;focus;yes;952123;Chrome;112.0;Windows;10;undefined;undefined;1366 x 768;1366 x 768
H013;34;Mannelijk;Rechts;4;78;left;no;150;leftarrow;346;true;focus;yes;953225;Chrome;112.0;Windows;10;undefined;undefined;1366 x 768;1366 x 768
H013;34;Mannelijk;Rechts;4;79;right;no;150;rightarrow;352;true;focus;yes;954331;Chrome;112.0;Windows;10;undefined;undefined;1366 x 768;1366 x 768
H013;34;Mannelijk;Rechts;4;80;left;no;150;leftarrow;499;true;focus;yes;955586;Chrome;112.0;Windows;10;undefined;undefined;1366 x 768;1366 x 768
H013;34;Mannelijk;Rechts;4;81;right;no;150;rightarrow;380;true;focus;yes;956721;Chrome;112.0;Windows;10;undefined;undefined;1366 x 768;1366 x 768
H013;34;Mannelijk;Rechts;4;82;left;no;150;leftarrow;346;true;focus;yes;957824;Chrome;112.0;Windows;10;undefined;undefined;1366 x 768;1366 x 768
H013;34;Mannelijk;Rechts;4;83;left;no;150;leftarrow;397;true;focus;yes;958977;Chrome;112.0;Windows;10;undefined;undefined;1366 x 768;1366 x 768
H013;34;Mannelijk;Rechts;4;84;right;no;150;rightarrow;423;true;focus;yes;960157;Chrome;112.0;Windows;10;undefined;undefined;1366 x 768;1366 x 768
H013;34;Mannelijk;Rechts;4;85;left;yes;150;leftarrow;399;false;focus;yes;961311;Chrome;112.0;Windows;10;undefined;undefined;1366 x 768;1366 x 768
H013;34;Mannelijk;Rechts;4;86;right;no;100;rightarrow;339;true;focus;yes;962407;Chrome;112.0;Windows;10;undefined;undefined;1366 x 768;1366 x 768
H013;34;Mannelijk;Rechts;4;87;left;no;100;leftarrow;392;true;focus;yes;963554;Chrome;112.0;Windows;10;undefined;undefined;1366 x 768;1366 x 768
H013;34;Mannelijk;Rechts;4;88;right;yes;100;undefined;null;true;focus;yes;965560;Chrome;112.0;Windows;10;undefined;undefined;1366 x 768;1366 x 768
H013;34;Mannelijk;Rechts;4;89;left;no;150;leftarrow;353;true;focus;yes;966669;Chrome;112.0;Windows;10;undefined;undefined;1366 x 768;1366 x 768
H013;34;Mannelijk;Rechts;4;90;right;no;150;rightarrow;330;true;focus;yes;967756;Chrome;112.0;Windows;10;undefined;undefined;1366 x 768;1366 x 768
H013;34;Mannelijk;Rechts;4;91;right;no;150;rightarrow;403;true;focus;yes;968915;Chrome;112.0;Windows;10;undefined;undefined;1366 x 768;1366 x 768
H013;34;Mannelijk;Rechts;4;92;left;no;150;leftarrow;388;true;focus;yes;970060;Chrome;112.0;Windows;10;undefined;undefined;1366 x 768;1366 x 768
H013;34;Mannelijk;Rechts;4;93;right;no;150;rightarrow;390;true;focus;yes;971206;Chrome;112.0;Windows;10;undefined;undefined;1366 x 768;1366 x 768
H013;34;Mannelijk;Rechts;4;94;right;yes;150;rightarrow;399;false;focus;yes;972361;Chrome;112.0;Windows;10;undefined;undefined;1366 x 768;1366 x 768
H013;34;Mannelijk;Rechts;4;95;left;no;100;leftarrow;503;true;focus;yes;973621;Chrome;112.0;Windows;10;undefined;undefined;1366 x 768;1366 x 768
H013;34;Mannelijk;Rechts;4;96;left;yes;100;undefined;null;true;focus;yes;975629;Chrome;112.0;Windows;10;undefined;undefined;1366 x 768;1366 x 768
H013;34;Mannelijk;Rechts;4;97;left;no;150;leftarrow;388;true;focus;yes;976773;Chrome;112.0;Windows;10;undefined;undefined;1366 x 768;1366 x 768
H013;34;Mannelijk;Rechts;4;98;right;no;150;rightarrow;404;true;focus;yes;977931;Chrome;112.0;Windows;10;undefined;undefined;1366 x 768;1366 x 768
H013;34;Mannelijk;Rechts;4;99;left;no;150;leftarrow;522;true;focus;yes;979208;Chrome;112.0;Windows;10;undefined;undefined;1366 x 768;1366 x 768
H013;34;Mannelijk;Rechts;4;100;right;yes;150;rightarrow;384;false;focus;yes;980348;Chrome;112.0;Windows;10;undefined;undefined;1366 x 768;1366 x 768
H013;34;Mannelijk;Rechts;4;101;left;yes;100;undefined;null;true;focus;yes;982356;Chrome;112.0;Windows;10;undefined;undefined;1366 x 768;1366 x 768
H013;34;Mannelijk;Rechts;4;102;right;no;150;rightarrow;415;true;focus;yes;983526;Chrome;112.0;Windows;10;undefined;undefined;1366 x 768;1366 x 768
H013;34;Mannelijk;Rechts;4;103;left;no;150;leftarrow;511;true;focus;yes;984792;Chrome;112.0;Windows;10;undefined;undefined;1366 x 768;1366 x 768
H013;34;Mannelijk;Rechts;4;104;right;no;150;rightarrow;387;true;focus;yes;985935;Chrome;112.0;Windows;10;undefined;undefined;1366 x 768;1366 x 768
H013;34;Mannelijk;Rechts;4;105;left;no;150;leftarrow;413;true;focus;yes;987103;Chrome;112.0;Windows;10;undefined;undefined;1366 x 768;1366 x 768
H013;34;Mannelijk;Rechts;4;106;left;no;150;leftarrow;389;true;focus;yes;988248;Chrome;112.0;Windows;10;undefined;undefined;1366 x 768;1366 x 768
H013;34;Mannelijk;Rechts;4;107;right;no;150;rightarrow;420;true;focus;yes;989426;Chrome;112.0;Windows;10;undefined;undefined;1366 x 768;1366 x 768
H013;34;Mannelijk;Rechts;4;108;right;no;150;rightarrow;402;true;focus;yes;990583;Chrome;112.0;Windows;10;undefined;undefined;1366 x 768;1366 x 768
H013;34;Mannelijk;Rechts;4;109;right;yes;150;undefined;null;true;focus;yes;992591;Chrome;112.0;Windows;10;undefined;undefined;1366 x 768;1366 x 768
H013;34;Mannelijk;Rechts;4;110;left;no;200;leftarrow;410;true;focus;yes;993757;Chrome;112.0;Windows;10;undefined;undefined;1366 x 768;1366 x 768
H013;34;Mannelijk;Rechts;4;111;left;yes;200;leftarrow;346;false;focus;yes;994858;Chrome;112.0;Windows;10;undefined;undefined;1366 x 768;1366 x 768
H013;34;Mannelijk;Rechts;4;112;right;no;150;rightarrow;425;true;focus;yes;996038;Chrome;112.0;Windows;10;undefined;undefined;1366 x 768;1366 x 768
H013;34;Mannelijk;Rechts;4;113;left;yes;150;undefined;null;true;focus;yes;998044;Chrome;112.0;Windows;10;undefined;undefined;1366 x 768;1366 x 768
H013;34;Mannelijk;Rechts;4;114;left;no;200;leftarrow;442;true;focus;yes;999242;Chrome;112.0;Windows;10;undefined;undefined;1366 x 768;1366 x 768
H013;34;Mannelijk;Rechts;4;115;right;no;200;rightarrow;474;true;focus;yes;1000472;Chrome;112.0;Windows;10;undefined;undefined;1366 x 768;1366 x 768
H013;34;Mannelijk;Rechts;4;116;right;yes;200;rightarrow;383;false;focus;yes;1001610;Chrome;112.0;Windows;10;undefined;undefined;1366 x 768;1366 x 768
H013;34;Mannelijk;Rechts;4;117;right;no;150;rightarrow;423;true;focus;yes;1002788;Chrome;112.0;Windows;10;undefined;undefined;1366 x 768;1366 x 768
H013;34;Mannelijk;Rechts;4;118;right;no;150;rightarrow;407;true;focus;yes;1003951;Chrome;112.0;Windows;10;undefined;undefined;1366 x 768;1366 x 768
H013;34;Mannelijk;Rechts;4;119;left;no;150;leftarrow;338;true;focus;yes;1005046;Chrome;112.0;Windows;10;undefined;undefined;1366 x 768;1366 x 768
H013;34;Mannelijk;Rechts;4;120;left;no;150;leftarrow;361;true;focus;yes;1006162;Chrome;112.0;Windows;10;undefined;undefined;1366 x 768;1366 x 768
H013;34;Mannelijk;Rechts;4;121;left;no;150;leftarrow;398;true;focus;yes;1007316;Chrome;112.0;Windows;10;undefined;undefined;1366 x 768;1366 x 768
H013;34;Mannelijk;Rechts;4;122;left;no;150;leftarrow;397;true;focus;yes;1008468;Chrome;112.0;Windows;10;undefined;undefined;1366 x 768;1366 x 768
H013;34;Mannelijk;Rechts;4;123;left;no;150;leftarrow;417;true;focus;yes;1009640;Chrome;112.0;Windows;10;undefined;undefined;1366 x 768;1366 x 768
H013;34;Mannelijk;Rechts;4;124;left;yes;150;leftarrow;387;false;focus;yes;1010783;Chrome;112.0;Windows;10;undefined;undefined;1366 x 768;1366 x 768
H013;34;Mannelijk;Rechts;4;125;right;no;100;rightarrow;394;true;focus;yes;1011933;Chrome;112.0;Windows;10;undefined;undefined;1366 x 768;1366 x 768
H013;34;Mannelijk;Rechts;4;126;right;no;100;rightarrow;390;true;focus;yes;1013080;Chrome;112.0;Windows;10;undefined;undefined;1366 x 768;1366 x 768
H013;34;Mannelijk;Rechts;4;127;right;yes;100;undefined;null;true;focus;yes;1015087;Chrome;112.0;Windows;10;undefined;undefined;1366 x 768;1366 x 768
H013;34;Mannelijk;Rechts;4;128;right;no;150;rightarrow;729;true;focus;yes;1016571;Chrome;112.0;Windows;10;undefined;undefined;1366 x 768;1366 x 768
H013;34;Mannelijk;Rechts;5;1;right;yes;150;rightarrow;499;false;focus;yes;1036253;Chrome;112.0;Windows;10;undefined;undefined;1366 x 768;1366 x 768
H013;34;Mannelijk;Rechts;5;2;left;yes;100;undefined;null;true;focus;yes;1038261;Chrome;112.0;Windows;10;undefined;undefined;1366 x 768;1366 x 768
H013;34;Mannelijk;Rechts;5;3;right;no;150;rightarrow;400;true;focus;yes;1039418;Chrome;112.0;Windows;10;undefined;undefined;1366 x 768;1366 x 768
H013;34;Mannelijk;Rechts;5;4;left;no;150;leftarrow;399;true;focus;yes;1040574;Chrome;112.0;Windows;10;undefined;undefined;1366 x 768;1366 x 768
H013;34;Mannelijk;Rechts;5;5;right;no;150;rightarrow;381;true;focus;yes;1041710;Chrome;112.0;Windows;10;undefined;undefined;1366 x 768;1366 x 768
H013;34;Mannelijk;Rechts;5;6;left;no;150;leftarrow;372;true;focus;yes;1042841;Chrome;112.0;Windows;10;undefined;undefined;1366 x 768;1366 x 768
H013;34;Mannelijk;Rechts;5;7;left;no;150;leftarrow;343;true;focus;yes;1043942;Chrome;112.0;Windows;10;undefined;undefined;1366 x 768;1366 x 768
H013;34;Mannelijk;Rechts;5;8;right;no;150;rightarrow;370;true;focus;yes;1045068;Chrome;112.0;Windows;10;undefined;undefined;1366 x 768;1366 x 768
H013;34;Mannelijk;Rechts;5;9;left;no;150;leftarrow;425;true;focus;yes;1046249;Chrome;112.0;Windows;10;undefined;undefined;1366 x 768;1366 x 768
H013;34;Mannelijk;Rechts;5;10;right;no;150;rightarrow;340;true;focus;yes;1047344;Chrome;112.0;Windows;10;undefined;undefined;1366 x 768;1366 x 768
H013;34;Mannelijk;Rechts;5;11;left;no;150;leftarrow;397;true;focus;yes;1048497;Chrome;112.0;Windows;10;undefined;undefined;1366 x 768;1366 x 768
H013;34;Mannelijk;Rechts;5;12;right;no;150;leftarrow;333;false;focus;yes;1049586;Chrome;112.0;Windows;10;undefined;undefined;1366 x 768;1366 x 768
H013;34;Mannelijk;Rechts;5;13;left;yes;150;leftarrow;293;false;focus;yes;1050637;Chrome;112.0;Windows;10;undefined;undefined;1366 x 768;1366 x 768
H013;34;Mannelijk;Rechts;5;14;left;no;100;rightarrow;248;false;focus;yes;1051641;Chrome;112.0;Windows;10;undefined;undefined;1366 x 768;1366 x 768
H013;34;Mannelijk;Rechts;5;15;right;no;100;rightarrow;411;true;focus;yes;1052809;Chrome;112.0;Windows;10;undefined;undefined;1366 x 768;1366 x 768
H013;34;Mannelijk;Rechts;5;16;right;yes;100;rightarrow;305;false;focus;yes;1053870;Chrome;112.0;Windows;10;undefined;undefined;1366 x 768;1366 x 768
H013;34;Mannelijk;Rechts;5;17;right;no;50;rightarrow;388;true;focus;yes;1055014;Chrome;112.0;Windows;10;undefined;undefined;1366 x 768;1366 x 768
H013;34;Mannelijk;Rechts;5;18;left;no;50;rightarrow;262;false;focus;yes;1056032;Chrome;112.0;Windows;10;undefined;undefined;1366 x 768;1366 x 768
H013;34;Mannelijk;Rechts;5;19;left;yes;50;leftarrow;533;false;focus;yes;1057320;Chrome;112.0;Windows;10;undefined;undefined;1366 x 768;1366 x 768
H013;34;Mannelijk;Rechts;5;20;right;no;50;rightarrow;311;true;focus;yes;1058388;Chrome;112.0;Windows;10;undefined;undefined;1366 x 768;1366 x 768
H013;34;Mannelijk;Rechts;5;21;right;no;50;rightarrow;390;true;focus;yes;1059536;Chrome;112.0;Windows;10;undefined;undefined;1366 x 768;1366 x 768
H013;34;Mannelijk;Rechts;5;22;right;yes;50;rightarrow;493;false;focus;yes;1060785;Chrome;112.0;Windows;10;undefined;undefined;1366 x 768;1366 x 768
H013;34;Mannelijk;Rechts;5;23;left;no;50;leftarrow;355;true;focus;yes;1061896;Chrome;112.0;Windows;10;undefined;undefined;1366 x 768;1366 x 768
H013;34;Mannelijk;Rechts;5;24;left;no;50;leftarrow;532;true;focus;yes;1063184;Chrome;112.0;Windows;10;undefined;undefined;1366 x 768;1366 x 768
H013;34;Mannelijk;Rechts;5;25;left;no;50;leftarrow;420;true;focus;yes;1064359;Chrome;112.0;Windows;10;undefined;undefined;1366 x 768;1366 x 768
H013;34;Mannelijk;Rechts;5;26;right;no;50;rightarrow;374;true;focus;yes;1065488;Chrome;112.0;Windows;10;undefined;undefined;1366 x 768;1366 x 768
H013;34;Mannelijk;Rechts;5;27;left;no;50;leftarrow;338;true;focus;yes;1066583;Chrome;112.0;Windows;10;undefined;undefined;1366 x 768;1366 x 768
H013;34;Mannelijk;Rechts;5;28;left;no;50;leftarrow;377;true;focus;yes;1067715;Chrome;112.0;Windows;10;undefined;undefined;1366 x 768;1366 x 768
H013;34;Mannelijk;Rechts;5;29;right;no;50;rightarrow;383;true;focus;yes;1068855;Chrome;112.0;Windows;10;undefined;undefined;1366 x 768;1366 x 768
H013;34;Mannelijk;Rechts;5;30;right;no;50;rightarrow;528;true;focus;yes;1070139;Chrome;112.0;Windows;10;undefined;undefined;1366 x 768;1366 x 768
H013;34;Mannelijk;Rechts;5;31;left;yes;50;undefined;null;true;focus;yes;1072146;Chrome;112.0;Windows;10;undefined;undefined;1366 x 768;1366 x 768
H013;34;Mannelijk;Rechts;5;32;right;yes;100;rightarrow;405;false;focus;yes;1073307;Chrome;112.0;Windows;10;undefined;undefined;1366 x 768;1366 x 768
H013;34;Mannelijk;Rechts;5;33;left;no;50;rightarrow;473;false;focus;yes;1074535;Chrome;112.0;Windows;10;undefined;undefined;1366 x 768;1366 x 768
H013;34;Mannelijk;Rechts;5;34;right;no;50;rightarrow;468;true;focus;yes;1075759;Chrome;112.0;Windows;10;undefined;undefined;1366 x 768;1366 x 768
H013;34;Mannelijk;Rechts;5;35;right;yes;50;undefined;null;true;focus;yes;1077767;Chrome;112.0;Windows;10;undefined;undefined;1366 x 768;1366 x 768
H013;34;Mannelijk;Rechts;5;36;left;yes;100;undefined;null;true;focus;yes;1079773;Chrome;112.0;Windows;10;undefined;undefined;1366 x 768;1366 x 768
H013;34;Mannelijk;Rechts;5;37;right;no;150;rightarrow;450;true;focus;yes;1080982;Chrome;112.0;Windows;10;undefined;undefined;1366 x 768;1366 x 768
H013;34;Mannelijk;Rechts;5;38;left;no;150;leftarrow;266;true;focus;yes;1082005;Chrome;112.0;Windows;10;undefined;undefined;1366 x 768;1366 x 768
H013;34;Mannelijk;Rechts;5;39;right;no;150;rightarrow;300;true;focus;yes;1083062;Chrome;112.0;Windows;10;undefined;undefined;1366 x 768;1366 x 768
H013;34;Mannelijk;Rechts;5;40;left;no;150;leftarrow;300;true;focus;yes;1084118;Chrome;112.0;Windows;10;undefined;undefined;1366 x 768;1366 x 768
H013;34;Mannelijk;Rechts;5;41;right;no;150;rightarrow;317;true;focus;yes;1085194;Chrome;112.0;Windows;10;undefined;undefined;1366 x 768;1366 x 768
H013;34;Mannelijk;Rechts;5;42;right;no;150;rightarrow;420;true;focus;yes;1086372;Chrome;112.0;Windows;10;undefined;undefined;1366 x 768;1366 x 768
H013;34;Mannelijk;Rechts;5;43;right;yes;150;rightarrow;383;false;focus;yes;1087511;Chrome;112.0;Windows;10;undefined;undefined;1366 x 768;1366 x 768
H013;34;Mannelijk;Rechts;5;44;right;no;100;rightarrow;595;true;focus;yes;1088863;Chrome;112.0;Windows;10;undefined;undefined;1366 x 768;1366 x 768
H013;34;Mannelijk;Rechts;5;45;left;no;100;leftarrow;482;true;focus;yes;1090102;Chrome;112.0;Windows;10;undefined;undefined;1366 x 768;1366 x 768
H013;34;Mannelijk;Rechts;5;46;left;yes;100;undefined;null;true;focus;yes;1092113;Chrome;112.0;Windows;10;undefined;undefined;1366 x 768;1366 x 768
H013;34;Mannelijk;Rechts;5;47;left;no;150;leftarrow;398;true;focus;yes;1093267;Chrome;112.0;Windows;10;undefined;undefined;1366 x 768;1366 x 768
H013;34;Mannelijk;Rechts;5;48;left;no;150;leftarrow;352;true;focus;yes;1094375;Chrome;112.0;Windows;10;undefined;undefined;1366 x 768;1366 x 768
H013;34;Mannelijk;Rechts;5;49;right;no;150;rightarrow;328;true;focus;yes;1095459;Chrome;112.0;Windows;10;undefined;undefined;1366 x 768;1366 x 768
H013;34;Mannelijk;Rechts;5;50;left;no;150;leftarrow;376;true;focus;yes;1096591;Chrome;112.0;Windows;10;undefined;undefined;1366 x 768;1366 x 768
H013;34;Mannelijk;Rechts;5;51;left;no;150;leftarrow;385;true;focus;yes;1097734;Chrome;112.0;Windows;10;undefined;undefined;1366 x 768;1366 x 768
H013;34;Mannelijk;Rechts;5;52;right;no;150;rightarrow;371;true;focus;yes;1098862;Chrome;112.0;Windows;10;undefined;undefined;1366 x 768;1366 x 768
H013;34;Mannelijk;Rechts;5;53;right;no;150;rightarrow;330;true;focus;yes;1099949;Chrome;112.0;Windows;10;undefined;undefined;1366 x 768;1366 x 768
H013;34;Mannelijk;Rechts;5;54;left;yes;150;leftarrow;369;false;focus;yes;1101075;Chrome;112.0;Windows;10;undefined;undefined;1366 x 768;1366 x 768
H013;34;Mannelijk;Rechts;5;55;left;no;100;rightarrow;502;false;focus;yes;1102332;Chrome;112.0;Windows;10;undefined;undefined;1366 x 768;1366 x 768
H013;34;Mannelijk;Rechts;5;56;right;yes;100;undefined;null;true;focus;yes;1104338;Chrome;112.0;Windows;10;undefined;undefined;1366 x 768;1366 x 768
H013;34;Mannelijk;Rechts;5;57;left;no;150;rightarrow;251;false;focus;yes;1105344;Chrome;112.0;Windows;10;undefined;undefined;1366 x 768;1366 x 768
H013;34;Mannelijk;Rechts;5;58;left;no;150;leftarrow;415;true;focus;yes;1106514;Chrome;112.0;Windows;10;undefined;undefined;1366 x 768;1366 x 768
H013;34;Mannelijk;Rechts;5;59;right;no;150;rightarrow;390;true;focus;yes;1107660;Chrome;112.0;Windows;10;undefined;undefined;1366 x 768;1366 x 768
H013;34;Mannelijk;Rechts;5;60;right;no;150;rightarrow;393;true;focus;yes;1108811;Chrome;112.0;Windows;10;undefined;undefined;1366 x 768;1366 x 768
H013;34;Mannelijk;Rechts;5;61;right;no;150;rightarrow;384;true;focus;yes;1109951;Chrome;112.0;Windows;10;undefined;undefined;1366 x 768;1366 x 768
H013;34;Mannelijk;Rechts;5;62;left;no;150;leftarrow;389;true;focus;yes;1111096;Chrome;112.0;Windows;10;undefined;undefined;1366 x 768;1366 x 768
H013;34;Mannelijk;Rechts;5;63;left;yes;150;undefined;null;true;focus;yes;1113102;Chrome;112.0;Windows;10;undefined;undefined;1366 x 768;1366 x 768
H013;34;Mannelijk;Rechts;5;64;right;yes;200;undefined;null;true;focus;yes;1115109;Chrome;112.0;Windows;10;undefined;undefined;1366 x 768;1366 x 768
H013;34;Mannelijk;Rechts;5;65;left;no;250;leftarrow;483;true;focus;yes;1116348;Chrome;112.0;Windows;10;undefined;undefined;1366 x 768;1366 x 768
H013;34;Mannelijk;Rechts;5;66;right;no;250;rightarrow;389;true;focus;yes;1117492;Chrome;112.0;Windows;10;undefined;undefined;1366 x 768;1366 x 768
H013;34;Mannelijk;Rechts;5;67;right;no;250;rightarrow;411;true;focus;yes;1118660;Chrome;112.0;Windows;10;undefined;undefined;1366 x 768;1366 x 768
H013;34;Mannelijk;Rechts;5;68;left;yes;250;leftarrow;405;false;focus;yes;1119823;Chrome;112.0;Windows;10;undefined;undefined;1366 x 768;1366 x 768
H013;34;Mannelijk;Rechts;5;69;right;yes;200;undefined;null;true;focus;yes;1121831;Chrome;112.0;Windows;10;undefined;undefined;1366 x 768;1366 x 768
H013;34;Mannelijk;Rechts;5;70;left;no;250;leftarrow;398;true;focus;yes;1122986;Chrome;112.0;Windows;10;undefined;undefined;1366 x 768;1366 x 768
H013;34;Mannelijk;Rechts;5;71;left;no;250;leftarrow;365;true;focus;yes;1124109;Chrome;112.0;Windows;10;undefined;undefined;1366 x 768;1366 x 768
H013;34;Mannelijk;Rechts;5;72;right;no;250;rightarrow;400;true;focus;yes;1125266;Chrome;112.0;Windows;10;undefined;undefined;1366 x 768;1366 x 768
H013;34;Mannelijk;Rechts;5;73;left;no;250;leftarrow;443;true;focus;yes;1126468;Chrome;112.0;Windows;10;undefined;undefined;1366 x 768;1366 x 768
H013;34;Mannelijk;Rechts;5;74;right;yes;250;leftarrow;383;false;focus;yes;1127607;Chrome;112.0;Windows;10;undefined;undefined;1366 x 768;1366 x 768
H013;34;Mannelijk;Rechts;5;75;left;no;200;leftarrow;386;true;focus;yes;1128751;Chrome;112.0;Windows;10;undefined;undefined;1366 x 768;1366 x 768
H013;34;Mannelijk;Rechts;5;76;right;no;200;rightarrow;583;true;focus;yes;1130090;Chrome;112.0;Windows;10;undefined;undefined;1366 x 768;1366 x 768
H013;34;Mannelijk;Rechts;5;77;right;no;200;rightarrow;339;true;focus;yes;1131186;Chrome;112.0;Windows;10;undefined;undefined;1366 x 768;1366 x 768
H013;34;Mannelijk;Rechts;5;78;left;no;200;leftarrow;431;true;focus;yes;1132373;Chrome;112.0;Windows;10;undefined;undefined;1366 x 768;1366 x 768
H013;34;Mannelijk;Rechts;5;79;right;no;200;rightarrow;368;true;focus;yes;1133497;Chrome;112.0;Windows;10;undefined;undefined;1366 x 768;1366 x 768
H013;34;Mannelijk;Rechts;5;80;left;yes;200;leftarrow;383;false;focus;yes;1134636;Chrome;112.0;Windows;10;undefined;undefined;1366 x 768;1366 x 768
H013;34;Mannelijk;Rechts;5;81;right;yes;150;undefined;null;true;focus;yes;1136643;Chrome;112.0;Windows;10;undefined;undefined;1366 x 768;1366 x 768
H013;34;Mannelijk;Rechts;5;82;left;no;200;leftarrow;418;true;focus;yes;1137818;Chrome;112.0;Windows;10;undefined;undefined;1366 x 768;1366 x 768
H013;34;Mannelijk;Rechts;5;83;right;no;200;rightarrow;339;true;focus;yes;1138913;Chrome;112.0;Windows;10;undefined;undefined;1366 x 768;1366 x 768
H013;34;Mannelijk;Rechts;5;84;right;no;200;rightarrow;355;true;focus;yes;1140026;Chrome;112.0;Windows;10;undefined;undefined;1366 x 768;1366 x 768
H013;34;Mannelijk;Rechts;5;85;right;no;200;rightarrow;404;true;focus;yes;1141187;Chrome;112.0;Windows;10;undefined;undefined;1366 x 768;1366 x 768
H013;34;Mannelijk;Rechts;5;86;left;no;200;leftarrow;479;true;focus;yes;1142423;Chrome;112.0;Windows;10;undefined;undefined;1366 x 768;1366 x 768
H013;34;Mannelijk;Rechts;5;87;left;yes;200;leftarrow;383;false;focus;yes;1143561;Chrome;112.0;Windows;10;undefined;undefined;1366 x 768;1366 x 768
H013;34;Mannelijk;Rechts;5;88;left;no;150;leftarrow;523;true;focus;yes;1144841;Chrome;112.0;Windows;10;undefined;undefined;1366 x 768;1366 x 768
H013;34;Mannelijk;Rechts;5;89;left;no;150;leftarrow;364;true;focus;yes;1145963;Chrome;112.0;Windows;10;undefined;undefined;1366 x 768;1366 x 768
H013;34;Mannelijk;Rechts;5;90;left;yes;150;undefined;null;true;focus;yes;1147971;Chrome;112.0;Windows;10;undefined;undefined;1366 x 768;1366 x 768
H013;34;Mannelijk;Rechts;5;91;right;no;200;rightarrow;322;true;focus;yes;1149050;Chrome;112.0;Windows;10;undefined;undefined;1366 x 768;1366 x 768
H013;34;Mannelijk;Rechts;5;92;right;no;200;rightarrow;359;true;focus;yes;1150167;Chrome;112.0;Windows;10;undefined;undefined;1366 x 768;1366 x 768
H013;34;Mannelijk;Rechts;5;93;right;no;200;rightarrow;564;true;focus;yes;1151488;Chrome;112.0;Windows;10;undefined;undefined;1366 x 768;1366 x 768
H013;34;Mannelijk;Rechts;5;94;left;no;200;leftarrow;414;true;focus;yes;1152658;Chrome;112.0;Windows;10;undefined;undefined;1366 x 768;1366 x 768
H013;34;Mannelijk;Rechts;5;95;right;yes;200;rightarrow;422;false;focus;yes;1153836;Chrome;112.0;Windows;10;undefined;undefined;1366 x 768;1366 x 768
H013;34;Mannelijk;Rechts;5;96;left;no;150;leftarrow;365;true;focus;yes;1154958;Chrome;112.0;Windows;10;undefined;undefined;1366 x 768;1366 x 768
H013;34;Mannelijk;Rechts;5;97;right;no;150;rightarrow;607;true;focus;yes;1156322;Chrome;112.0;Windows;10;undefined;undefined;1366 x 768;1366 x 768
H013;34;Mannelijk;Rechts;5;98;right;no;150;rightarrow;433;true;focus;yes;1157511;Chrome;112.0;Windows;10;undefined;undefined;1366 x 768;1366 x 768
H013;34;Mannelijk;Rechts;5;99;left;no;150;leftarrow;511;true;focus;yes;1158778;Chrome;112.0;Windows;10;undefined;undefined;1366 x 768;1366 x 768
H013;34;Mannelijk;Rechts;5;100;left;yes;150;undefined;null;true;focus;yes;1160786;Chrome;112.0;Windows;10;undefined;undefined;1366 x 768;1366 x 768
H013;34;Mannelijk;Rechts;5;101;left;no;200;leftarrow;459;true;focus;yes;1162004;Chrome;112.0;Windows;10;undefined;undefined;1366 x 768;1366 x 768
H013;34;Mannelijk;Rechts;5;102;right;no;200;rightarrow;435;true;focus;yes;1163199;Chrome;112.0;Windows;10;undefined;undefined;1366 x 768;1366 x 768
H013;34;Mannelijk;Rechts;5;103;left;no;200;leftarrow;412;true;focus;yes;1164367;Chrome;112.0;Windows;10;undefined;undefined;1366 x 768;1366 x 768
H013;34;Mannelijk;Rechts;5;104;right;yes;200;rightarrow;405;false;focus;yes;1165529;Chrome;112.0;Windows;10;undefined;undefined;1366 x 768;1366 x 768
H013;34;Mannelijk;Rechts;5;105;left;no;150;leftarrow;483;true;focus;yes;1166768;Chrome;112.0;Windows;10;undefined;undefined;1366 x 768;1366 x 768
H013;34;Mannelijk;Rechts;5;106;right;no;150;rightarrow;415;true;focus;yes;1167939;Chrome;112.0;Windows;10;undefined;undefined;1366 x 768;1366 x 768
H013;34;Mannelijk;Rechts;5;107;left;yes;150;undefined;null;true;focus;yes;1169948;Chrome;112.0;Windows;10;undefined;undefined;1366 x 768;1366 x 768
H013;34;Mannelijk;Rechts;5;108;right;no;200;rightarrow;382;true;focus;yes;1171086;Chrome;112.0;Windows;10;undefined;undefined;1366 x 768;1366 x 768
H013;34;Mannelijk;Rechts;5;109;left;no;200;leftarrow;435;true;focus;yes;1172277;Chrome;112.0;Windows;10;undefined;undefined;1366 x 768;1366 x 768
H013;34;Mannelijk;Rechts;5;110;left;no;200;leftarrow;468;true;focus;yes;1173501;Chrome;112.0;Windows;10;undefined;undefined;1366 x 768;1366 x 768
H013;34;Mannelijk;Rechts;5;111;right;yes;200;undefined;null;true;focus;yes;1175508;Chrome;112.0;Windows;10;undefined;undefined;1366 x 768;1366 x 768
H013;34;Mannelijk;Rechts;5;112;right;no;250;rightarrow;560;true;focus;yes;1176824;Chrome;112.0;Windows;10;undefined;undefined;1366 x 768;1366 x 768
H013;34;Mannelijk;Rechts;5;113;right;no;250;rightarrow;399;true;focus;yes;1177979;Chrome;112.0;Windows;10;undefined;undefined;1366 x 768;1366 x 768
H013;34;Mannelijk;Rechts;5;114;left;yes;250;leftarrow;438;false;focus;yes;1179175;Chrome;112.0;Windows;10;undefined;undefined;1366 x 768;1366 x 768
H013;34;Mannelijk;Rechts;5;115;left;no;200;leftarrow;472;true;focus;yes;1180403;Chrome;112.0;Windows;10;undefined;undefined;1366 x 768;1366 x 768
H013;34;Mannelijk;Rechts;5;116;right;yes;200;rightarrow;419;false;focus;yes;1181578;Chrome;112.0;Windows;10;undefined;undefined;1366 x 768;1366 x 768
H013;34;Mannelijk;Rechts;5;117;left;no;150;leftarrow;395;true;focus;yes;1182730;Chrome;112.0;Windows;10;undefined;undefined;1366 x 768;1366 x 768
H013;34;Mannelijk;Rechts;5;118;left;no;150;leftarrow;496;true;focus;yes;1183982;Chrome;112.0;Windows;10;undefined;undefined;1366 x 768;1366 x 768
H013;34;Mannelijk;Rechts;5;119;right;no;150;rightarrow;405;true;focus;yes;1185142;Chrome;112.0;Windows;10;undefined;undefined;1366 x 768;1366 x 768
H013;34;Mannelijk;Rechts;5;120;right;no;150;rightarrow;405;true;focus;yes;1186304;Chrome;112.0;Windows;10;undefined;undefined;1366 x 768;1366 x 768
H013;34;Mannelijk;Rechts;5;121;left;no;150;leftarrow;445;true;focus;yes;1187505;Chrome;112.0;Windows;10;undefined;undefined;1366 x 768;1366 x 768
H013;34;Mannelijk;Rechts;5;122;right;yes;150;undefined;null;true;focus;yes;1189512;Chrome;112.0;Windows;10;undefined;undefined;1366 x 768;1366 x 768
H013;34;Mannelijk;Rechts;5;123;right;no;200;rightarrow;473;true;focus;yes;1190741;Chrome;112.0;Windows;10;undefined;undefined;1366 x 768;1366 x 768
H013;34;Mannelijk;Rechts;5;124;left;no;200;leftarrow;399;true;focus;yes;1191897;Chrome;112.0;Windows;10;undefined;undefined;1366 x 768;1366 x 768
H013;34;Mannelijk;Rechts;5;125;right;no;200;rightarrow;429;true;focus;yes;1193083;Chrome;112.0;Windows;10;undefined;undefined;1366 x 768;1366 x 768
H013;34;Mannelijk;Rechts;5;126;right;no;200;rightarrow;455;true;focus;yes;1194294;Chrome;112.0;Windows;10;undefined;undefined;1366 x 768;1366 x 768
H013;34;Mannelijk;Rechts;5;127;left;no;200;rightarrow;436;false;focus;yes;1195490;Chrome;112.0;Windows;10;undefined;undefined;1366 x 768;1366 x 768
H013;34;Mannelijk;Rechts;5;128;left;yes;200;leftarrow;425;false;focus;yes;1196672;Chrome;112.0;Windows;10;undefined;undefined;1366 x 768;1366 x 768
H013;34;Mannelijk;Rechts;6;1;right;no;150;rightarrow;456;true;focus;yes;1216645;Chrome;112.0;Windows;10;undefined;undefined;1366 x 768;1366 x 768
H013;34;Mannelijk;Rechts;6;2;left;no;150;leftarrow;393;true;focus;yes;1217795;Chrome;112.0;Windows;10;undefined;undefined;1366 x 768;1366 x 768
H013;34;Mannelijk;Rechts;6;3;right;no;150;rightarrow;419;true;focus;yes;1218969;Chrome;112.0;Windows;10;undefined;undefined;1366 x 768;1366 x 768
H013;34;Mannelijk;Rechts;6;4;right;yes;150;rightarrow;390;false;focus;yes;1220115;Chrome;112.0;Windows;10;undefined;undefined;1366 x 768;1366 x 768
H013;34;Mannelijk;Rechts;6;5;left;no;100;leftarrow;413;true;focus;yes;1221286;Chrome;112.0;Windows;10;undefined;undefined;1366 x 768;1366 x 768
H013;34;Mannelijk;Rechts;6;6;right;no;100;rightarrow;403;true;focus;yes;1222447;Chrome;112.0;Windows;10;undefined;undefined;1366 x 768;1366 x 768
H013;34;Mannelijk;Rechts;6;7;left;no;100;leftarrow;414;true;focus;yes;1223619;Chrome;112.0;Windows;10;undefined;undefined;1366 x 768;1366 x 768
H013;34;Mannelijk;Rechts;6;8;left;yes;100;undefined;null;true;focus;yes;1225626;Chrome;112.0;Windows;10;undefined;undefined;1366 x 768;1366 x 768
H013;34;Mannelijk;Rechts;6;9;right;no;150;rightarrow;350;true;focus;yes;1226734;Chrome;112.0;Windows;10;undefined;undefined;1366 x 768;1366 x 768
H013;34;Mannelijk;Rechts;6;10;right;yes;150;rightarrow;367;false;focus;yes;1227859;Chrome;112.0;Windows;10;undefined;undefined;1366 x 768;1366 x 768
H013;34;Mannelijk;Rechts;6;11;left;no;100;leftarrow;390;true;focus;yes;1229006;Chrome;112.0;Windows;10;undefined;undefined;1366 x 768;1366 x 768
H013;34;Mannelijk;Rechts;6;12;right;no;100;rightarrow;449;true;focus;yes;1230213;Chrome;112.0;Windows;10;undefined;undefined;1366 x 768;1366 x 768
H013;34;Mannelijk;Rechts;6;13;left;yes;100;undefined;null;true;focus;yes;1232222;Chrome;112.0;Windows;10;undefined;undefined;1366 x 768;1366 x 768
H013;34;Mannelijk;Rechts;6;14;right;no;150;rightarrow;364;true;focus;yes;1233343;Chrome;112.0;Windows;10;undefined;undefined;1366 x 768;1366 x 768
H013;34;Mannelijk;Rechts;6;15;left;no;150;leftarrow;372;true;focus;yes;1234472;Chrome;112.0;Windows;10;undefined;undefined;1366 x 768;1366 x 768
H013;34;Mannelijk;Rechts;6;16;left;no;150;leftarrow;472;true;focus;yes;1235702;Chrome;112.0;Windows;10;undefined;undefined;1366 x 768;1366 x 768
H013;34;Mannelijk;Rechts;6;17;right;no;150;rightarrow;408;true;focus;yes;1236867;Chrome;112.0;Windows;10;undefined;undefined;1366 x 768;1366 x 768
H013;34;Mannelijk;Rechts;6;18;left;yes;150;undefined;null;true;focus;yes;1238874;Chrome;112.0;Windows;10;undefined;undefined;1366 x 768;1366 x 768
H013;34;Mannelijk;Rechts;6;19;left;no;200;leftarrow;447;true;focus;yes;1240078;Chrome;112.0;Windows;10;undefined;undefined;1366 x 768;1366 x 768
H013;34;Mannelijk;Rechts;6;20;left;no;200;leftarrow;348;true;focus;yes;1241182;Chrome;112.0;Windows;10;undefined;undefined;1366 x 768;1366 x 768
H013;34;Mannelijk;Rechts;6;21;left;no;200;leftarrow;373;true;focus;yes;1242313;Chrome;112.0;Windows;10;undefined;undefined;1366 x 768;1366 x 768
H013;34;Mannelijk;Rechts;6;22;right;no;200;rightarrow;478;true;focus;yes;1243548;Chrome;112.0;Windows;10;undefined;undefined;1366 x 768;1366 x 768
H013;34;Mannelijk;Rechts;6;23;right;no;200;rightarrow;527;true;focus;yes;1244831;Chrome;112.0;Windows;10;undefined;undefined;1366 x 768;1366 x 768
H013;34;Mannelijk;Rechts;6;24;right;yes;200;rightarrow;399;false;focus;yes;1245987;Chrome;112.0;Windows;10;undefined;undefined;1366 x 768;1366 x 768
H013;34;Mannelijk;Rechts;6;25;left;yes;150;leftarrow;390;false;focus;yes;1247134;Chrome;112.0;Windows;10;undefined;undefined;1366 x 768;1366 x 768
H013;34;Mannelijk;Rechts;6;26;left;no;100;leftarrow;461;true;focus;yes;1248354;Chrome;112.0;Windows;10;undefined;undefined;1366 x 768;1366 x 768
H013;34;Mannelijk;Rechts;6;27;left;no;100;leftarrow;632;true;focus;yes;1249744;Chrome;112.0;Windows;10;undefined;undefined;1366 x 768;1366 x 768
H013;34;Mannelijk;Rechts;6;28;right;yes;100;undefined;null;true;focus;yes;1251752;Chrome;112.0;Windows;10;undefined;undefined;1366 x 768;1366 x 768
H013;34;Mannelijk;Rechts;6;29;right;no;150;rightarrow;391;true;focus;yes;1252900;Chrome;112.0;Windows;10;undefined;undefined;1366 x 768;1366 x 768
H013;34;Mannelijk;Rechts;6;30;left;no;150;leftarrow;391;true;focus;yes;1254049;Chrome;112.0;Windows;10;undefined;undefined;1366 x 768;1366 x 768
H013;34;Mannelijk;Rechts;6;31;right;no;150;rightarrow;377;true;focus;yes;1255181;Chrome;112.0;Windows;10;undefined;undefined;1366 x 768;1366 x 768
H013;34;Mannelijk;Rechts;6;32;right;no;150;rightarrow;418;true;focus;yes;1256357;Chrome;112.0;Windows;10;undefined;undefined;1366 x 768;1366 x 768
H013;34;Mannelijk;Rechts;6;33;left;no;150;leftarrow;490;true;focus;yes;1257606;Chrome;112.0;Windows;10;undefined;undefined;1366 x 768;1366 x 768
H013;34;Mannelijk;Rechts;6;34;right;yes;150;undefined;null;true;focus;yes;1259614;Chrome;112.0;Windows;10;undefined;undefined;1366 x 768;1366 x 768
H013;34;Mannelijk;Rechts;6;35;left;no;200;leftarrow;319;true;focus;yes;1260689;Chrome;112.0;Windows;10;undefined;undefined;1366 x 768;1366 x 768
H013;34;Mannelijk;Rechts;6;36;left;no;200;leftarrow;358;true;focus;yes;1261804;Chrome;112.0;Windows;10;undefined;undefined;1366 x 768;1366 x 768
H013;34;Mannelijk;Rechts;6;37;right;no;200;rightarrow;452;true;focus;yes;1263012;Chrome;112.0;Windows;10;undefined;undefined;1366 x 768;1366 x 768
H013;34;Mannelijk;Rechts;6;38;right;no;200;rightarrow;379;true;focus;yes;1264148;Chrome;112.0;Windows;10;undefined;undefined;1366 x 768;1366 x 768
H013;34;Mannelijk;Rechts;6;39;left;yes;200;leftarrow;408;false;focus;yes;1265312;Chrome;112.0;Windows;10;undefined;undefined;1366 x 768;1366 x 768
H013;34;Mannelijk;Rechts;6;40;right;no;150;rightarrow;380;true;focus;yes;1266449;Chrome;112.0;Windows;10;undefined;undefined;1366 x 768;1366 x 768
H013;34;Mannelijk;Rechts;6;41;left;no;150;leftarrow;397;true;focus;yes;1267602;Chrome;112.0;Windows;10;undefined;undefined;1366 x 768;1366 x 768
H013;34;Mannelijk;Rechts;6;42;right;no;150;rightarrow;403;true;focus;yes;1268762;Chrome;112.0;Windows;10;undefined;undefined;1366 x 768;1366 x 768
H013;34;Mannelijk;Rechts;6;43;left;no;150;leftarrow;412;true;focus;yes;1269931;Chrome;112.0;Windows;10;undefined;undefined;1366 x 768;1366 x 768
H013;34;Mannelijk;Rechts;6;44;right;yes;150;undefined;null;true;focus;yes;1271939;Chrome;112.0;Windows;10;undefined;undefined;1366 x 768;1366 x 768
H013;34;Mannelijk;Rechts;6;45;left;yes;200;leftarrow;400;false;focus;yes;1273095;Chrome;112.0;Windows;10;undefined;undefined;1366 x 768;1366 x 768
