participantID;age;gender;handedness;block_i;trial_i;stim;signal;SSD;response;rt;correct;focus;Fullscreen;time_elapsed;browser_name;browser_version;os_name;os_version;tablet;mobile;screen_resolution;window_resolution
H014;32;Mannelijk;Rechts;0;1;left;no;200;leftarrow;454;true;focus;yes;90683;Chrome;112.0;Windows;10;undefined;undefined;2560 x 1440;2560 x 1440
H014;32;Mannelijk;Rechts;0;2;right;no;200;rightarrow;259;true;focus;yes;92466;Chrome;112.0;Windows;10;undefined;undefined;2560 x 1440;2560 x 1440
H014;32;Mannelijk;Rechts;0;3;left;no;200;leftarrow;348;true;focus;yes;94355;Chrome;112.0;Windows;10;undefined;undefined;2560 x 1440;2560 x 1440
H014;32;Mannelijk;Rechts;0;4;right;yes;200;rightarrow;296;false;focus;yes;96183;Chrome;112.0;Windows;10;undefined;undefined;2560 x 1440;2560 x 1440
H014;32;Mannelijk;Rechts;0;5;right;no;150;rightarrow;373;true;focus;yes;98081;Chrome;112.0;Windows;10;undefined;undefined;2560 x 1440;2560 x 1440
H014;32;Mannelijk;Rechts;0;6;right;no;150;rightarrow;341;true;focus;yes;99943;Chrome;112.0;Windows;10;undefined;undefined;2560 x 1440;2560 x 1440
H014;32;Mannelijk;Rechts;0;7;left;yes;150;undefined;null;true;focus;yes;102715;Chrome;112.0;Windows;10;undefined;undefined;2560 x 1440;2560 x 1440
H014;32;Mannelijk;Rechts;0;8;left;no;200;leftarrow;441;true;focus;yes;104681;Chrome;112.0;Windows;10;undefined;undefined;2560 x 1440;2560 x 1440
H014;32;Mannelijk;Rechts;1;1;right;no;200;rightarrow;383;true;focus;yes;124860;Chrome;112.0;Windows;10;undefined;undefined;2560 x 1440;2560 x 1440
H014;32;Mannelijk;Rechts;1;2;right;yes;200;undefined;null;true;focus;yes;126888;Chrome;112.0;Windows;10;undefined;undefined;2560 x 1440;2560 x 1440
H014;32;Mannelijk;Rechts;1;3;left;no;250;leftarrow;636;true;focus;yes;128306;Chrome;112.0;Windows;10;undefined;undefined;2560 x 1440;2560 x 1440
H014;32;Mannelijk;Rechts;1;4;left;no;250;leftarrow;448;true;focus;yes;129531;Chrome;112.0;Windows;10;undefined;undefined;2560 x 1440;2560 x 1440
H014;32;Mannelijk;Rechts;1;5;left;yes;250;undefined;null;true;focus;yes;131554;Chrome;112.0;Windows;10;undefined;undefined;2560 x 1440;2560 x 1440
H014;32;Mannelijk;Rechts;1;6;right;no;300;rightarrow;466;true;focus;yes;132785;Chrome;112.0;Windows;10;undefined;undefined;2560 x 1440;2560 x 1440
H014;32;Mannelijk;Rechts;1;7;right;no;300;rightarrow;594;true;focus;yes;134157;Chrome;112.0;Windows;10;undefined;undefined;2560 x 1440;2560 x 1440
H014;32;Mannelijk;Rechts;1;8;left;no;300;leftarrow;598;true;focus;yes;135532;Chrome;112.0;Windows;10;undefined;undefined;2560 x 1440;2560 x 1440
H014;32;Mannelijk;Rechts;1;9;right;yes;300;undefined;null;true;focus;yes;137559;Chrome;112.0;Windows;10;undefined;undefined;2560 x 1440;2560 x 1440
H014;32;Mannelijk;Rechts;1;10;left;no;350;leftarrow;388;true;focus;yes;138724;Chrome;112.0;Windows;10;undefined;undefined;2560 x 1440;2560 x 1440
H014;32;Mannelijk;Rechts;1;11;right;no;350;rightarrow;593;true;focus;yes;140093;Chrome;112.0;Windows;10;undefined;undefined;2560 x 1440;2560 x 1440
H014;32;Mannelijk;Rechts;1;12;right;no;350;rightarrow;643;true;focus;yes;141513;Chrome;112.0;Windows;10;undefined;undefined;2560 x 1440;2560 x 1440
H014;32;Mannelijk;Rechts;1;13;left;no;350;leftarrow;402;true;focus;yes;142685;Chrome;112.0;Windows;10;undefined;undefined;2560 x 1440;2560 x 1440
H014;32;Mannelijk;Rechts;1;14;right;no;350;rightarrow;590;true;focus;yes;144047;Chrome;112.0;Windows;10;undefined;undefined;2560 x 1440;2560 x 1440
H014;32;Mannelijk;Rechts;1;15;left;yes;350;undefined;null;true;focus;yes;146082;Chrome;112.0;Windows;10;undefined;undefined;2560 x 1440;2560 x 1440
H014;32;Mannelijk;Rechts;1;16;left;no;400;leftarrow;484;true;focus;yes;147343;Chrome;112.0;Windows;10;undefined;undefined;2560 x 1440;2560 x 1440
H014;32;Mannelijk;Rechts;1;17;right;no;400;rightarrow;650;true;focus;yes;148764;Chrome;112.0;Windows;10;undefined;undefined;2560 x 1440;2560 x 1440
H014;32;Mannelijk;Rechts;1;18;left;no;400;leftarrow;623;true;focus;yes;150164;Chrome;112.0;Windows;10;undefined;undefined;2560 x 1440;2560 x 1440
H014;32;Mannelijk;Rechts;1;19;left;no;400;leftarrow;604;true;focus;yes;151542;Chrome;112.0;Windows;10;undefined;undefined;2560 x 1440;2560 x 1440
H014;32;Mannelijk;Rechts;1;20;left;no;400;leftarrow;642;true;focus;yes;152957;Chrome;112.0;Windows;10;undefined;undefined;2560 x 1440;2560 x 1440
H014;32;Mannelijk;Rechts;1;21;right;no;400;rightarrow;748;true;focus;yes;154478;Chrome;112.0;Windows;10;undefined;undefined;2560 x 1440;2560 x 1440
H014;32;Mannelijk;Rechts;1;22;right;no;400;rightarrow;596;true;focus;yes;155846;Chrome;112.0;Windows;10;undefined;undefined;2560 x 1440;2560 x 1440
H014;32;Mannelijk;Rechts;1;23;right;yes;400;undefined;null;true;focus;yes;157875;Chrome;112.0;Windows;10;undefined;undefined;2560 x 1440;2560 x 1440
H014;32;Mannelijk;Rechts;1;24;left;yes;450;leftarrow;461;false;focus;yes;159101;Chrome;112.0;Windows;10;undefined;undefined;2560 x 1440;2560 x 1440
H014;32;Mannelijk;Rechts;1;25;left;no;400;leftarrow;583;true;focus;yes;160458;Chrome;112.0;Windows;10;undefined;undefined;2560 x 1440;2560 x 1440
H014;32;Mannelijk;Rechts;1;26;left;no;400;leftarrow;739;true;focus;yes;161963;Chrome;112.0;Windows;10;undefined;undefined;2560 x 1440;2560 x 1440
H014;32;Mannelijk;Rechts;1;27;right;no;400;rightarrow;715;true;focus;yes;163443;Chrome;112.0;Windows;10;undefined;undefined;2560 x 1440;2560 x 1440
H014;32;Mannelijk;Rechts;1;28;right;no;400;rightarrow;804;true;focus;yes;165017;Chrome;112.0;Windows;10;undefined;undefined;2560 x 1440;2560 x 1440
H014;32;Mannelijk;Rechts;1;29;left;yes;400;undefined;null;true;focus;yes;167050;Chrome;112.0;Windows;10;undefined;undefined;2560 x 1440;2560 x 1440
H014;32;Mannelijk;Rechts;1;30;left;no;450;leftarrow;383;true;focus;yes;168195;Chrome;112.0;Windows;10;undefined;undefined;2560 x 1440;2560 x 1440
H014;32;Mannelijk;Rechts;1;31;right;yes;450;rightarrow;623;false;focus;yes;169584;Chrome;112.0;Windows;10;undefined;undefined;2560 x 1440;2560 x 1440
H014;32;Mannelijk;Rechts;1;32;right;no;400;rightarrow;704;true;focus;yes;171061;Chrome;112.0;Windows;10;undefined;undefined;2560 x 1440;2560 x 1440
H014;32;Mannelijk;Rechts;1;33;right;no;400;rightarrow;602;true;focus;yes;172431;Chrome;112.0;Windows;10;undefined;undefined;2560 x 1440;2560 x 1440
H014;32;Mannelijk;Rechts;1;34;left;yes;400;undefined;null;true;focus;yes;174468;Chrome;112.0;Windows;10;undefined;undefined;2560 x 1440;2560 x 1440
H014;32;Mannelijk;Rechts;1;35;right;no;450;rightarrow;610;true;focus;yes;175854;Chrome;112.0;Windows;10;undefined;undefined;2560 x 1440;2560 x 1440
H014;32;Mannelijk;Rechts;1;36;left;no;450;leftarrow;675;true;focus;yes;177300;Chrome;112.0;Windows;10;undefined;undefined;2560 x 1440;2560 x 1440
H014;32;Mannelijk;Rechts;1;37;left;no;450;leftarrow;731;true;focus;yes;178808;Chrome;112.0;Windows;10;undefined;undefined;2560 x 1440;2560 x 1440
H014;32;Mannelijk;Rechts;1;38;right;yes;450;undefined;null;true;focus;yes;180843;Chrome;112.0;Windows;10;undefined;undefined;2560 x 1440;2560 x 1440
H014;32;Mannelijk;Rechts;1;39;left;no;500;leftarrow;476;true;focus;yes;182086;Chrome;112.0;Windows;10;undefined;undefined;2560 x 1440;2560 x 1440
H014;32;Mannelijk;Rechts;1;40;right;no;500;rightarrow;642;true;focus;yes;183506;Chrome;112.0;Windows;10;undefined;undefined;2560 x 1440;2560 x 1440
H014;32;Mannelijk;Rechts;1;41;left;no;500;leftarrow;777;true;focus;yes;185055;Chrome;112.0;Windows;10;undefined;undefined;2560 x 1440;2560 x 1440
H014;32;Mannelijk;Rechts;1;42;right;no;500;rightarrow;709;true;focus;yes;186528;Chrome;112.0;Windows;10;undefined;undefined;2560 x 1440;2560 x 1440
H014;32;Mannelijk;Rechts;1;43;left;yes;500;undefined;null;true;focus;yes;188561;Chrome;112.0;Windows;10;undefined;undefined;2560 x 1440;2560 x 1440
H014;32;Mannelijk;Rechts;1;44;left;no;550;leftarrow;347;true;focus;yes;189685;Chrome;112.0;Windows;10;undefined;undefined;2560 x 1440;2560 x 1440
H014;32;Mannelijk;Rechts;1;45;right;yes;550;rightarrow;645;false;focus;yes;191102;Chrome;112.0;Windows;10;undefined;undefined;2560 x 1440;2560 x 1440
H014;32;Mannelijk;Rechts;1;46;right;no;500;rightarrow;657;true;focus;yes;192536;Chrome;112.0;Windows;10;undefined;undefined;2560 x 1440;2560 x 1440
H014;32;Mannelijk;Rechts;1;47;left;no;500;leftarrow;822;true;focus;yes;194129;Chrome;112.0;Windows;10;undefined;undefined;2560 x 1440;2560 x 1440
H014;32;Mannelijk;Rechts;1;48;right;no;500;rightarrow;635;true;focus;yes;195540;Chrome;112.0;Windows;10;undefined;undefined;2560 x 1440;2560 x 1440
H014;32;Mannelijk;Rechts;1;49;right;no;500;rightarrow;790;true;focus;yes;197105;Chrome;112.0;Windows;10;undefined;undefined;2560 x 1440;2560 x 1440
H014;32;Mannelijk;Rechts;1;50;right;no;500;rightarrow;723;true;focus;yes;198606;Chrome;112.0;Windows;10;undefined;undefined;2560 x 1440;2560 x 1440
H014;32;Mannelijk;Rechts;1;51;right;no;500;rightarrow;630;true;focus;yes;200005;Chrome;112.0;Windows;10;undefined;undefined;2560 x 1440;2560 x 1440
H014;32;Mannelijk;Rechts;1;52;left;no;500;leftarrow;711;true;focus;yes;201485;Chrome;112.0;Windows;10;undefined;undefined;2560 x 1440;2560 x 1440
H014;32;Mannelijk;Rechts;1;53;right;yes;500;undefined;null;true;focus;yes;203519;Chrome;112.0;Windows;10;undefined;undefined;2560 x 1440;2560 x 1440
H014;32;Mannelijk;Rechts;1;54;left;yes;550;leftarrow;381;false;focus;yes;204679;Chrome;112.0;Windows;10;undefined;undefined;2560 x 1440;2560 x 1440
H014;32;Mannelijk;Rechts;1;55;left;no;500;leftarrow;646;true;focus;yes;206102;Chrome;112.0;Windows;10;undefined;undefined;2560 x 1440;2560 x 1440
H014;32;Mannelijk;Rechts;1;56;left;no;500;leftarrow;692;true;focus;yes;207567;Chrome;112.0;Windows;10;undefined;undefined;2560 x 1440;2560 x 1440
H014;32;Mannelijk;Rechts;1;57;left;no;500;leftarrow;781;true;focus;yes;209117;Chrome;112.0;Windows;10;undefined;undefined;2560 x 1440;2560 x 1440
H014;32;Mannelijk;Rechts;1;58;left;yes;500;undefined;null;true;focus;yes;211134;Chrome;112.0;Windows;10;undefined;undefined;2560 x 1440;2560 x 1440
H014;32;Mannelijk;Rechts;1;59;right;no;550;rightarrow;380;true;focus;yes;212292;Chrome;112.0;Windows;10;undefined;undefined;2560 x 1440;2560 x 1440
H014;32;Mannelijk;Rechts;1;60;left;no;550;leftarrow;784;true;focus;yes;213841;Chrome;112.0;Windows;10;undefined;undefined;2560 x 1440;2560 x 1440
H014;32;Mannelijk;Rechts;1;61;right;no;550;rightarrow;689;true;focus;yes;215296;Chrome;112.0;Windows;10;undefined;undefined;2560 x 1440;2560 x 1440
H014;32;Mannelijk;Rechts;1;62;right;yes;550;undefined;null;true;focus;yes;217325;Chrome;112.0;Windows;10;undefined;undefined;2560 x 1440;2560 x 1440
H014;32;Mannelijk;Rechts;1;63;left;no;600;leftarrow;371;true;focus;yes;218475;Chrome;112.0;Windows;10;undefined;undefined;2560 x 1440;2560 x 1440
H014;32;Mannelijk;Rechts;1;64;right;no;600;rightarrow;505;true;focus;yes;219758;Chrome;112.0;Windows;10;undefined;undefined;2560 x 1440;2560 x 1440
H014;32;Mannelijk;Rechts;1;65;right;yes;600;rightarrow;640;false;focus;yes;221172;Chrome;112.0;Windows;10;undefined;undefined;2560 x 1440;2560 x 1440
H014;32;Mannelijk;Rechts;1;66;right;no;550;rightarrow;395;true;focus;yes;222338;Chrome;112.0;Windows;10;undefined;undefined;2560 x 1440;2560 x 1440
H014;32;Mannelijk;Rechts;1;67;left;no;550;leftarrow;382;true;focus;yes;223491;Chrome;112.0;Windows;10;undefined;undefined;2560 x 1440;2560 x 1440
H014;32;Mannelijk;Rechts;1;68;right;no;550;rightarrow;838;true;focus;yes;225095;Chrome;112.0;Windows;10;undefined;undefined;2560 x 1440;2560 x 1440
H014;32;Mannelijk;Rechts;1;69;left;no;550;leftarrow;628;true;focus;yes;226500;Chrome;112.0;Windows;10;undefined;undefined;2560 x 1440;2560 x 1440
H014;32;Mannelijk;Rechts;1;70;left;no;550;leftarrow;623;true;focus;yes;227893;Chrome;112.0;Windows;10;undefined;undefined;2560 x 1440;2560 x 1440
H014;32;Mannelijk;Rechts;1;71;right;no;550;rightarrow;757;true;focus;yes;229421;Chrome;112.0;Windows;10;undefined;undefined;2560 x 1440;2560 x 1440
H014;32;Mannelijk;Rechts;1;72;left;yes;550;undefined;null;true;focus;yes;231453;Chrome;112.0;Windows;10;undefined;undefined;2560 x 1440;2560 x 1440
H014;32;Mannelijk;Rechts;1;73;right;no;600;rightarrow;297;true;focus;yes;232515;Chrome;112.0;Windows;10;undefined;undefined;2560 x 1440;2560 x 1440
H014;32;Mannelijk;Rechts;1;74;right;yes;600;rightarrow;739;false;focus;yes;234026;Chrome;112.0;Windows;10;undefined;undefined;2560 x 1440;2560 x 1440
H014;32;Mannelijk;Rechts;1;75;right;no;550;rightarrow;794;true;focus;yes;235602;Chrome;112.0;Windows;10;undefined;undefined;2560 x 1440;2560 x 1440
H014;32;Mannelijk;Rechts;1;76;left;no;550;leftarrow;817;true;focus;yes;237188;Chrome;112.0;Windows;10;undefined;undefined;2560 x 1440;2560 x 1440
H014;32;Mannelijk;Rechts;1;77;left;no;550;leftarrow;770;true;focus;yes;238735;Chrome;112.0;Windows;10;undefined;undefined;2560 x 1440;2560 x 1440
H014;32;Mannelijk;Rechts;1;78;left;no;550;leftarrow;712;true;focus;yes;240225;Chrome;112.0;Windows;10;undefined;undefined;2560 x 1440;2560 x 1440
H014;32;Mannelijk;Rechts;1;79;right;no;550;rightarrow;733;true;focus;yes;241740;Chrome;112.0;Windows;10;undefined;undefined;2560 x 1440;2560 x 1440
H014;32;Mannelijk;Rechts;1;80;left;yes;550;leftarrow;624;false;focus;yes;243132;Chrome;112.0;Windows;10;undefined;undefined;2560 x 1440;2560 x 1440
H014;32;Mannelijk;Rechts;1;81;right;no;500;rightarrow;339;true;focus;yes;244240;Chrome;112.0;Windows;10;undefined;undefined;2560 x 1440;2560 x 1440
H014;32;Mannelijk;Rechts;1;82;right;no;500;rightarrow;502;true;focus;yes;245521;Chrome;112.0;Windows;10;undefined;undefined;2560 x 1440;2560 x 1440
H014;32;Mannelijk;Rechts;1;83;left;no;500;leftarrow;815;true;focus;yes;247106;Chrome;112.0;Windows;10;undefined;undefined;2560 x 1440;2560 x 1440
H014;32;Mannelijk;Rechts;1;84;right;no;500;rightarrow;869;true;focus;yes;248748;Chrome;112.0;Windows;10;undefined;undefined;2560 x 1440;2560 x 1440
H014;32;Mannelijk;Rechts;1;85;left;yes;500;undefined;null;true;focus;yes;250777;Chrome;112.0;Windows;10;undefined;undefined;2560 x 1440;2560 x 1440
H014;32;Mannelijk;Rechts;1;86;right;yes;550;rightarrow;458;false;focus;yes;251992;Chrome;112.0;Windows;10;undefined;undefined;2560 x 1440;2560 x 1440
H014;32;Mannelijk;Rechts;1;87;left;no;500;leftarrow;742;true;focus;yes;253515;Chrome;112.0;Windows;10;undefined;undefined;2560 x 1440;2560 x 1440
H014;32;Mannelijk;Rechts;1;88;left;no;500;leftarrow;730;true;focus;yes;255014;Chrome;112.0;Windows;10;undefined;undefined;2560 x 1440;2560 x 1440
H014;32;Mannelijk;Rechts;1;89;right;no;500;rightarrow;801;true;focus;yes;256591;Chrome;112.0;Windows;10;undefined;undefined;2560 x 1440;2560 x 1440
H014;32;Mannelijk;Rechts;1;90;left;no;500;leftarrow;857;true;focus;yes;258229;Chrome;112.0;Windows;10;undefined;undefined;2560 x 1440;2560 x 1440
H014;32;Mannelijk;Rechts;1;91;left;no;500;leftarrow;972;true;focus;yes;259975;Chrome;112.0;Windows;10;undefined;undefined;2560 x 1440;2560 x 1440
H014;32;Mannelijk;Rechts;1;92;right;no;500;rightarrow;752;true;focus;yes;261505;Chrome;112.0;Windows;10;undefined;undefined;2560 x 1440;2560 x 1440
H014;32;Mannelijk;Rechts;1;93;left;no;500;leftarrow;762;true;focus;yes;263021;Chrome;112.0;Windows;10;undefined;undefined;2560 x 1440;2560 x 1440
H014;32;Mannelijk;Rechts;1;94;right;no;500;rightarrow;477;true;focus;yes;264272;Chrome;112.0;Windows;10;undefined;undefined;2560 x 1440;2560 x 1440
H014;32;Mannelijk;Rechts;1;95;left;yes;500;undefined;null;true;focus;yes;266290;Chrome;112.0;Windows;10;undefined;undefined;2560 x 1440;2560 x 1440
H014;32;Mannelijk;Rechts;1;96;right;yes;550;rightarrow;309;false;focus;yes;267380;Chrome;112.0;Windows;10;undefined;undefined;2560 x 1440;2560 x 1440
H014;32;Mannelijk;Rechts;1;97;right;no;500;rightarrow;451;true;focus;yes;268608;Chrome;112.0;Windows;10;undefined;undefined;2560 x 1440;2560 x 1440
H014;32;Mannelijk;Rechts;1;98;left;no;500;leftarrow;809;true;focus;yes;270194;Chrome;112.0;Windows;10;undefined;undefined;2560 x 1440;2560 x 1440
H014;32;Mannelijk;Rechts;1;99;left;yes;500;leftarrow;627;false;focus;yes;271593;Chrome;112.0;Windows;10;undefined;undefined;2560 x 1440;2560 x 1440
H014;32;Mannelijk;Rechts;1;100;left;no;450;leftarrow;380;true;focus;yes;272747;Chrome;112.0;Windows;10;undefined;undefined;2560 x 1440;2560 x 1440
H014;32;Mannelijk;Rechts;1;101;right;no;450;rightarrow;660;true;focus;yes;274175;Chrome;112.0;Windows;10;undefined;undefined;2560 x 1440;2560 x 1440
H014;32;Mannelijk;Rechts;1;102;left;no;450;leftarrow;798;true;focus;yes;275744;Chrome;112.0;Windows;10;undefined;undefined;2560 x 1440;2560 x 1440
H014;32;Mannelijk;Rechts;1;103;right;no;450;rightarrow;750;true;focus;yes;277265;Chrome;112.0;Windows;10;undefined;undefined;2560 x 1440;2560 x 1440
H014;32;Mannelijk;Rechts;1;104;right;yes;450;undefined;null;true;focus;yes;279298;Chrome;112.0;Windows;10;undefined;undefined;2560 x 1440;2560 x 1440
H014;32;Mannelijk;Rechts;1;105;left;no;500;leftarrow;443;true;focus;yes;280520;Chrome;112.0;Windows;10;undefined;undefined;2560 x 1440;2560 x 1440
H014;32;Mannelijk;Rechts;1;106;right;no;500;rightarrow;721;true;focus;yes;282023;Chrome;112.0;Windows;10;undefined;undefined;2560 x 1440;2560 x 1440
H014;32;Mannelijk;Rechts;1;107;right;no;500;rightarrow;864;true;focus;yes;283653;Chrome;112.0;Windows;10;undefined;undefined;2560 x 1440;2560 x 1440
H014;32;Mannelijk;Rechts;1;108;right;yes;500;undefined;null;true;focus;yes;285674;Chrome;112.0;Windows;10;undefined;undefined;2560 x 1440;2560 x 1440
H014;32;Mannelijk;Rechts;1;109;left;no;550;leftarrow;313;true;focus;yes;286766;Chrome;112.0;Windows;10;undefined;undefined;2560 x 1440;2560 x 1440
H014;32;Mannelijk;Rechts;1;110;right;no;550;rightarrow;714;true;focus;yes;288253;Chrome;112.0;Windows;10;undefined;undefined;2560 x 1440;2560 x 1440
H014;32;Mannelijk;Rechts;1;111;left;no;550;leftarrow;883;true;focus;yes;289914;Chrome;112.0;Windows;10;undefined;undefined;2560 x 1440;2560 x 1440
H014;32;Mannelijk;Rechts;1;112;left;yes;550;undefined;null;true;focus;yes;291945;Chrome;112.0;Windows;10;undefined;undefined;2560 x 1440;2560 x 1440
H014;32;Mannelijk;Rechts;1;113;right;yes;600;rightarrow;338;false;focus;yes;293061;Chrome;112.0;Windows;10;undefined;undefined;2560 x 1440;2560 x 1440
H014;32;Mannelijk;Rechts;1;114;right;no;550;rightarrow;473;true;focus;yes;294311;Chrome;112.0;Windows;10;undefined;undefined;2560 x 1440;2560 x 1440
H014;32;Mannelijk;Rechts;1;115;left;yes;550;undefined;null;true;focus;yes;296332;Chrome;112.0;Windows;10;undefined;undefined;2560 x 1440;2560 x 1440
H014;32;Mannelijk;Rechts;1;116;right;no;600;rightarrow;367;true;focus;yes;297457;Chrome;112.0;Windows;10;undefined;undefined;2560 x 1440;2560 x 1440
H014;32;Mannelijk;Rechts;1;117;left;no;600;leftarrow;696;true;focus;yes;298929;Chrome;112.0;Windows;10;undefined;undefined;2560 x 1440;2560 x 1440
H014;32;Mannelijk;Rechts;1;118;left;no;600;leftarrow;829;true;focus;yes;300539;Chrome;112.0;Windows;10;undefined;undefined;2560 x 1440;2560 x 1440
H014;32;Mannelijk;Rechts;1;119;right;no;600;rightarrow;733;true;focus;yes;302047;Chrome;112.0;Windows;10;undefined;undefined;2560 x 1440;2560 x 1440
H014;32;Mannelijk;Rechts;1;120;left;no;600;leftarrow;946;true;focus;yes;303766;Chrome;112.0;Windows;10;undefined;undefined;2560 x 1440;2560 x 1440
H014;32;Mannelijk;Rechts;1;121;right;no;600;rightarrow;923;true;focus;yes;305464;Chrome;112.0;Windows;10;undefined;undefined;2560 x 1440;2560 x 1440
H014;32;Mannelijk;Rechts;1;122;right;yes;600;undefined;null;true;focus;yes;307485;Chrome;112.0;Windows;10;undefined;undefined;2560 x 1440;2560 x 1440
H014;32;Mannelijk;Rechts;1;123;left;no;650;leftarrow;357;true;focus;yes;308621;Chrome;112.0;Windows;10;undefined;undefined;2560 x 1440;2560 x 1440
H014;32;Mannelijk;Rechts;1;124;right;no;650;rightarrow;636;true;focus;yes;310029;Chrome;112.0;Windows;10;undefined;undefined;2560 x 1440;2560 x 1440
H014;32;Mannelijk;Rechts;1;125;left;no;650;leftarrow;671;true;focus;yes;311476;Chrome;112.0;Windows;10;undefined;undefined;2560 x 1440;2560 x 1440
H014;32;Mannelijk;Rechts;1;126;left;yes;650;leftarrow;715;false;focus;yes;312967;Chrome;112.0;Windows;10;undefined;undefined;2560 x 1440;2560 x 1440
H014;32;Mannelijk;Rechts;1;127;left;no;600;leftarrow;370;true;focus;yes;314111;Chrome;112.0;Windows;10;undefined;undefined;2560 x 1440;2560 x 1440
H014;32;Mannelijk;Rechts;1;128;right;no;600;rightarrow;424;true;focus;yes;315308;Chrome;112.0;Windows;10;undefined;undefined;2560 x 1440;2560 x 1440
H014;32;Mannelijk;Rechts;2;1;left;no;600;leftarrow;520;true;focus;yes;335221;Chrome;112.0;Windows;10;undefined;undefined;2560 x 1440;2560 x 1440
H014;32;Mannelijk;Rechts;2;2;left;yes;600;leftarrow;630;false;focus;yes;336631;Chrome;112.0;Windows;10;undefined;undefined;2560 x 1440;2560 x 1440
H014;32;Mannelijk;Rechts;2;3;right;no;550;rightarrow;701;true;focus;yes;338101;Chrome;112.0;Windows;10;undefined;undefined;2560 x 1440;2560 x 1440
H014;32;Mannelijk;Rechts;2;4;right;yes;550;rightarrow;703;false;focus;yes;339578;Chrome;112.0;Windows;10;undefined;undefined;2560 x 1440;2560 x 1440
H014;32;Mannelijk;Rechts;2;5;right;no;500;rightarrow;341;true;focus;yes;340673;Chrome;112.0;Windows;10;undefined;undefined;2560 x 1440;2560 x 1440
H014;32;Mannelijk;Rechts;2;6;left;no;500;leftarrow;768;true;focus;yes;342218;Chrome;112.0;Windows;10;undefined;undefined;2560 x 1440;2560 x 1440
H014;32;Mannelijk;Rechts;2;7;right;no;500;rightarrow;737;true;focus;yes;343733;Chrome;112.0;Windows;10;undefined;undefined;2560 x 1440;2560 x 1440
H014;32;Mannelijk;Rechts;2;8;left;no;500;leftarrow;831;true;focus;yes;345332;Chrome;112.0;Windows;10;undefined;undefined;2560 x 1440;2560 x 1440
H014;32;Mannelijk;Rechts;2;9;left;no;500;leftarrow;817;true;focus;yes;346918;Chrome;112.0;Windows;10;undefined;undefined;2560 x 1440;2560 x 1440
H014;32;Mannelijk;Rechts;2;10;right;no;500;rightarrow;776;true;focus;yes;348476;Chrome;112.0;Windows;10;undefined;undefined;2560 x 1440;2560 x 1440
H014;32;Mannelijk;Rechts;2;11;right;no;500;rightarrow;850;true;focus;yes;350096;Chrome;112.0;Windows;10;undefined;undefined;2560 x 1440;2560 x 1440
H014;32;Mannelijk;Rechts;2;12;left;no;500;leftarrow;897;true;focus;yes;351772;Chrome;112.0;Windows;10;undefined;undefined;2560 x 1440;2560 x 1440
H014;32;Mannelijk;Rechts;2;13;left;yes;500;undefined;null;true;focus;yes;353809;Chrome;112.0;Windows;10;undefined;undefined;2560 x 1440;2560 x 1440
H014;32;Mannelijk;Rechts;2;14;left;no;550;leftarrow;439;true;focus;yes;355022;Chrome;112.0;Windows;10;undefined;undefined;2560 x 1440;2560 x 1440
H014;32;Mannelijk;Rechts;2;15;right;no;550;rightarrow;707;true;focus;yes;356504;Chrome;112.0;Windows;10;undefined;undefined;2560 x 1440;2560 x 1440
H014;32;Mannelijk;Rechts;2;16;right;yes;550;undefined;null;true;focus;yes;358537;Chrome;112.0;Windows;10;undefined;undefined;2560 x 1440;2560 x 1440
H014;32;Mannelijk;Rechts;2;17;left;no;600;leftarrow;288;true;focus;yes;359605;Chrome;112.0;Windows;10;undefined;undefined;2560 x 1440;2560 x 1440
H014;32;Mannelijk;Rechts;2;18;left;yes;600;leftarrow;702;false;focus;yes;361078;Chrome;112.0;Windows;10;undefined;undefined;2560 x 1440;2560 x 1440
H014;32;Mannelijk;Rechts;2;19;right;no;550;rightarrow;458;true;focus;yes;362310;Chrome;112.0;Windows;10;undefined;undefined;2560 x 1440;2560 x 1440
H014;32;Mannelijk;Rechts;2;20;right;yes;550;undefined;null;true;focus;yes;364341;Chrome;112.0;Windows;10;undefined;undefined;2560 x 1440;2560 x 1440
H014;32;Mannelijk;Rechts;2;21;right;no;600;rightarrow;390;true;focus;yes;365499;Chrome;112.0;Windows;10;undefined;undefined;2560 x 1440;2560 x 1440
H014;32;Mannelijk;Rechts;2;22;right;no;600;rightarrow;672;true;focus;yes;366944;Chrome;112.0;Windows;10;undefined;undefined;2560 x 1440;2560 x 1440
H014;32;Mannelijk;Rechts;2;23;left;no;600;leftarrow;760;true;focus;yes;368479;Chrome;112.0;Windows;10;undefined;undefined;2560 x 1440;2560 x 1440
H014;32;Mannelijk;Rechts;2;24;left;no;600;leftarrow;857;true;focus;yes;370108;Chrome;112.0;Windows;10;undefined;undefined;2560 x 1440;2560 x 1440
H014;32;Mannelijk;Rechts;2;25;left;yes;600;undefined;null;true;focus;yes;372136;Chrome;112.0;Windows;10;undefined;undefined;2560 x 1440;2560 x 1440
H014;32;Mannelijk;Rechts;2;26;right;no;650;rightarrow;280;true;focus;yes;373195;Chrome;112.0;Windows;10;undefined;undefined;2560 x 1440;2560 x 1440
H014;32;Mannelijk;Rechts;2;27;right;no;650;rightarrow;464;true;focus;yes;374437;Chrome;112.0;Windows;10;undefined;undefined;2560 x 1440;2560 x 1440
H014;32;Mannelijk;Rechts;2;28;right;yes;650;rightarrow;707;false;focus;yes;375919;Chrome;112.0;Windows;10;undefined;undefined;2560 x 1440;2560 x 1440
H014;32;Mannelijk;Rechts;2;29;right;no;600;rightarrow;331;true;focus;yes;377018;Chrome;112.0;Windows;10;undefined;undefined;2560 x 1440;2560 x 1440
H014;32;Mannelijk;Rechts;2;30;left;no;600;leftarrow;543;true;focus;yes;378333;Chrome;112.0;Windows;10;undefined;undefined;2560 x 1440;2560 x 1440
H014;32;Mannelijk;Rechts;2;31;left;no;600;leftarrow;874;true;focus;yes;379975;Chrome;112.0;Windows;10;undefined;undefined;2560 x 1440;2560 x 1440
H014;32;Mannelijk;Rechts;2;32;left;no;600;leftarrow;889;true;focus;yes;381630;Chrome;112.0;Windows;10;undefined;undefined;2560 x 1440;2560 x 1440
H014;32;Mannelijk;Rechts;2;33;left;no;600;leftarrow;915;true;focus;yes;383321;Chrome;112.0;Windows;10;undefined;undefined;2560 x 1440;2560 x 1440
H014;32;Mannelijk;Rechts;2;34;right;no;600;rightarrow;1018;true;focus;yes;385114;Chrome;112.0;Windows;10;undefined;undefined;2560 x 1440;2560 x 1440
H014;32;Mannelijk;Rechts;2;35;left;yes;600;undefined;null;true;focus;yes;387152;Chrome;112.0;Windows;10;undefined;undefined;2560 x 1440;2560 x 1440
H014;32;Mannelijk;Rechts;2;36;left;no;650;leftarrow;334;true;focus;yes;388251;Chrome;112.0;Windows;10;undefined;undefined;2560 x 1440;2560 x 1440
H014;32;Mannelijk;Rechts;2;37;left;no;650;leftarrow;802;true;focus;yes;389818;Chrome;112.0;Windows;10;undefined;undefined;2560 x 1440;2560 x 1440
H014;32;Mannelijk;Rechts;2;38;right;no;650;rightarrow;650;true;focus;yes;391248;Chrome;112.0;Windows;10;undefined;undefined;2560 x 1440;2560 x 1440
H014;32;Mannelijk;Rechts;2;39;right;yes;650;undefined;null;true;focus;yes;393280;Chrome;112.0;Windows;10;undefined;undefined;2560 x 1440;2560 x 1440
H014;32;Mannelijk;Rechts;2;40;right;no;700;leftarrow;334;false;focus;yes;394379;Chrome;112.0;Windows;10;undefined;undefined;2560 x 1440;2560 x 1440
H014;32;Mannelijk;Rechts;2;41;left;yes;700;leftarrow;403;false;focus;yes;395563;Chrome;112.0;Windows;10;undefined;undefined;2560 x 1440;2560 x 1440
H014;32;Mannelijk;Rechts;2;42;right;no;650;rightarrow;725;true;focus;yes;397066;Chrome;112.0;Windows;10;undefined;undefined;2560 x 1440;2560 x 1440
H014;32;Mannelijk;Rechts;2;43;right;no;650;rightarrow;820;true;focus;yes;398654;Chrome;112.0;Windows;10;undefined;undefined;2560 x 1440;2560 x 1440
H014;32;Mannelijk;Rechts;2;44;left;no;650;leftarrow;862;true;focus;yes;400298;Chrome;112.0;Windows;10;undefined;undefined;2560 x 1440;2560 x 1440
H014;32;Mannelijk;Rechts;2;45;left;no;650;leftarrow;753;true;focus;yes;401821;Chrome;112.0;Windows;10;undefined;undefined;2560 x 1440;2560 x 1440
H014;32;Mannelijk;Rechts;2;46;right;yes;650;undefined;null;true;focus;yes;403850;Chrome;112.0;Windows;10;undefined;undefined;2560 x 1440;2560 x 1440
H014;32;Mannelijk;Rechts;2;47;left;no;700;leftarrow;302;true;focus;yes;404929;Chrome;112.0;Windows;10;undefined;undefined;2560 x 1440;2560 x 1440
H014;32;Mannelijk;Rechts;2;48;right;no;700;rightarrow;766;true;focus;yes;406477;Chrome;112.0;Windows;10;undefined;undefined;2560 x 1440;2560 x 1440
H014;32;Mannelijk;Rechts;2;49;left;no;700;leftarrow;923;true;focus;yes;408172;Chrome;112.0;Windows;10;undefined;undefined;2560 x 1440;2560 x 1440
H014;32;Mannelijk;Rechts;2;50;left;yes;700;leftarrow;813;false;focus;yes;409754;Chrome;112.0;Windows;10;undefined;undefined;2560 x 1440;2560 x 1440
H014;32;Mannelijk;Rechts;2;51;right;no;650;rightarrow;315;true;focus;yes;410840;Chrome;112.0;Windows;10;undefined;undefined;2560 x 1440;2560 x 1440
H014;32;Mannelijk;Rechts;2;52;left;no;650;leftarrow;839;true;focus;yes;412451;Chrome;112.0;Windows;10;undefined;undefined;2560 x 1440;2560 x 1440
H014;32;Mannelijk;Rechts;2;53;left;no;650;leftarrow;941;true;focus;yes;414165;Chrome;112.0;Windows;10;undefined;undefined;2560 x 1440;2560 x 1440
H014;32;Mannelijk;Rechts;2;54;right;no;650;rightarrow;860;true;focus;yes;415805;Chrome;112.0;Windows;10;undefined;undefined;2560 x 1440;2560 x 1440
H014;32;Mannelijk;Rechts;2;55;right;yes;650;rightarrow;815;false;focus;yes;417390;Chrome;112.0;Windows;10;undefined;undefined;2560 x 1440;2560 x 1440
H014;32;Mannelijk;Rechts;2;56;right;no;600;rightarrow;444;true;focus;yes;418604;Chrome;112.0;Windows;10;undefined;undefined;2560 x 1440;2560 x 1440
H014;32;Mannelijk;Rechts;2;57;left;no;600;leftarrow;414;true;focus;yes;419786;Chrome;112.0;Windows;10;undefined;undefined;2560 x 1440;2560 x 1440
H014;32;Mannelijk;Rechts;2;58;right;no;600;rightarrow;808;true;focus;yes;421373;Chrome;112.0;Windows;10;undefined;undefined;2560 x 1440;2560 x 1440
H014;32;Mannelijk;Rechts;2;59;right;no;600;rightarrow;759;true;focus;yes;422904;Chrome;112.0;Windows;10;undefined;undefined;2560 x 1440;2560 x 1440
H014;32;Mannelijk;Rechts;2;60;left;no;600;leftarrow;887;true;focus;yes;424546;Chrome;112.0;Windows;10;undefined;undefined;2560 x 1440;2560 x 1440
H014;32;Mannelijk;Rechts;2;61;left;no;600;leftarrow;831;true;focus;yes;426149;Chrome;112.0;Windows;10;undefined;undefined;2560 x 1440;2560 x 1440
H014;32;Mannelijk;Rechts;2;62;left;yes;600;undefined;null;true;focus;yes;428175;Chrome;112.0;Windows;10;undefined;undefined;2560 x 1440;2560 x 1440
H014;32;Mannelijk;Rechts;2;63;right;yes;650;rightarrow;259;false;focus;yes;429211;Chrome;112.0;Windows;10;undefined;undefined;2560 x 1440;2560 x 1440
H014;32;Mannelijk;Rechts;2;64;right;no;600;rightarrow;811;true;focus;yes;430791;Chrome;112.0;Windows;10;undefined;undefined;2560 x 1440;2560 x 1440
H014;32;Mannelijk;Rechts;2;65;left;no;600;leftarrow;723;true;focus;yes;432289;Chrome;112.0;Windows;10;undefined;undefined;2560 x 1440;2560 x 1440
H014;32;Mannelijk;Rechts;2;66;left;no;600;leftarrow;965;true;focus;yes;434024;Chrome;112.0;Windows;10;undefined;undefined;2560 x 1440;2560 x 1440
H014;32;Mannelijk;Rechts;2;67;right;yes;600;undefined;null;true;focus;yes;436057;Chrome;112.0;Windows;10;undefined;undefined;2560 x 1440;2560 x 1440
H014;32;Mannelijk;Rechts;2;68;left;no;650;leftarrow;315;true;focus;yes;437136;Chrome;112.0;Windows;10;undefined;undefined;2560 x 1440;2560 x 1440
H014;32;Mannelijk;Rechts;2;69;left;yes;650;leftarrow;780;false;focus;yes;438682;Chrome;112.0;Windows;10;undefined;undefined;2560 x 1440;2560 x 1440
H014;32;Mannelijk;Rechts;2;70;right;no;600;rightarrow;331;true;focus;yes;439787;Chrome;112.0;Windows;10;undefined;undefined;2560 x 1440;2560 x 1440
H014;32;Mannelijk;Rechts;2;71;right;no;600;rightarrow;742;true;focus;yes;441300;Chrome;112.0;Windows;10;undefined;undefined;2560 x 1440;2560 x 1440
H014;32;Mannelijk;Rechts;2;72;right;no;600;rightarrow;915;true;focus;yes;442983;Chrome;112.0;Windows;10;undefined;undefined;2560 x 1440;2560 x 1440
H014;32;Mannelijk;Rechts;2;73;left;yes;600;undefined;null;true;focus;yes;445018;Chrome;112.0;Windows;10;undefined;undefined;2560 x 1440;2560 x 1440
H014;32;Mannelijk;Rechts;2;74;right;no;650;rightarrow;328;true;focus;yes;446112;Chrome;112.0;Windows;10;undefined;undefined;2560 x 1440;2560 x 1440
H014;32;Mannelijk;Rechts;2;75;left;no;650;leftarrow;820;true;focus;yes;447703;Chrome;112.0;Windows;10;undefined;undefined;2560 x 1440;2560 x 1440
H014;32;Mannelijk;Rechts;2;76;right;no;650;rightarrow;826;true;focus;yes;449307;Chrome;112.0;Windows;10;undefined;undefined;2560 x 1440;2560 x 1440
H014;32;Mannelijk;Rechts;2;77;right;yes;650;rightarrow;795;false;focus;yes;450875;Chrome;112.0;Windows;10;undefined;undefined;2560 x 1440;2560 x 1440
H014;32;Mannelijk;Rechts;2;78;right;no;600;rightarrow;304;true;focus;yes;451953;Chrome;112.0;Windows;10;undefined;undefined;2560 x 1440;2560 x 1440
H014;32;Mannelijk;Rechts;2;79;left;no;600;leftarrow;390;true;focus;yes;453125;Chrome;112.0;Windows;10;undefined;undefined;2560 x 1440;2560 x 1440
H014;32;Mannelijk;Rechts;2;80;left;no;600;leftarrow;811;true;focus;yes;454710;Chrome;112.0;Windows;10;undefined;undefined;2560 x 1440;2560 x 1440
H014;32;Mannelijk;Rechts;2;81;left;no;600;leftarrow;830;true;focus;yes;456310;Chrome;112.0;Windows;10;undefined;undefined;2560 x 1440;2560 x 1440
H014;32;Mannelijk;Rechts;2;82;left;yes;600;undefined;null;true;focus;yes;458339;Chrome;112.0;Windows;10;undefined;undefined;2560 x 1440;2560 x 1440
H014;32;Mannelijk;Rechts;2;83;right;no;650;rightarrow;290;true;focus;yes;459404;Chrome;112.0;Windows;10;undefined;undefined;2560 x 1440;2560 x 1440
H014;32;Mannelijk;Rechts;2;84;right;no;650;rightarrow;341;true;focus;yes;460509;Chrome;112.0;Windows;10;undefined;undefined;2560 x 1440;2560 x 1440
H014;32;Mannelijk;Rechts;2;85;left;no;650;leftarrow;1002;true;focus;yes;462290;Chrome;112.0;Windows;10;undefined;undefined;2560 x 1440;2560 x 1440
H014;32;Mannelijk;Rechts;2;86;right;no;650;rightarrow;734;true;focus;yes;463805;Chrome;112.0;Windows;10;undefined;undefined;2560 x 1440;2560 x 1440
H014;32;Mannelijk;Rechts;2;87;left;no;650;leftarrow;1029;true;focus;yes;465607;Chrome;112.0;Windows;10;undefined;undefined;2560 x 1440;2560 x 1440
H014;32;Mannelijk;Rechts;2;88;right;yes;650;rightarrow;758;false;focus;yes;467145;Chrome;112.0;Windows;10;undefined;undefined;2560 x 1440;2560 x 1440
H014;32;Mannelijk;Rechts;2;89;left;no;600;leftarrow;396;true;focus;yes;468321;Chrome;112.0;Windows;10;undefined;undefined;2560 x 1440;2560 x 1440
H014;32;Mannelijk;Rechts;2;90;left;yes;600;undefined;null;true;focus;yes;470339;Chrome;112.0;Windows;10;undefined;undefined;2560 x 1440;2560 x 1440
H014;32;Mannelijk;Rechts;2;91;right;no;650;rightarrow;327;true;focus;yes;471438;Chrome;112.0;Windows;10;undefined;undefined;2560 x 1440;2560 x 1440
H014;32;Mannelijk;Rechts;2;92;right;no;650;rightarrow;855;true;focus;yes;473064;Chrome;112.0;Windows;10;undefined;undefined;2560 x 1440;2560 x 1440
H014;32;Mannelijk;Rechts;2;93;left;no;650;leftarrow;1011;true;focus;yes;474851;Chrome;112.0;Windows;10;undefined;undefined;2560 x 1440;2560 x 1440
H014;32;Mannelijk;Rechts;2;94;right;yes;650;undefined;null;true;focus;yes;476890;Chrome;112.0;Windows;10;undefined;undefined;2560 x 1440;2560 x 1440
H014;32;Mannelijk;Rechts;2;95;left;no;700;leftarrow;407;true;focus;yes;478073;Chrome;112.0;Windows;10;undefined;undefined;2560 x 1440;2560 x 1440
H014;32;Mannelijk;Rechts;2;96;right;no;700;rightarrow;691;true;focus;yes;479543;Chrome;112.0;Windows;10;undefined;undefined;2560 x 1440;2560 x 1440
H014;32;Mannelijk;Rechts;2;97;left;no;700;leftarrow;893;true;focus;yes;481204;Chrome;112.0;Windows;10;undefined;undefined;2560 x 1440;2560 x 1440
H014;32;Mannelijk;Rechts;2;98;right;no;700;rightarrow;814;true;focus;yes;482790;Chrome;112.0;Windows;10;undefined;undefined;2560 x 1440;2560 x 1440
H014;32;Mannelijk;Rechts;2;99;right;yes;700;undefined;null;true;focus;yes;484812;Chrome;112.0;Windows;10;undefined;undefined;2560 x 1440;2560 x 1440
H014;32;Mannelijk;Rechts;2;100;left;yes;750;leftarrow;359;false;focus;yes;485936;Chrome;112.0;Windows;10;undefined;undefined;2560 x 1440;2560 x 1440
H014;32;Mannelijk;Rechts;2;101;left;no;700;leftarrow;765;true;focus;yes;487472;Chrome;112.0;Windows;10;undefined;undefined;2560 x 1440;2560 x 1440
H014;32;Mannelijk;Rechts;2;102;right;no;700;rightarrow;689;true;focus;yes;488928;Chrome;112.0;Windows;10;undefined;undefined;2560 x 1440;2560 x 1440
H014;32;Mannelijk;Rechts;2;103;left;no;700;leftarrow;919;true;focus;yes;490617;Chrome;112.0;Windows;10;undefined;undefined;2560 x 1440;2560 x 1440
H014;32;Mannelijk;Rechts;2;104;right;no;700;rightarrow;727;true;focus;yes;492114;Chrome;112.0;Windows;10;undefined;undefined;2560 x 1440;2560 x 1440
H014;32;Mannelijk;Rechts;2;105;left;no;700;leftarrow;873;true;focus;yes;493762;Chrome;112.0;Windows;10;undefined;undefined;2560 x 1440;2560 x 1440
H014;32;Mannelijk;Rechts;2;106;left;no;700;leftarrow;910;true;focus;yes;495431;Chrome;112.0;Windows;10;undefined;undefined;2560 x 1440;2560 x 1440
H014;32;Mannelijk;Rechts;2;107;right;no;700;rightarrow;845;true;focus;yes;497041;Chrome;112.0;Windows;10;undefined;undefined;2560 x 1440;2560 x 1440
H014;32;Mannelijk;Rechts;2;108;left;no;700;leftarrow;862;true;focus;yes;498673;Chrome;112.0;Windows;10;undefined;undefined;2560 x 1440;2560 x 1440
H014;32;Mannelijk;Rechts;2;109;right;yes;700;undefined;null;true;focus;yes;500711;Chrome;112.0;Windows;10;undefined;undefined;2560 x 1440;2560 x 1440
H014;32;Mannelijk;Rechts;2;110;right;no;750;rightarrow;354;true;focus;yes;501844;Chrome;112.0;Windows;10;undefined;undefined;2560 x 1440;2560 x 1440
H014;32;Mannelijk;Rechts;2;111;left;yes;750;leftarrow;394;false;focus;yes;503014;Chrome;112.0;Windows;10;undefined;undefined;2560 x 1440;2560 x 1440
H014;32;Mannelijk;Rechts;2;112;right;no;700;rightarrow;1051;true;focus;yes;504847;Chrome;112.0;Windows;10;undefined;undefined;2560 x 1440;2560 x 1440
H014;32;Mannelijk;Rechts;2;113;right;no;700;rightarrow;913;true;focus;yes;506539;Chrome;112.0;Windows;10;undefined;undefined;2560 x 1440;2560 x 1440
H014;32;Mannelijk;Rechts;2;114;left;yes;700;leftarrow;520;false;focus;yes;507835;Chrome;112.0;Windows;10;undefined;undefined;2560 x 1440;2560 x 1440
H014;32;Mannelijk;Rechts;2;115;left;no;650;leftarrow;847;true;focus;yes;509450;Chrome;112.0;Windows;10;undefined;undefined;2560 x 1440;2560 x 1440
H014;32;Mannelijk;Rechts;2;116;right;no;650;rightarrow;795;true;focus;yes;511011;Chrome;112.0;Windows;10;undefined;undefined;2560 x 1440;2560 x 1440
H014;32;Mannelijk;Rechts;2;117;right;yes;650;undefined;null;true;focus;yes;513047;Chrome;112.0;Windows;10;undefined;undefined;2560 x 1440;2560 x 1440
H014;32;Mannelijk;Rechts;2;118;left;no;700;leftarrow;372;true;focus;yes;514185;Chrome;112.0;Windows;10;undefined;undefined;2560 x 1440;2560 x 1440
H014;32;Mannelijk;Rechts;2;119;left;no;700;leftarrow;789;true;focus;yes;515736;Chrome;112.0;Windows;10;undefined;undefined;2560 x 1440;2560 x 1440
H014;32;Mannelijk;Rechts;2;120;right;no;700;rightarrow;727;true;focus;yes;517241;Chrome;112.0;Windows;10;undefined;undefined;2560 x 1440;2560 x 1440
H014;32;Mannelijk;Rechts;2;121;right;no;700;rightarrow;855;true;focus;yes;518876;Chrome;112.0;Windows;10;undefined;undefined;2560 x 1440;2560 x 1440
H014;32;Mannelijk;Rechts;2;122;right;no;700;rightarrow;776;true;focus;yes;520426;Chrome;112.0;Windows;10;undefined;undefined;2560 x 1440;2560 x 1440
H014;32;Mannelijk;Rechts;2;123;left;no;700;leftarrow;859;true;focus;yes;522061;Chrome;112.0;Windows;10;undefined;undefined;2560 x 1440;2560 x 1440
H014;32;Mannelijk;Rechts;2;124;left;yes;700;undefined;null;true;focus;yes;524087;Chrome;112.0;Windows;10;undefined;undefined;2560 x 1440;2560 x 1440
H014;32;Mannelijk;Rechts;2;125;left;no;750;leftarrow;378;true;focus;yes;525243;Chrome;112.0;Windows;10;undefined;undefined;2560 x 1440;2560 x 1440
H014;32;Mannelijk;Rechts;2;126;right;yes;750;rightarrow;409;false;focus;yes;526405;Chrome;112.0;Windows;10;undefined;undefined;2560 x 1440;2560 x 1440
H014;32;Mannelijk;Rechts;2;127;right;no;700;rightarrow;956;true;focus;yes;528129;Chrome;112.0;Windows;10;undefined;undefined;2560 x 1440;2560 x 1440
H014;32;Mannelijk;Rechts;2;128;left;no;700;leftarrow;868;true;focus;yes;529766;Chrome;112.0;Windows;10;undefined;undefined;2560 x 1440;2560 x 1440
H014;32;Mannelijk;Rechts;3;1;left;no;700;leftarrow;434;true;focus;yes;551167;Chrome;112.0;Windows;10;undefined;undefined;2560 x 1440;2560 x 1440
H014;32;Mannelijk;Rechts;3;2;right;no;700;rightarrow;628;true;focus;yes;552571;Chrome;112.0;Windows;10;undefined;undefined;2560 x 1440;2560 x 1440
H014;32;Mannelijk;Rechts;3;3;left;no;700;leftarrow;761;true;focus;yes;554098;Chrome;112.0;Windows;10;undefined;undefined;2560 x 1440;2560 x 1440
H014;32;Mannelijk;Rechts;3;4;left;yes;700;leftarrow;796;false;focus;yes;555669;Chrome;112.0;Windows;10;undefined;undefined;2560 x 1440;2560 x 1440
H014;32;Mannelijk;Rechts;3;5;left;no;650;leftarrow;363;true;focus;yes;556803;Chrome;112.0;Windows;10;undefined;undefined;2560 x 1440;2560 x 1440
H014;32;Mannelijk;Rechts;3;6;right;no;650;rightarrow;468;true;focus;yes;558042;Chrome;112.0;Windows;10;undefined;undefined;2560 x 1440;2560 x 1440
H014;32;Mannelijk;Rechts;3;7;right;no;650;rightarrow;684;true;focus;yes;559497;Chrome;112.0;Windows;10;undefined;undefined;2560 x 1440;2560 x 1440
H014;32;Mannelijk;Rechts;3;8;right;yes;650;rightarrow;736;false;focus;yes;561012;Chrome;112.0;Windows;10;undefined;undefined;2560 x 1440;2560 x 1440
H014;32;Mannelijk;Rechts;3;9;left;no;600;leftarrow;347;true;focus;yes;562137;Chrome;112.0;Windows;10;undefined;undefined;2560 x 1440;2560 x 1440
H014;32;Mannelijk;Rechts;3;10;left;no;600;leftarrow;795;true;focus;yes;563702;Chrome;112.0;Windows;10;undefined;undefined;2560 x 1440;2560 x 1440
H014;32;Mannelijk;Rechts;3;11;left;yes;600;undefined;null;true;focus;yes;565735;Chrome;112.0;Windows;10;undefined;undefined;2560 x 1440;2560 x 1440
H014;32;Mannelijk;Rechts;3;12;right;no;650;rightarrow;338;true;focus;yes;566850;Chrome;112.0;Windows;10;undefined;undefined;2560 x 1440;2560 x 1440
H014;32;Mannelijk;Rechts;3;13;left;no;650;leftarrow;882;true;focus;yes;568511;Chrome;112.0;Windows;10;undefined;undefined;2560 x 1440;2560 x 1440
H014;32;Mannelijk;Rechts;3;14;right;no;650;rightarrow;763;true;focus;yes;570055;Chrome;112.0;Windows;10;undefined;undefined;2560 x 1440;2560 x 1440
H014;32;Mannelijk;Rechts;3;15;right;no;650;rightarrow;699;true;focus;yes;571525;Chrome;112.0;Windows;10;undefined;undefined;2560 x 1440;2560 x 1440
H014;32;Mannelijk;Rechts;3;16;right;yes;650;undefined;null;true;focus;yes;573561;Chrome;112.0;Windows;10;undefined;undefined;2560 x 1440;2560 x 1440
H014;32;Mannelijk;Rechts;3;17;left;no;700;leftarrow;331;true;focus;yes;574671;Chrome;112.0;Windows;10;undefined;undefined;2560 x 1440;2560 x 1440
H014;32;Mannelijk;Rechts;3;18;left;no;700;leftarrow;407;true;focus;yes;575836;Chrome;112.0;Windows;10;undefined;undefined;2560 x 1440;2560 x 1440
H014;32;Mannelijk;Rechts;3;19;left;yes;700;leftarrow;783;false;focus;yes;577391;Chrome;112.0;Windows;10;undefined;undefined;2560 x 1440;2560 x 1440
H014;32;Mannelijk;Rechts;3;20;right;no;650;rightarrow;374;true;focus;yes;578534;Chrome;112.0;Windows;10;undefined;undefined;2560 x 1440;2560 x 1440
H014;32;Mannelijk;Rechts;3;21;left;no;650;leftarrow;837;true;focus;yes;580146;Chrome;112.0;Windows;10;undefined;undefined;2560 x 1440;2560 x 1440
H014;32;Mannelijk;Rechts;3;22;right;yes;650;undefined;null;true;focus;yes;582184;Chrome;112.0;Windows;10;undefined;undefined;2560 x 1440;2560 x 1440
H014;32;Mannelijk;Rechts;3;23;right;no;700;rightarrow;384;true;focus;yes;583346;Chrome;112.0;Windows;10;undefined;undefined;2560 x 1440;2560 x 1440
H014;32;Mannelijk;Rechts;3;24;right;no;700;rightarrow;463;true;focus;yes;584590;Chrome;112.0;Windows;10;undefined;undefined;2560 x 1440;2560 x 1440
H014;32;Mannelijk;Rechts;3;25;right;yes;700;undefined;null;true;focus;yes;586623;Chrome;112.0;Windows;10;undefined;undefined;2560 x 1440;2560 x 1440
H014;32;Mannelijk;Rechts;3;26;right;no;750;rightarrow;332;true;focus;yes;587733;Chrome;112.0;Windows;10;undefined;undefined;2560 x 1440;2560 x 1440
H014;32;Mannelijk;Rechts;3;27;right;no;750;rightarrow;789;true;focus;yes;589280;Chrome;112.0;Windows;10;undefined;undefined;2560 x 1440;2560 x 1440
H014;32;Mannelijk;Rechts;3;28;left;yes;750;undefined;null;true;focus;yes;591309;Chrome;112.0;Windows;10;undefined;undefined;2560 x 1440;2560 x 1440
H014;32;Mannelijk;Rechts;3;29;left;no;800;leftarrow;371;true;focus;yes;592445;Chrome;112.0;Windows;10;undefined;undefined;2560 x 1440;2560 x 1440
H014;32;Mannelijk;Rechts;3;30;right;no;800;rightarrow;773;true;focus;yes;593987;Chrome;112.0;Windows;10;undefined;undefined;2560 x 1440;2560 x 1440
H014;32;Mannelijk;Rechts;3;31;left;no;800;leftarrow;1011;true;focus;yes;595779;Chrome;112.0;Windows;10;undefined;undefined;2560 x 1440;2560 x 1440
H014;32;Mannelijk;Rechts;3;32;left;no;800;leftarrow;1154;true;focus;yes;597712;Chrome;112.0;Windows;10;undefined;undefined;2560 x 1440;2560 x 1440
H014;32;Mannelijk;Rechts;3;33;right;no;800;rightarrow;981;true;focus;yes;599464;Chrome;112.0;Windows;10;undefined;undefined;2560 x 1440;2560 x 1440
H014;32;Mannelijk;Rechts;3;34;left;no;800;leftarrow;907;true;focus;yes;601140;Chrome;112.0;Windows;10;undefined;undefined;2560 x 1440;2560 x 1440
H014;32;Mannelijk;Rechts;3;35;left;no;800;leftarrow;1043;true;focus;yes;602953;Chrome;112.0;Windows;10;undefined;undefined;2560 x 1440;2560 x 1440
H014;32;Mannelijk;Rechts;3;36;right;no;800;rightarrow;988;true;focus;yes;604712;Chrome;112.0;Windows;10;undefined;undefined;2560 x 1440;2560 x 1440
H014;32;Mannelijk;Rechts;3;37;right;no;800;rightarrow;899;true;focus;yes;606392;Chrome;112.0;Windows;10;undefined;undefined;2560 x 1440;2560 x 1440
H014;32;Mannelijk;Rechts;3;38;left;no;800;leftarrow;982;true;focus;yes;608141;Chrome;112.0;Windows;10;undefined;undefined;2560 x 1440;2560 x 1440
H014;32;Mannelijk;Rechts;3;39;right;yes;800;rightarrow;918;false;focus;yes;609829;Chrome;112.0;Windows;10;undefined;undefined;2560 x 1440;2560 x 1440
H014;32;Mannelijk;Rechts;3;40;left;yes;750;leftarrow;323;false;focus;yes;610928;Chrome;112.0;Windows;10;undefined;undefined;2560 x 1440;2560 x 1440
H014;32;Mannelijk;Rechts;3;41;left;yes;700;undefined;null;true;focus;yes;612958;Chrome;112.0;Windows;10;undefined;undefined;2560 x 1440;2560 x 1440
H014;32;Mannelijk;Rechts;3;42;right;no;750;rightarrow;306;true;focus;yes;614042;Chrome;112.0;Windows;10;undefined;undefined;2560 x 1440;2560 x 1440
H014;32;Mannelijk;Rechts;3;43;right;no;750;rightarrow;804;true;focus;yes;615628;Chrome;112.0;Windows;10;undefined;undefined;2560 x 1440;2560 x 1440
H014;32;Mannelijk;Rechts;3;44;left;no;750;leftarrow;1018;true;focus;yes;617415;Chrome;112.0;Windows;10;undefined;undefined;2560 x 1440;2560 x 1440
H014;32;Mannelijk;Rechts;3;45;right;no;750;rightarrow;1101;true;focus;yes;619282;Chrome;112.0;Windows;10;undefined;undefined;2560 x 1440;2560 x 1440
H014;32;Mannelijk;Rechts;3;46;left;no;750;leftarrow;1094;true;focus;yes;621157;Chrome;112.0;Windows;10;undefined;undefined;2560 x 1440;2560 x 1440
H014;32;Mannelijk;Rechts;3;47;right;yes;750;rightarrow;884;false;focus;yes;622809;Chrome;112.0;Windows;10;undefined;undefined;2560 x 1440;2560 x 1440
H014;32;Mannelijk;Rechts;3;48;left;no;700;leftarrow;294;true;focus;yes;623876;Chrome;112.0;Windows;10;undefined;undefined;2560 x 1440;2560 x 1440
H014;32;Mannelijk;Rechts;3;49;left;no;700;leftarrow;912;true;focus;yes;625566;Chrome;112.0;Windows;10;undefined;undefined;2560 x 1440;2560 x 1440
H014;32;Mannelijk;Rechts;3;50;right;yes;700;undefined;null;true;focus;yes;627600;Chrome;112.0;Windows;10;undefined;undefined;2560 x 1440;2560 x 1440
H014;32;Mannelijk;Rechts;3;51;right;no;750;rightarrow;317;true;focus;yes;628694;Chrome;112.0;Windows;10;undefined;undefined;2560 x 1440;2560 x 1440
H014;32;Mannelijk;Rechts;3;52;left;no;750;leftarrow;799;true;focus;yes;630273;Chrome;112.0;Windows;10;undefined;undefined;2560 x 1440;2560 x 1440
H014;32;Mannelijk;Rechts;3;53;left;yes;750;leftarrow;844;false;focus;yes;631882;Chrome;112.0;Windows;10;undefined;undefined;2560 x 1440;2560 x 1440
H014;32;Mannelijk;Rechts;3;54;right;no;700;rightarrow;341;true;focus;yes;633001;Chrome;112.0;Windows;10;undefined;undefined;2560 x 1440;2560 x 1440
H014;32;Mannelijk;Rechts;3;55;left;no;700;leftarrow;1056;true;focus;yes;634838;Chrome;112.0;Windows;10;undefined;undefined;2560 x 1440;2560 x 1440
H014;32;Mannelijk;Rechts;3;56;right;no;700;rightarrow;1081;true;focus;yes;636696;Chrome;112.0;Windows;10;undefined;undefined;2560 x 1440;2560 x 1440
H014;32;Mannelijk;Rechts;3;57;left;yes;700;undefined;null;true;focus;yes;638727;Chrome;112.0;Windows;10;undefined;undefined;2560 x 1440;2560 x 1440
H014;32;Mannelijk;Rechts;3;58;left;no;750;leftarrow;465;true;focus;yes;639959;Chrome;112.0;Windows;10;undefined;undefined;2560 x 1440;2560 x 1440
H014;32;Mannelijk;Rechts;3;59;right;no;750;rightarrow;645;true;focus;yes;641373;Chrome;112.0;Windows;10;undefined;undefined;2560 x 1440;2560 x 1440
H014;32;Mannelijk;Rechts;3;60;right;no;750;rightarrow;869;true;focus;yes;643022;Chrome;112.0;Windows;10;undefined;undefined;2560 x 1440;2560 x 1440
H014;32;Mannelijk;Rechts;3;61;left;no;750;leftarrow;1104;true;focus;yes;644900;Chrome;112.0;Windows;10;undefined;undefined;2560 x 1440;2560 x 1440
H014;32;Mannelijk;Rechts;3;62;left;no;750;leftarrow;1018;true;focus;yes;646697;Chrome;112.0;Windows;10;undefined;undefined;2560 x 1440;2560 x 1440
H014;32;Mannelijk;Rechts;3;63;right;no;750;rightarrow;1067;true;focus;yes;648541;Chrome;112.0;Windows;10;undefined;undefined;2560 x 1440;2560 x 1440
H014;32;Mannelijk;Rechts;3;64;right;yes;750;undefined;null;true;focus;yes;650569;Chrome;112.0;Windows;10;undefined;undefined;2560 x 1440;2560 x 1440
H014;32;Mannelijk;Rechts;3;65;left;no;800;leftarrow;335;true;focus;yes;651660;Chrome;112.0;Windows;10;undefined;undefined;2560 x 1440;2560 x 1440
H014;32;Mannelijk;Rechts;3;66;left;yes;800;undefined;null;true;focus;yes;653681;Chrome;112.0;Windows;10;undefined;undefined;2560 x 1440;2560 x 1440
H014;32;Mannelijk;Rechts;3;67;right;no;850;rightarrow;285;true;focus;yes;654734;Chrome;112.0;Windows;10;undefined;undefined;2560 x 1440;2560 x 1440
H014;32;Mannelijk;Rechts;3;68;left;no;850;leftarrow;945;true;focus;yes;656450;Chrome;112.0;Windows;10;undefined;undefined;2560 x 1440;2560 x 1440
H014;32;Mannelijk;Rechts;3;69;right;yes;850;rightarrow;930;false;focus;yes;658154;Chrome;112.0;Windows;10;undefined;undefined;2560 x 1440;2560 x 1440
H014;32;Mannelijk;Rechts;3;70;right;no;800;rightarrow;474;true;focus;yes;659402;Chrome;112.0;Windows;10;undefined;undefined;2560 x 1440;2560 x 1440
H014;32;Mannelijk;Rechts;3;71;right;no;800;rightarrow;1000;true;focus;yes;661172;Chrome;112.0;Windows;10;undefined;undefined;2560 x 1440;2560 x 1440
H014;32;Mannelijk;Rechts;3;72;left;no;800;leftarrow;1060;true;focus;yes;663011;Chrome;112.0;Windows;10;undefined;undefined;2560 x 1440;2560 x 1440
H014;32;Mannelijk;Rechts;3;73;left;yes;800;undefined;null;true;focus;yes;665042;Chrome;112.0;Windows;10;undefined;undefined;2560 x 1440;2560 x 1440
H014;32;Mannelijk;Rechts;3;74;left;no;850;leftarrow;389;true;focus;yes;666211;Chrome;112.0;Windows;10;undefined;undefined;2560 x 1440;2560 x 1440
H014;32;Mannelijk;Rechts;3;75;right;no;850;rightarrow;857;true;focus;yes;667848;Chrome;112.0;Windows;10;undefined;undefined;2560 x 1440;2560 x 1440
H014;32;Mannelijk;Rechts;3;76;right;no;850;rightarrow;1052;true;focus;yes;669677;Chrome;112.0;Windows;10;undefined;undefined;2560 x 1440;2560 x 1440
H014;32;Mannelijk;Rechts;3;77;right;no;850;rightarrow;1128;true;focus;yes;671583;Chrome;112.0;Windows;10;undefined;undefined;2560 x 1440;2560 x 1440
H014;32;Mannelijk;Rechts;3;78;right;yes;850;rightarrow;1013;false;focus;yes;673378;Chrome;112.0;Windows;10;undefined;undefined;2560 x 1440;2560 x 1440
H014;32;Mannelijk;Rechts;3;79;left;no;800;leftarrow;295;true;focus;yes;674448;Chrome;112.0;Windows;10;undefined;undefined;2560 x 1440;2560 x 1440
H014;32;Mannelijk;Rechts;3;80;left;no;800;leftarrow;378;true;focus;yes;675600;Chrome;112.0;Windows;10;undefined;undefined;2560 x 1440;2560 x 1440
H014;32;Mannelijk;Rechts;3;81;right;no;800;rightarrow;959;true;focus;yes;677331;Chrome;112.0;Windows;10;undefined;undefined;2560 x 1440;2560 x 1440
H014;32;Mannelijk;Rechts;3;82;right;no;800;rightarrow;1040;true;focus;yes;679137;Chrome;112.0;Windows;10;undefined;undefined;2560 x 1440;2560 x 1440
H014;32;Mannelijk;Rechts;3;83;left;no;800;leftarrow;1094;true;focus;yes;681010;Chrome;112.0;Windows;10;undefined;undefined;2560 x 1440;2560 x 1440
H014;32;Mannelijk;Rechts;3;84;left;yes;800;undefined;null;true;focus;yes;683034;Chrome;112.0;Windows;10;undefined;undefined;2560 x 1440;2560 x 1440
H014;32;Mannelijk;Rechts;3;85;right;yes;850;rightarrow;393;false;focus;yes;684206;Chrome;112.0;Windows;10;undefined;undefined;2560 x 1440;2560 x 1440
H014;32;Mannelijk;Rechts;3;86;right;no;800;rightarrow;813;true;focus;yes;685789;Chrome;112.0;Windows;10;undefined;undefined;2560 x 1440;2560 x 1440
H014;32;Mannelijk;Rechts;3;87;left;no;800;leftarrow;978;true;focus;yes;687538;Chrome;112.0;Windows;10;undefined;undefined;2560 x 1440;2560 x 1440
H014;32;Mannelijk;Rechts;3;88;left;no;800;leftarrow;1102;true;focus;yes;689420;Chrome;112.0;Windows;10;undefined;undefined;2560 x 1440;2560 x 1440
H014;32;Mannelijk;Rechts;3;89;right;no;800;rightarrow;1143;true;focus;yes;691337;Chrome;112.0;Windows;10;undefined;undefined;2560 x 1440;2560 x 1440
H014;32;Mannelijk;Rechts;3;90;left;no;800;leftarrow;1138;true;focus;yes;693253;Chrome;112.0;Windows;10;undefined;undefined;2560 x 1440;2560 x 1440
H014;32;Mannelijk;Rechts;3;91;right;no;800;rightarrow;1003;true;focus;yes;695027;Chrome;112.0;Windows;10;undefined;undefined;2560 x 1440;2560 x 1440
H014;32;Mannelijk;Rechts;3;92;left;no;800;leftarrow;1165;true;focus;yes;696959;Chrome;112.0;Windows;10;undefined;undefined;2560 x 1440;2560 x 1440
H014;32;Mannelijk;Rechts;3;93;left;yes;800;undefined;null;true;focus;yes;698988;Chrome;112.0;Windows;10;undefined;undefined;2560 x 1440;2560 x 1440
H014;32;Mannelijk;Rechts;3;94;right;no;850;rightarrow;333;true;focus;yes;700088;Chrome;112.0;Windows;10;undefined;undefined;2560 x 1440;2560 x 1440
H014;32;Mannelijk;Rechts;3;95;left;no;850;leftarrow;871;true;focus;yes;701738;Chrome;112.0;Windows;10;undefined;undefined;2560 x 1440;2560 x 1440
H014;32;Mannelijk;Rechts;3;96;right;yes;850;rightarrow;961;false;focus;yes;703469;Chrome;112.0;Windows;10;undefined;undefined;2560 x 1440;2560 x 1440
H014;32;Mannelijk;Rechts;3;97;right;no;800;rightarrow;375;true;focus;yes;704625;Chrome;112.0;Windows;10;undefined;undefined;2560 x 1440;2560 x 1440
H014;32;Mannelijk;Rechts;3;98;right;yes;800;undefined;null;true;focus;yes;706652;Chrome;112.0;Windows;10;undefined;undefined;2560 x 1440;2560 x 1440
H014;32;Mannelijk;Rechts;3;99;left;no;850;leftarrow;412;true;focus;yes;707829;Chrome;112.0;Windows;10;undefined;undefined;2560 x 1440;2560 x 1440
H014;32;Mannelijk;Rechts;3;100;right;no;850;rightarrow;805;true;focus;yes;709404;Chrome;112.0;Windows;10;undefined;undefined;2560 x 1440;2560 x 1440
H014;32;Mannelijk;Rechts;3;101;left;no;850;leftarrow;953;true;focus;yes;711127;Chrome;112.0;Windows;10;undefined;undefined;2560 x 1440;2560 x 1440
H014;32;Mannelijk;Rechts;3;102;left;yes;850;leftarrow;982;false;focus;yes;712876;Chrome;112.0;Windows;10;undefined;undefined;2560 x 1440;2560 x 1440
H014;32;Mannelijk;Rechts;3;103;right;no;800;rightarrow;352;true;focus;yes;714001;Chrome;112.0;Windows;10;undefined;undefined;2560 x 1440;2560 x 1440
H014;32;Mannelijk;Rechts;3;104;left;no;800;leftarrow;1053;true;focus;yes;715831;Chrome;112.0;Windows;10;undefined;undefined;2560 x 1440;2560 x 1440
H014;32;Mannelijk;Rechts;3;105;left;no;800;leftarrow;943;true;focus;yes;717553;Chrome;112.0;Windows;10;undefined;undefined;2560 x 1440;2560 x 1440
H014;32;Mannelijk;Rechts;3;106;left;no;800;leftarrow;841;true;focus;yes;719164;Chrome;112.0;Windows;10;undefined;undefined;2560 x 1440;2560 x 1440
H014;32;Mannelijk;Rechts;3;107;left;no;800;leftarrow;1025;true;focus;yes;720962;Chrome;112.0;Windows;10;undefined;undefined;2560 x 1440;2560 x 1440
H014;32;Mannelijk;Rechts;3;108;right;yes;800;rightarrow;939;false;focus;yes;722678;Chrome;112.0;Windows;10;undefined;undefined;2560 x 1440;2560 x 1440
H014;32;Mannelijk;Rechts;3;109;right;no;750;rightarrow;307;true;focus;yes;723766;Chrome;112.0;Windows;10;undefined;undefined;2560 x 1440;2560 x 1440
H014;32;Mannelijk;Rechts;3;110;right;no;750;rightarrow;1119;true;focus;yes;725652;Chrome;112.0;Windows;10;undefined;undefined;2560 x 1440;2560 x 1440
H014;32;Mannelijk;Rechts;3;111;right;no;750;rightarrow;1061;true;focus;yes;727488;Chrome;112.0;Windows;10;undefined;undefined;2560 x 1440;2560 x 1440
H014;32;Mannelijk;Rechts;3;112;left;yes;750;undefined;null;true;focus;yes;729513;Chrome;112.0;Windows;10;undefined;undefined;2560 x 1440;2560 x 1440
H014;32;Mannelijk;Rechts;3;113;right;no;800;rightarrow;338;true;focus;yes;730620;Chrome;112.0;Windows;10;undefined;undefined;2560 x 1440;2560 x 1440
H014;32;Mannelijk;Rechts;3;114;left;yes;800;undefined;null;true;focus;yes;732634;Chrome;112.0;Windows;10;undefined;undefined;2560 x 1440;2560 x 1440
H014;32;Mannelijk;Rechts;3;115;left;no;850;leftarrow;342;true;focus;yes;733762;Chrome;112.0;Windows;10;undefined;undefined;2560 x 1440;2560 x 1440
H014;32;Mannelijk;Rechts;3;116;right;no;850;rightarrow;855;true;focus;yes;735391;Chrome;112.0;Windows;10;undefined;undefined;2560 x 1440;2560 x 1440
H014;32;Mannelijk;Rechts;3;117;left;no;850;leftarrow;918;true;focus;yes;737088;Chrome;112.0;Windows;10;undefined;undefined;2560 x 1440;2560 x 1440
H014;32;Mannelijk;Rechts;3;118;left;no;850;leftarrow;947;true;focus;yes;738807;Chrome;112.0;Windows;10;undefined;undefined;2560 x 1440;2560 x 1440
H014;32;Mannelijk;Rechts;3;119;right;no;850;rightarrow;1048;true;focus;yes;740628;Chrome;112.0;Windows;10;undefined;undefined;2560 x 1440;2560 x 1440
H014;32;Mannelijk;Rechts;3;120;right;yes;850;rightarrow;966;false;focus;yes;742376;Chrome;112.0;Windows;10;undefined;undefined;2560 x 1440;2560 x 1440
H014;32;Mannelijk;Rechts;3;121;right;no;800;rightarrow;318;true;focus;yes;743461;Chrome;112.0;Windows;10;undefined;undefined;2560 x 1440;2560 x 1440
H014;32;Mannelijk;Rechts;3;122;left;yes;800;undefined;null;true;focus;yes;745484;Chrome;112.0;Windows;10;undefined;undefined;2560 x 1440;2560 x 1440
H014;32;Mannelijk;Rechts;3;123;left;no;850;leftarrow;353;true;focus;yes;746604;Chrome;112.0;Windows;10;undefined;undefined;2560 x 1440;2560 x 1440
H014;32;Mannelijk;Rechts;3;124;right;no;850;rightarrow;991;true;focus;yes;748371;Chrome;112.0;Windows;10;undefined;undefined;2560 x 1440;2560 x 1440
H014;32;Mannelijk;Rechts;3;125;right;no;850;rightarrow;1045;true;focus;yes;750192;Chrome;112.0;Windows;10;undefined;undefined;2560 x 1440;2560 x 1440
H014;32;Mannelijk;Rechts;3;126;left;no;850;leftarrow;1022;true;focus;yes;751985;Chrome;112.0;Windows;10;undefined;undefined;2560 x 1440;2560 x 1440
H014;32;Mannelijk;Rechts;3;127;right;yes;850;undefined;null;true;focus;yes;754020;Chrome;112.0;Windows;10;undefined;undefined;2560 x 1440;2560 x 1440
H014;32;Mannelijk;Rechts;3;128;left;no;900;leftarrow;317;true;focus;yes;755119;Chrome;112.0;Windows;10;undefined;undefined;2560 x 1440;2560 x 1440
H014;32;Mannelijk;Rechts;4;1;right;no;900;rightarrow;369;true;focus;yes;773778;Chrome;112.0;Windows;10;undefined;undefined;2560 x 1440;2560 x 1440
H014;32;Mannelijk;Rechts;4;2;right;yes;900;rightarrow;748;false;focus;yes;775295;Chrome;112.0;Windows;10;undefined;undefined;2560 x 1440;2560 x 1440
H014;32;Mannelijk;Rechts;4;3;right;no;850;rightarrow;881;true;focus;yes;776951;Chrome;112.0;Windows;10;undefined;undefined;2560 x 1440;2560 x 1440
H014;32;Mannelijk;Rechts;4;4;left;yes;850;leftarrow;848;false;focus;yes;778578;Chrome;112.0;Windows;10;undefined;undefined;2560 x 1440;2560 x 1440
H014;32;Mannelijk;Rechts;4;5;left;no;800;leftarrow;1014;true;focus;yes;780363;Chrome;112.0;Windows;10;undefined;undefined;2560 x 1440;2560 x 1440
H014;32;Mannelijk;Rechts;4;6;right;no;800;rightarrow;947;true;focus;yes;782079;Chrome;112.0;Windows;10;undefined;undefined;2560 x 1440;2560 x 1440
H014;32;Mannelijk;Rechts;4;7;left;no;800;leftarrow;978;true;focus;yes;783837;Chrome;112.0;Windows;10;undefined;undefined;2560 x 1440;2560 x 1440
H014;32;Mannelijk;Rechts;4;8;left;no;800;leftarrow;1174;true;focus;yes;785786;Chrome;112.0;Windows;10;undefined;undefined;2560 x 1440;2560 x 1440
H014;32;Mannelijk;Rechts;4;9;right;yes;800;undefined;null;true;focus;yes;787813;Chrome;112.0;Windows;10;undefined;undefined;2560 x 1440;2560 x 1440
H014;32;Mannelijk;Rechts;4;10;left;no;850;leftarrow;406;true;focus;yes;788984;Chrome;112.0;Windows;10;undefined;undefined;2560 x 1440;2560 x 1440
H014;32;Mannelijk;Rechts;4;11;right;no;850;rightarrow;1055;true;focus;yes;790798;Chrome;112.0;Windows;10;undefined;undefined;2560 x 1440;2560 x 1440
H014;32;Mannelijk;Rechts;4;12;left;no;850;leftarrow;945;true;focus;yes;792520;Chrome;112.0;Windows;10;undefined;undefined;2560 x 1440;2560 x 1440
H014;32;Mannelijk;Rechts;4;13;right;no;850;rightarrow;1113;true;focus;yes;794404;Chrome;112.0;Windows;10;undefined;undefined;2560 x 1440;2560 x 1440
H014;32;Mannelijk;Rechts;4;14;left;no;850;undefined;null;false;focus;yes;796440;Chrome;112.0;Windows;10;undefined;undefined;2560 x 1440;2560 x 1440
H014;32;Mannelijk;Rechts;4;15;left;yes;850;leftarrow;410;false;focus;yes;797626;Chrome;112.0;Windows;10;undefined;undefined;2560 x 1440;2560 x 1440
H014;32;Mannelijk;Rechts;4;16;right;no;800;rightarrow;416;true;focus;yes;798822;Chrome;112.0;Windows;10;undefined;undefined;2560 x 1440;2560 x 1440
H014;32;Mannelijk;Rechts;4;17;right;no;800;rightarrow;766;true;focus;yes;800370;Chrome;112.0;Windows;10;undefined;undefined;2560 x 1440;2560 x 1440
H014;32;Mannelijk;Rechts;4;18;right;no;800;rightarrow;712;true;focus;yes;801864;Chrome;112.0;Windows;10;undefined;undefined;2560 x 1440;2560 x 1440
H014;32;Mannelijk;Rechts;4;19;left;no;800;leftarrow;995;true;focus;yes;803637;Chrome;112.0;Windows;10;undefined;undefined;2560 x 1440;2560 x 1440
H014;32;Mannelijk;Rechts;4;20;left;yes;800;leftarrow;420;false;focus;yes;804820;Chrome;112.0;Windows;10;undefined;undefined;2560 x 1440;2560 x 1440
H014;32;Mannelijk;Rechts;4;21;left;no;750;leftarrow;582;true;focus;yes;806174;Chrome;112.0;Windows;10;undefined;undefined;2560 x 1440;2560 x 1440
H014;32;Mannelijk;Rechts;4;22;right;no;750;rightarrow;861;true;focus;yes;807802;Chrome;112.0;Windows;10;undefined;undefined;2560 x 1440;2560 x 1440
H014;32;Mannelijk;Rechts;4;23;left;no;750;leftarrow;922;true;focus;yes;809494;Chrome;112.0;Windows;10;undefined;undefined;2560 x 1440;2560 x 1440
H014;32;Mannelijk;Rechts;4;24;right;yes;750;rightarrow;726;false;focus;yes;810991;Chrome;112.0;Windows;10;undefined;undefined;2560 x 1440;2560 x 1440
H014;32;Mannelijk;Rechts;4;25;left;no;700;leftarrow;791;true;focus;yes;812554;Chrome;112.0;Windows;10;undefined;undefined;2560 x 1440;2560 x 1440
H014;32;Mannelijk;Rechts;4;26;left;no;700;leftarrow;716;true;focus;yes;814047;Chrome;112.0;Windows;10;undefined;undefined;2560 x 1440;2560 x 1440
H014;32;Mannelijk;Rechts;4;27;right;yes;700;undefined;null;true;focus;yes;816079;Chrome;112.0;Windows;10;undefined;undefined;2560 x 1440;2560 x 1440
H014;32;Mannelijk;Rechts;4;28;left;no;750;leftarrow;326;true;focus;yes;817182;Chrome;112.0;Windows;10;undefined;undefined;2560 x 1440;2560 x 1440
H014;32;Mannelijk;Rechts;4;29;right;no;750;rightarrow;324;true;focus;yes;818279;Chrome;112.0;Windows;10;undefined;undefined;2560 x 1440;2560 x 1440
H014;32;Mannelijk;Rechts;4;30;right;no;750;rightarrow;358;true;focus;yes;819414;Chrome;112.0;Windows;10;undefined;undefined;2560 x 1440;2560 x 1440
H014;32;Mannelijk;Rechts;4;31;right;no;750;rightarrow;767;true;focus;yes;820954;Chrome;112.0;Windows;10;undefined;undefined;2560 x 1440;2560 x 1440
H014;32;Mannelijk;Rechts;4;32;left;yes;750;leftarrow;838;false;focus;yes;822563;Chrome;112.0;Windows;10;undefined;undefined;2560 x 1440;2560 x 1440
H014;32;Mannelijk;Rechts;4;33;left;no;700;leftarrow;346;true;focus;yes;823681;Chrome;112.0;Windows;10;undefined;undefined;2560 x 1440;2560 x 1440
H014;32;Mannelijk;Rechts;4;34;right;yes;700;rightarrow;306;false;focus;yes;824748;Chrome;112.0;Windows;10;undefined;undefined;2560 x 1440;2560 x 1440
H014;32;Mannelijk;Rechts;4;35;left;no;650;leftarrow;381;true;focus;yes;825911;Chrome;112.0;Windows;10;undefined;undefined;2560 x 1440;2560 x 1440
H014;32;Mannelijk;Rechts;4;36;right;no;650;rightarrow;706;true;focus;yes;827386;Chrome;112.0;Windows;10;undefined;undefined;2560 x 1440;2560 x 1440
H014;32;Mannelijk;Rechts;4;37;left;yes;650;leftarrow;746;false;focus;yes;828905;Chrome;112.0;Windows;10;undefined;undefined;2560 x 1440;2560 x 1440
H014;32;Mannelijk;Rechts;4;38;right;no;600;rightarrow;334;true;focus;yes;830013;Chrome;112.0;Windows;10;undefined;undefined;2560 x 1440;2560 x 1440
H014;32;Mannelijk;Rechts;4;39;left;no;600;leftarrow;341;true;focus;yes;831129;Chrome;112.0;Windows;10;undefined;undefined;2560 x 1440;2560 x 1440
H014;32;Mannelijk;Rechts;4;40;right;no;600;rightarrow;792;true;focus;yes;832699;Chrome;112.0;Windows;10;undefined;undefined;2560 x 1440;2560 x 1440
H014;32;Mannelijk;Rechts;4;41;left;yes;600;undefined;null;true;focus;yes;834728;Chrome;112.0;Windows;10;undefined;undefined;2560 x 1440;2560 x 1440
H014;32;Mannelijk;Rechts;4;42;right;no;650;rightarrow;314;true;focus;yes;835824;Chrome;112.0;Windows;10;undefined;undefined;2560 x 1440;2560 x 1440
H014;32;Mannelijk;Rechts;4;43;left;no;650;leftarrow;909;true;focus;yes;837508;Chrome;112.0;Windows;10;undefined;undefined;2560 x 1440;2560 x 1440
H014;32;Mannelijk;Rechts;4;44;right;no;650;rightarrow;625;true;focus;yes;838904;Chrome;112.0;Windows;10;undefined;undefined;2560 x 1440;2560 x 1440
H014;32;Mannelijk;Rechts;4;45;right;yes;650;rightarrow;726;false;focus;yes;840406;Chrome;112.0;Windows;10;undefined;undefined;2560 x 1440;2560 x 1440
H014;32;Mannelijk;Rechts;4;46;left;no;600;leftarrow;296;true;focus;yes;841481;Chrome;112.0;Windows;10;undefined;undefined;2560 x 1440;2560 x 1440
H014;32;Mannelijk;Rechts;4;47;right;no;600;rightarrow;270;true;focus;yes;842527;Chrome;112.0;Windows;10;undefined;undefined;2560 x 1440;2560 x 1440
H014;32;Mannelijk;Rechts;4;48;left;no;600;leftarrow;747;true;focus;yes;844047;Chrome;112.0;Windows;10;undefined;undefined;2560 x 1440;2560 x 1440
H014;32;Mannelijk;Rechts;4;49;right;yes;600;rightarrow;748;false;focus;yes;845563;Chrome;112.0;Windows;10;undefined;undefined;2560 x 1440;2560 x 1440
H014;32;Mannelijk;Rechts;4;50;left;no;550;leftarrow;337;true;focus;yes;846676;Chrome;112.0;Windows;10;undefined;undefined;2560 x 1440;2560 x 1440
H014;32;Mannelijk;Rechts;4;51;right;no;550;rightarrow;962;true;focus;yes;848421;Chrome;112.0;Windows;10;undefined;undefined;2560 x 1440;2560 x 1440
H014;32;Mannelijk;Rechts;4;52;left;no;550;leftarrow;943;true;focus;yes;850144;Chrome;112.0;Windows;10;undefined;undefined;2560 x 1440;2560 x 1440
H014;32;Mannelijk;Rechts;4;53;left;no;550;leftarrow;903;true;focus;yes;851815;Chrome;112.0;Windows;10;undefined;undefined;2560 x 1440;2560 x 1440
H014;32;Mannelijk;Rechts;4;54;right;no;550;rightarrow;1005;true;focus;yes;853594;Chrome;112.0;Windows;10;undefined;undefined;2560 x 1440;2560 x 1440
H014;32;Mannelijk;Rechts;4;55;right;no;550;rightarrow;919;true;focus;yes;855296;Chrome;112.0;Windows;10;undefined;undefined;2560 x 1440;2560 x 1440
H014;32;Mannelijk;Rechts;4;56;left;yes;550;undefined;null;true;focus;yes;857326;Chrome;112.0;Windows;10;undefined;undefined;2560 x 1440;2560 x 1440
H014;32;Mannelijk;Rechts;4;57;left;no;600;leftarrow;434;true;focus;yes;858525;Chrome;112.0;Windows;10;undefined;undefined;2560 x 1440;2560 x 1440
H014;32;Mannelijk;Rechts;4;58;left;yes;600;leftarrow;740;false;focus;yes;860041;Chrome;112.0;Windows;10;undefined;undefined;2560 x 1440;2560 x 1440
H014;32;Mannelijk;Rechts;4;59;right;no;550;rightarrow;288;true;focus;yes;861096;Chrome;112.0;Windows;10;undefined;undefined;2560 x 1440;2560 x 1440
H014;32;Mannelijk;Rechts;4;60;right;no;550;rightarrow;965;true;focus;yes;862828;Chrome;112.0;Windows;10;undefined;undefined;2560 x 1440;2560 x 1440
H014;32;Mannelijk;Rechts;4;61;left;no;550;leftarrow;890;true;focus;yes;864491;Chrome;112.0;Windows;10;undefined;undefined;2560 x 1440;2560 x 1440
H014;32;Mannelijk;Rechts;4;62;right;yes;550;undefined;null;true;focus;yes;866534;Chrome;112.0;Windows;10;undefined;undefined;2560 x 1440;2560 x 1440
H014;32;Mannelijk;Rechts;4;63;left;no;600;leftarrow;355;true;focus;yes;867670;Chrome;112.0;Windows;10;undefined;undefined;2560 x 1440;2560 x 1440
H014;32;Mannelijk;Rechts;4;64;right;no;600;rightarrow;628;true;focus;yes;869079;Chrome;112.0;Windows;10;undefined;undefined;2560 x 1440;2560 x 1440
H014;32;Mannelijk;Rechts;4;65;left;no;600;leftarrow;828;true;focus;yes;870680;Chrome;112.0;Windows;10;undefined;undefined;2560 x 1440;2560 x 1440
H014;32;Mannelijk;Rechts;4;66;right;no;600;rightarrow;864;true;focus;yes;872317;Chrome;112.0;Windows;10;undefined;undefined;2560 x 1440;2560 x 1440
H014;32;Mannelijk;Rechts;4;67;right;no;600;rightarrow;871;true;focus;yes;873957;Chrome;112.0;Windows;10;undefined;undefined;2560 x 1440;2560 x 1440
H014;32;Mannelijk;Rechts;4;68;left;no;600;leftarrow;752;true;focus;yes;875484;Chrome;112.0;Windows;10;undefined;undefined;2560 x 1440;2560 x 1440
H014;32;Mannelijk;Rechts;4;69;right;no;600;rightarrow;755;true;focus;yes;877007;Chrome;112.0;Windows;10;undefined;undefined;2560 x 1440;2560 x 1440
H014;32;Mannelijk;Rechts;4;70;right;yes;600;undefined;null;true;focus;yes;879043;Chrome;112.0;Windows;10;undefined;undefined;2560 x 1440;2560 x 1440
H014;32;Mannelijk;Rechts;4;71;left;no;650;leftarrow;318;true;focus;yes;880129;Chrome;112.0;Windows;10;undefined;undefined;2560 x 1440;2560 x 1440
H014;32;Mannelijk;Rechts;4;72;left;yes;650;undefined;null;true;focus;yes;882150;Chrome;112.0;Windows;10;undefined;undefined;2560 x 1440;2560 x 1440
H014;32;Mannelijk;Rechts;4;73;left;yes;700;leftarrow;372;false;focus;yes;883302;Chrome;112.0;Windows;10;undefined;undefined;2560 x 1440;2560 x 1440
H014;32;Mannelijk;Rechts;4;74;left;no;650;leftarrow;813;true;focus;yes;884895;Chrome;112.0;Windows;10;undefined;undefined;2560 x 1440;2560 x 1440
H014;32;Mannelijk;Rechts;4;75;right;yes;650;undefined;null;true;focus;yes;886926;Chrome;112.0;Windows;10;undefined;undefined;2560 x 1440;2560 x 1440
H014;32;Mannelijk;Rechts;4;76;left;no;700;leftarrow;366;true;focus;yes;888071;Chrome;112.0;Windows;10;undefined;undefined;2560 x 1440;2560 x 1440
H014;32;Mannelijk;Rechts;4;77;right;no;700;rightarrow;866;true;focus;yes;889709;Chrome;112.0;Windows;10;undefined;undefined;2560 x 1440;2560 x 1440
H014;32;Mannelijk;Rechts;4;78;right;no;700;rightarrow;757;true;focus;yes;891241;Chrome;112.0;Windows;10;undefined;undefined;2560 x 1440;2560 x 1440
H014;32;Mannelijk;Rechts;4;79;right;no;700;rightarrow;902;true;focus;yes;892920;Chrome;112.0;Windows;10;undefined;undefined;2560 x 1440;2560 x 1440
H014;32;Mannelijk;Rechts;4;80;left;no;700;leftarrow;932;true;focus;yes;894634;Chrome;112.0;Windows;10;undefined;undefined;2560 x 1440;2560 x 1440
H014;32;Mannelijk;Rechts;4;81;right;no;700;rightarrow;874;true;focus;yes;896279;Chrome;112.0;Windows;10;undefined;undefined;2560 x 1440;2560 x 1440
H014;32;Mannelijk;Rechts;4;82;left;no;700;leftarrow;1082;true;focus;yes;898129;Chrome;112.0;Windows;10;undefined;undefined;2560 x 1440;2560 x 1440
H014;32;Mannelijk;Rechts;4;83;right;no;700;rightarrow;1095;true;focus;yes;900003;Chrome;112.0;Windows;10;undefined;undefined;2560 x 1440;2560 x 1440
H014;32;Mannelijk;Rechts;4;84;left;no;700;leftarrow;369;true;focus;yes;901139;Chrome;112.0;Windows;10;undefined;undefined;2560 x 1440;2560 x 1440
H014;32;Mannelijk;Rechts;4;85;left;no;700;leftarrow;436;true;focus;yes;902357;Chrome;112.0;Windows;10;undefined;undefined;2560 x 1440;2560 x 1440
H014;32;Mannelijk;Rechts;4;86;left;yes;700;leftarrow;742;false;focus;yes;903872;Chrome;112.0;Windows;10;undefined;undefined;2560 x 1440;2560 x 1440
H014;32;Mannelijk;Rechts;4;87;right;no;650;rightarrow;351;true;focus;yes;904998;Chrome;112.0;Windows;10;undefined;undefined;2560 x 1440;2560 x 1440
H014;32;Mannelijk;Rechts;4;88;right;yes;650;rightarrow;566;false;focus;yes;906332;Chrome;112.0;Windows;10;undefined;undefined;2560 x 1440;2560 x 1440
H014;32;Mannelijk;Rechts;4;89;left;no;600;leftarrow;842;true;focus;yes;907943;Chrome;112.0;Windows;10;undefined;undefined;2560 x 1440;2560 x 1440
H014;32;Mannelijk;Rechts;4;90;left;no;600;leftarrow;764;true;focus;yes;909480;Chrome;112.0;Windows;10;undefined;undefined;2560 x 1440;2560 x 1440
H014;32;Mannelijk;Rechts;4;91;right;no;600;rightarrow;810;true;focus;yes;911068;Chrome;112.0;Windows;10;undefined;undefined;2560 x 1440;2560 x 1440
H014;32;Mannelijk;Rechts;4;92;left;yes;600;undefined;null;true;focus;yes;913093;Chrome;112.0;Windows;10;undefined;undefined;2560 x 1440;2560 x 1440
H014;32;Mannelijk;Rechts;4;93;left;no;650;leftarrow;312;true;focus;yes;914184;Chrome;112.0;Windows;10;undefined;undefined;2560 x 1440;2560 x 1440
H014;32;Mannelijk;Rechts;4;94;right;no;650;rightarrow;321;true;focus;yes;915282;Chrome;112.0;Windows;10;undefined;undefined;2560 x 1440;2560 x 1440
H014;32;Mannelijk;Rechts;4;95;right;no;650;rightarrow;818;true;focus;yes;916881;Chrome;112.0;Windows;10;undefined;undefined;2560 x 1440;2560 x 1440
H014;32;Mannelijk;Rechts;4;96;right;yes;650;undefined;null;true;focus;yes;918916;Chrome;112.0;Windows;10;undefined;undefined;2560 x 1440;2560 x 1440
H014;32;Mannelijk;Rechts;4;97;right;no;700;rightarrow;322;true;focus;yes;920004;Chrome;112.0;Windows;10;undefined;undefined;2560 x 1440;2560 x 1440
H014;32;Mannelijk;Rechts;4;98;left;yes;700;leftarrow;400;false;focus;yes;921181;Chrome;112.0;Windows;10;undefined;undefined;2560 x 1440;2560 x 1440
H014;32;Mannelijk;Rechts;4;99;right;yes;650;undefined;null;true;focus;yes;923203;Chrome;112.0;Windows;10;undefined;undefined;2560 x 1440;2560 x 1440
H014;32;Mannelijk;Rechts;4;100;right;no;700;rightarrow;310;true;focus;yes;924295;Chrome;112.0;Windows;10;undefined;undefined;2560 x 1440;2560 x 1440
H014;32;Mannelijk;Rechts;4;101;left;no;700;leftarrow;351;true;focus;yes;925421;Chrome;112.0;Windows;10;undefined;undefined;2560 x 1440;2560 x 1440
H014;32;Mannelijk;Rechts;4;102;right;no;700;rightarrow;915;true;focus;yes;927113;Chrome;112.0;Windows;10;undefined;undefined;2560 x 1440;2560 x 1440
H014;32;Mannelijk;Rechts;4;103;left;no;700;leftarrow;752;true;focus;yes;928635;Chrome;112.0;Windows;10;undefined;undefined;2560 x 1440;2560 x 1440
H014;32;Mannelijk;Rechts;4;104;left;no;700;leftarrow;752;true;focus;yes;930155;Chrome;112.0;Windows;10;undefined;undefined;2560 x 1440;2560 x 1440
H014;32;Mannelijk;Rechts;4;105;right;no;700;rightarrow;831;true;focus;yes;931757;Chrome;112.0;Windows;10;undefined;undefined;2560 x 1440;2560 x 1440
H014;32;Mannelijk;Rechts;4;106;left;no;700;leftarrow;837;true;focus;yes;933373;Chrome;112.0;Windows;10;undefined;undefined;2560 x 1440;2560 x 1440
H014;32;Mannelijk;Rechts;4;107;left;no;700;leftarrow;866;true;focus;yes;935015;Chrome;112.0;Windows;10;undefined;undefined;2560 x 1440;2560 x 1440
H014;32;Mannelijk;Rechts;4;108;right;no;700;rightarrow;302;true;focus;yes;936090;Chrome;112.0;Windows;10;undefined;undefined;2560 x 1440;2560 x 1440
H014;32;Mannelijk;Rechts;4;109;left;no;700;leftarrow;327;true;focus;yes;937186;Chrome;112.0;Windows;10;undefined;undefined;2560 x 1440;2560 x 1440
H014;32;Mannelijk;Rechts;4;110;left;yes;700;leftarrow;483;false;focus;yes;938438;Chrome;112.0;Windows;10;undefined;undefined;2560 x 1440;2560 x 1440
H014;32;Mannelijk;Rechts;4;111;right;no;650;rightarrow;797;true;focus;yes;940010;Chrome;112.0;Windows;10;undefined;undefined;2560 x 1440;2560 x 1440
H014;32;Mannelijk;Rechts;4;112;right;yes;650;rightarrow;828;false;focus;yes;941608;Chrome;112.0;Windows;10;undefined;undefined;2560 x 1440;2560 x 1440
H014;32;Mannelijk;Rechts;4;113;right;no;600;rightarrow;311;true;focus;yes;942687;Chrome;112.0;Windows;10;undefined;undefined;2560 x 1440;2560 x 1440
H014;32;Mannelijk;Rechts;4;114;right;yes;600;rightarrow;474;false;focus;yes;943940;Chrome;112.0;Windows;10;undefined;undefined;2560 x 1440;2560 x 1440
H014;32;Mannelijk;Rechts;4;115;left;no;550;leftarrow;834;true;focus;yes;945547;Chrome;112.0;Windows;10;undefined;undefined;2560 x 1440;2560 x 1440
H014;32;Mannelijk;Rechts;4;116;left;no;550;leftarrow;748;true;focus;yes;947071;Chrome;112.0;Windows;10;undefined;undefined;2560 x 1440;2560 x 1440
H014;32;Mannelijk;Rechts;4;117;left;no;550;leftarrow;834;true;focus;yes;948678;Chrome;112.0;Windows;10;undefined;undefined;2560 x 1440;2560 x 1440
H014;32;Mannelijk;Rechts;4;118;right;no;550;rightarrow;838;true;focus;yes;950297;Chrome;112.0;Windows;10;undefined;undefined;2560 x 1440;2560 x 1440
H014;32;Mannelijk;Rechts;4;119;right;no;550;rightarrow;851;true;focus;yes;951914;Chrome;112.0;Windows;10;undefined;undefined;2560 x 1440;2560 x 1440
H014;32;Mannelijk;Rechts;4;120;left;yes;550;undefined;null;true;focus;yes;953949;Chrome;112.0;Windows;10;undefined;undefined;2560 x 1440;2560 x 1440
H014;32;Mannelijk;Rechts;4;121;right;no;600;rightarrow;349;true;focus;yes;955063;Chrome;112.0;Windows;10;undefined;undefined;2560 x 1440;2560 x 1440
H014;32;Mannelijk;Rechts;4;122;left;no;600;leftarrow;553;true;focus;yes;956397;Chrome;112.0;Windows;10;undefined;undefined;2560 x 1440;2560 x 1440
H014;32;Mannelijk;Rechts;4;123;left;no;600;leftarrow;898;true;focus;yes;958078;Chrome;112.0;Windows;10;undefined;undefined;2560 x 1440;2560 x 1440
H014;32;Mannelijk;Rechts;4;124;right;yes;600;rightarrow;682;false;focus;yes;959542;Chrome;112.0;Windows;10;undefined;undefined;2560 x 1440;2560 x 1440
H014;32;Mannelijk;Rechts;4;125;left;no;550;leftarrow;343;true;focus;yes;960662;Chrome;112.0;Windows;10;undefined;undefined;2560 x 1440;2560 x 1440
H014;32;Mannelijk;Rechts;4;126;left;yes;550;undefined;null;true;focus;yes;962701;Chrome;112.0;Windows;10;undefined;undefined;2560 x 1440;2560 x 1440
H014;32;Mannelijk;Rechts;4;127;right;no;600;rightarrow;322;true;focus;yes;963802;Chrome;112.0;Windows;10;undefined;undefined;2560 x 1440;2560 x 1440
H014;32;Mannelijk;Rechts;4;128;right;no;600;rightarrow;437;true;focus;yes;965020;Chrome;112.0;Windows;10;undefined;undefined;2560 x 1440;2560 x 1440
H014;32;Mannelijk;Rechts;5;1;right;no;600;rightarrow;331;true;focus;yes;984389;Chrome;112.0;Windows;10;undefined;undefined;2560 x 1440;2560 x 1440
H014;32;Mannelijk;Rechts;5;2;right;yes;600;rightarrow;707;false;focus;yes;985869;Chrome;112.0;Windows;10;undefined;undefined;2560 x 1440;2560 x 1440
H014;32;Mannelijk;Rechts;5;3;left;no;550;leftarrow;375;true;focus;yes;987023;Chrome;112.0;Windows;10;undefined;undefined;2560 x 1440;2560 x 1440
H014;32;Mannelijk;Rechts;5;4;right;no;550;rightarrow;781;true;focus;yes;988578;Chrome;112.0;Windows;10;undefined;undefined;2560 x 1440;2560 x 1440
H014;32;Mannelijk;Rechts;5;5;right;no;550;rightarrow;962;true;focus;yes;990310;Chrome;112.0;Windows;10;undefined;undefined;2560 x 1440;2560 x 1440
H014;32;Mannelijk;Rechts;5;6;left;no;550;leftarrow;661;true;focus;yes;991729;Chrome;112.0;Windows;10;undefined;undefined;2560 x 1440;2560 x 1440
H014;32;Mannelijk;Rechts;5;7;left;no;550;leftarrow;814;true;focus;yes;993309;Chrome;112.0;Windows;10;undefined;undefined;2560 x 1440;2560 x 1440
H014;32;Mannelijk;Rechts;5;8;left;yes;550;undefined;null;true;focus;yes;995341;Chrome;112.0;Windows;10;undefined;undefined;2560 x 1440;2560 x 1440
H014;32;Mannelijk;Rechts;5;9;right;no;600;rightarrow;277;true;focus;yes;996395;Chrome;112.0;Windows;10;undefined;undefined;2560 x 1440;2560 x 1440
H014;32;Mannelijk;Rechts;5;10;left;no;600;leftarrow;649;true;focus;yes;997822;Chrome;112.0;Windows;10;undefined;undefined;2560 x 1440;2560 x 1440
H014;32;Mannelijk;Rechts;5;11;right;no;600;rightarrow;718;true;focus;yes;999320;Chrome;112.0;Windows;10;undefined;undefined;2560 x 1440;2560 x 1440
H014;32;Mannelijk;Rechts;5;12;right;yes;600;rightarrow;718;false;focus;yes;1000814;Chrome;112.0;Windows;10;undefined;undefined;2560 x 1440;2560 x 1440
H014;32;Mannelijk;Rechts;5;13;left;yes;550;leftarrow;248;false;focus;yes;1001830;Chrome;112.0;Windows;10;undefined;undefined;2560 x 1440;2560 x 1440
H014;32;Mannelijk;Rechts;5;14;right;no;500;rightarrow;820;true;focus;yes;1003427;Chrome;112.0;Windows;10;undefined;undefined;2560 x 1440;2560 x 1440
H014;32;Mannelijk;Rechts;5;15;left;no;500;leftarrow;407;true;focus;yes;1004617;Chrome;112.0;Windows;10;undefined;undefined;2560 x 1440;2560 x 1440
H014;32;Mannelijk;Rechts;5;16;left;no;500;leftarrow;688;true;focus;yes;1006080;Chrome;112.0;Windows;10;undefined;undefined;2560 x 1440;2560 x 1440
H014;32;Mannelijk;Rechts;5;17;right;no;500;rightarrow;776;true;focus;yes;1007626;Chrome;112.0;Windows;10;undefined;undefined;2560 x 1440;2560 x 1440
H014;32;Mannelijk;Rechts;5;18;left;no;500;leftarrow;828;true;focus;yes;1009230;Chrome;112.0;Windows;10;undefined;undefined;2560 x 1440;2560 x 1440
H014;32;Mannelijk;Rechts;5;19;right;no;500;rightarrow;925;true;focus;yes;1010927;Chrome;112.0;Windows;10;undefined;undefined;2560 x 1440;2560 x 1440
H014;32;Mannelijk;Rechts;5;20;right;yes;500;undefined;null;true;focus;yes;1012964;Chrome;112.0;Windows;10;undefined;undefined;2560 x 1440;2560 x 1440
H014;32;Mannelijk;Rechts;5;21;left;no;550;leftarrow;323;true;focus;yes;1014065;Chrome;112.0;Windows;10;undefined;undefined;2560 x 1440;2560 x 1440
H014;32;Mannelijk;Rechts;5;22;right;no;550;rightarrow;737;true;focus;yes;1015585;Chrome;112.0;Windows;10;undefined;undefined;2560 x 1440;2560 x 1440
H014;32;Mannelijk;Rechts;5;23;left;yes;550;undefined;null;true;focus;yes;1017623;Chrome;112.0;Windows;10;undefined;undefined;2560 x 1440;2560 x 1440
H014;32;Mannelijk;Rechts;5;24;left;no;600;leftarrow;310;true;focus;yes;1018701;Chrome;112.0;Windows;10;undefined;undefined;2560 x 1440;2560 x 1440
H014;32;Mannelijk;Rechts;5;25;right;no;600;rightarrow;764;true;focus;yes;1020239;Chrome;112.0;Windows;10;undefined;undefined;2560 x 1440;2560 x 1440
H014;32;Mannelijk;Rechts;5;26;left;no;600;leftarrow;725;true;focus;yes;1021740;Chrome;112.0;Windows;10;undefined;undefined;2560 x 1440;2560 x 1440
H014;32;Mannelijk;Rechts;5;27;left;no;600;leftarrow;778;true;focus;yes;1023282;Chrome;112.0;Windows;10;undefined;undefined;2560 x 1440;2560 x 1440
H014;32;Mannelijk;Rechts;5;28;left;no;600;leftarrow;753;true;focus;yes;1024811;Chrome;112.0;Windows;10;undefined;undefined;2560 x 1440;2560 x 1440
H014;32;Mannelijk;Rechts;5;29;right;yes;600;rightarrow;720;false;focus;yes;1026298;Chrome;112.0;Windows;10;undefined;undefined;2560 x 1440;2560 x 1440
H014;32;Mannelijk;Rechts;5;30;left;yes;550;leftarrow;352;false;focus;yes;1027421;Chrome;112.0;Windows;10;undefined;undefined;2560 x 1440;2560 x 1440
H014;32;Mannelijk;Rechts;5;31;right;no;500;rightarrow;404;true;focus;yes;1028592;Chrome;112.0;Windows;10;undefined;undefined;2560 x 1440;2560 x 1440
H014;32;Mannelijk;Rechts;5;32;right;no;500;rightarrow;821;true;focus;yes;1030192;Chrome;112.0;Windows;10;undefined;undefined;2560 x 1440;2560 x 1440
H014;32;Mannelijk;Rechts;5;33;right;no;500;rightarrow;656;true;focus;yes;1031626;Chrome;112.0;Windows;10;undefined;undefined;2560 x 1440;2560 x 1440
H014;32;Mannelijk;Rechts;5;34;left;no;500;leftarrow;663;true;focus;yes;1033059;Chrome;112.0;Windows;10;undefined;undefined;2560 x 1440;2560 x 1440
H014;32;Mannelijk;Rechts;5;35;right;no;500;rightarrow;795;true;focus;yes;1034631;Chrome;112.0;Windows;10;undefined;undefined;2560 x 1440;2560 x 1440
H014;32;Mannelijk;Rechts;5;36;left;no;500;leftarrow;757;true;focus;yes;1036170;Chrome;112.0;Windows;10;undefined;undefined;2560 x 1440;2560 x 1440
H014;32;Mannelijk;Rechts;5;37;right;yes;500;undefined;null;true;focus;yes;1038201;Chrome;112.0;Windows;10;undefined;undefined;2560 x 1440;2560 x 1440
H014;32;Mannelijk;Rechts;5;38;right;no;550;rightarrow;370;true;focus;yes;1039339;Chrome;112.0;Windows;10;undefined;undefined;2560 x 1440;2560 x 1440
H014;32;Mannelijk;Rechts;5;39;left;yes;550;leftarrow;300;false;focus;yes;1040420;Chrome;112.0;Windows;10;undefined;undefined;2560 x 1440;2560 x 1440
H014;32;Mannelijk;Rechts;5;40;left;no;500;leftarrow;776;true;focus;yes;1041965;Chrome;112.0;Windows;10;undefined;undefined;2560 x 1440;2560 x 1440
H014;32;Mannelijk;Rechts;5;41;left;no;500;leftarrow;874;true;focus;yes;1043620;Chrome;112.0;Windows;10;undefined;undefined;2560 x 1440;2560 x 1440
H014;32;Mannelijk;Rechts;5;42;left;no;500;leftarrow;780;true;focus;yes;1045169;Chrome;112.0;Windows;10;undefined;undefined;2560 x 1440;2560 x 1440
H014;32;Mannelijk;Rechts;5;43;right;no;500;rightarrow;728;true;focus;yes;1046668;Chrome;112.0;Windows;10;undefined;undefined;2560 x 1440;2560 x 1440
H014;32;Mannelijk;Rechts;5;44;left;yes;500;undefined;null;true;focus;yes;1048695;Chrome;112.0;Windows;10;undefined;undefined;2560 x 1440;2560 x 1440
H014;32;Mannelijk;Rechts;5;45;right;no;550;rightarrow;377;true;focus;yes;1049852;Chrome;112.0;Windows;10;undefined;undefined;2560 x 1440;2560 x 1440
H014;32;Mannelijk;Rechts;5;46;left;no;550;leftarrow;354;true;focus;yes;1050981;Chrome;112.0;Windows;10;undefined;undefined;2560 x 1440;2560 x 1440
H014;32;Mannelijk;Rechts;5;47;right;yes;550;undefined;null;true;focus;yes;1053012;Chrome;112.0;Windows;10;undefined;undefined;2560 x 1440;2560 x 1440
H014;32;Mannelijk;Rechts;5;48;right;no;600;rightarrow;344;true;focus;yes;1054133;Chrome;112.0;Windows;10;undefined;undefined;2560 x 1440;2560 x 1440
H014;32;Mannelijk;Rechts;5;49;right;no;600;rightarrow;411;true;focus;yes;1055319;Chrome;112.0;Windows;10;undefined;undefined;2560 x 1440;2560 x 1440
H014;32;Mannelijk;Rechts;5;50;left;no;600;leftarrow;544;true;focus;yes;1056645;Chrome;112.0;Windows;10;undefined;undefined;2560 x 1440;2560 x 1440
H014;32;Mannelijk;Rechts;5;51;right;no;600;rightarrow;726;true;focus;yes;1058149;Chrome;112.0;Windows;10;undefined;undefined;2560 x 1440;2560 x 1440
H014;32;Mannelijk;Rechts;5;52;left;no;600;leftarrow;721;true;focus;yes;1059643;Chrome;112.0;Windows;10;undefined;undefined;2560 x 1440;2560 x 1440
H014;32;Mannelijk;Rechts;5;53;right;no;600;rightarrow;580;true;focus;yes;1061001;Chrome;112.0;Windows;10;undefined;undefined;2560 x 1440;2560 x 1440
H014;32;Mannelijk;Rechts;5;54;right;yes;600;undefined;null;true;focus;yes;1063021;Chrome;112.0;Windows;10;undefined;undefined;2560 x 1440;2560 x 1440
H014;32;Mannelijk;Rechts;5;55;left;yes;650;leftarrow;349;false;focus;yes;1064137;Chrome;112.0;Windows;10;undefined;undefined;2560 x 1440;2560 x 1440
H014;32;Mannelijk;Rechts;5;56;left;no;600;leftarrow;468;true;focus;yes;1065385;Chrome;112.0;Windows;10;undefined;undefined;2560 x 1440;2560 x 1440
H014;32;Mannelijk;Rechts;5;57;left;no;600;leftarrow;832;true;focus;yes;1066989;Chrome;112.0;Windows;10;undefined;undefined;2560 x 1440;2560 x 1440
H014;32;Mannelijk;Rechts;5;58;right;no;600;rightarrow;695;true;focus;yes;1068463;Chrome;112.0;Windows;10;undefined;undefined;2560 x 1440;2560 x 1440
H014;32;Mannelijk;Rechts;5;59;left;no;600;leftarrow;730;true;focus;yes;1069975;Chrome;112.0;Windows;10;undefined;undefined;2560 x 1440;2560 x 1440
H014;32;Mannelijk;Rechts;5;60;left;yes;600;leftarrow;675;false;focus;yes;1071425;Chrome;112.0;Windows;10;undefined;undefined;2560 x 1440;2560 x 1440
H014;32;Mannelijk;Rechts;5;61;right;no;550;rightarrow;284;true;focus;yes;1072478;Chrome;112.0;Windows;10;undefined;undefined;2560 x 1440;2560 x 1440
H014;32;Mannelijk;Rechts;5;62;left;no;550;leftarrow;815;true;focus;yes;1074054;Chrome;112.0;Windows;10;undefined;undefined;2560 x 1440;2560 x 1440
H014;32;Mannelijk;Rechts;5;63;right;no;550;rightarrow;770;true;focus;yes;1075606;Chrome;112.0;Windows;10;undefined;undefined;2560 x 1440;2560 x 1440
H014;32;Mannelijk;Rechts;5;64;right;yes;550;undefined;null;true;focus;yes;1077652;Chrome;112.0;Windows;10;undefined;undefined;2560 x 1440;2560 x 1440
H014;32;Mannelijk;Rechts;5;65;right;no;600;rightarrow;301;true;focus;yes;1078731;Chrome;112.0;Windows;10;undefined;undefined;2560 x 1440;2560 x 1440
H014;32;Mannelijk;Rechts;5;66;right;no;600;rightarrow;342;true;focus;yes;1079842;Chrome;112.0;Windows;10;undefined;undefined;2560 x 1440;2560 x 1440
H014;32;Mannelijk;Rechts;5;67;right;yes;600;undefined;null;true;focus;yes;1081874;Chrome;112.0;Windows;10;undefined;undefined;2560 x 1440;2560 x 1440
H014;32;Mannelijk;Rechts;5;68;left;yes;650;leftarrow;379;false;focus;yes;1083020;Chrome;112.0;Windows;10;undefined;undefined;2560 x 1440;2560 x 1440
H014;32;Mannelijk;Rechts;5;69;left;no;600;leftarrow;717;true;focus;yes;1084506;Chrome;112.0;Windows;10;undefined;undefined;2560 x 1440;2560 x 1440
H014;32;Mannelijk;Rechts;5;70;left;no;600;leftarrow;853;true;focus;yes;1086120;Chrome;112.0;Windows;10;undefined;undefined;2560 x 1440;2560 x 1440
H014;32;Mannelijk;Rechts;5;71;right;no;600;rightarrow;807;true;focus;yes;1087702;Chrome;112.0;Windows;10;undefined;undefined;2560 x 1440;2560 x 1440
H014;32;Mannelijk;Rechts;5;72;left;no;600;leftarrow;760;true;focus;yes;1089235;Chrome;112.0;Windows;10;undefined;undefined;2560 x 1440;2560 x 1440
H014;32;Mannelijk;Rechts;5;73;left;no;600;leftarrow;812;true;focus;yes;1090823;Chrome;112.0;Windows;10;undefined;undefined;2560 x 1440;2560 x 1440
H014;32;Mannelijk;Rechts;5;74;right;no;600;rightarrow;777;true;focus;yes;1092380;Chrome;112.0;Windows;10;undefined;undefined;2560 x 1440;2560 x 1440
H014;32;Mannelijk;Rechts;5;75;right;no;600;rightarrow;898;true;focus;yes;1094054;Chrome;112.0;Windows;10;undefined;undefined;2560 x 1440;2560 x 1440
H014;32;Mannelijk;Rechts;5;76;right;no;600;rightarrow;810;true;focus;yes;1095632;Chrome;112.0;Windows;10;undefined;undefined;2560 x 1440;2560 x 1440
H014;32;Mannelijk;Rechts;5;77;left;yes;600;undefined;null;true;focus;yes;1097669;Chrome;112.0;Windows;10;undefined;undefined;2560 x 1440;2560 x 1440
H014;32;Mannelijk;Rechts;5;78;left;no;650;leftarrow;339;true;focus;yes;1098788;Chrome;112.0;Windows;10;undefined;undefined;2560 x 1440;2560 x 1440
H014;32;Mannelijk;Rechts;5;79;left;no;650;leftarrow;777;true;focus;yes;1100342;Chrome;112.0;Windows;10;undefined;undefined;2560 x 1440;2560 x 1440
H014;32;Mannelijk;Rechts;5;80;right;yes;650;rightarrow;731;false;focus;yes;1101843;Chrome;112.0;Windows;10;undefined;undefined;2560 x 1440;2560 x 1440
H014;32;Mannelijk;Rechts;5;81;left;no;600;leftarrow;305;true;focus;yes;1102919;Chrome;112.0;Windows;10;undefined;undefined;2560 x 1440;2560 x 1440
H014;32;Mannelijk;Rechts;5;82;right;no;600;rightarrow;659;true;focus;yes;1104362;Chrome;112.0;Windows;10;undefined;undefined;2560 x 1440;2560 x 1440
H014;32;Mannelijk;Rechts;5;83;right;yes;600;undefined;null;true;focus;yes;1106384;Chrome;112.0;Windows;10;undefined;undefined;2560 x 1440;2560 x 1440
H014;32;Mannelijk;Rechts;5;84;left;yes;650;leftarrow;361;false;focus;yes;1107527;Chrome;112.0;Windows;10;undefined;undefined;2560 x 1440;2560 x 1440
H014;32;Mannelijk;Rechts;5;85;right;no;600;rightarrow;915;true;focus;yes;1109212;Chrome;112.0;Windows;10;undefined;undefined;2560 x 1440;2560 x 1440
H014;32;Mannelijk;Rechts;5;86;right;no;600;rightarrow;821;true;focus;yes;1110812;Chrome;112.0;Windows;10;undefined;undefined;2560 x 1440;2560 x 1440
H014;32;Mannelijk;Rechts;5;87;left;no;600;leftarrow;741;true;focus;yes;1112327;Chrome;112.0;Windows;10;undefined;undefined;2560 x 1440;2560 x 1440
H014;32;Mannelijk;Rechts;5;88;left;no;600;leftarrow;769;true;focus;yes;1113876;Chrome;112.0;Windows;10;undefined;undefined;2560 x 1440;2560 x 1440
H014;32;Mannelijk;Rechts;5;89;left;yes;600;undefined;null;true;focus;yes;1115893;Chrome;112.0;Windows;10;undefined;undefined;2560 x 1440;2560 x 1440
H014;32;Mannelijk;Rechts;5;90;right;no;650;rightarrow;330;true;focus;yes;1116993;Chrome;112.0;Windows;10;undefined;undefined;2560 x 1440;2560 x 1440
H014;32;Mannelijk;Rechts;5;91;right;yes;650;undefined;null;true;focus;yes;1119040;Chrome;112.0;Windows;10;undefined;undefined;2560 x 1440;2560 x 1440
H014;32;Mannelijk;Rechts;5;92;right;no;700;rightarrow;320;true;focus;yes;1120126;Chrome;112.0;Windows;10;undefined;undefined;2560 x 1440;2560 x 1440
H014;32;Mannelijk;Rechts;5;93;left;no;700;leftarrow;547;true;focus;yes;1121450;Chrome;112.0;Windows;10;undefined;undefined;2560 x 1440;2560 x 1440
H014;32;Mannelijk;Rechts;5;94;left;no;700;leftarrow;545;true;focus;yes;1122764;Chrome;112.0;Windows;10;undefined;undefined;2560 x 1440;2560 x 1440
H014;32;Mannelijk;Rechts;5;95;left;no;700;leftarrow;717;true;focus;yes;1124257;Chrome;112.0;Windows;10;undefined;undefined;2560 x 1440;2560 x 1440
H014;32;Mannelijk;Rechts;5;96;right;no;700;rightarrow;676;true;focus;yes;1125701;Chrome;112.0;Windows;10;undefined;undefined;2560 x 1440;2560 x 1440
H014;32;Mannelijk;Rechts;5;97;left;yes;700;leftarrow;827;false;focus;yes;1127295;Chrome;112.0;Windows;10;undefined;undefined;2560 x 1440;2560 x 1440
H014;32;Mannelijk;Rechts;5;98;left;no;650;leftarrow;369;true;focus;yes;1128446;Chrome;112.0;Windows;10;undefined;undefined;2560 x 1440;2560 x 1440
H014;32;Mannelijk;Rechts;5;99;right;yes;650;rightarrow;773;false;focus;yes;1129993;Chrome;112.0;Windows;10;undefined;undefined;2560 x 1440;2560 x 1440
H014;32;Mannelijk;Rechts;5;100;left;no;600;leftarrow;282;true;focus;yes;1131057;Chrome;112.0;Windows;10;undefined;undefined;2560 x 1440;2560 x 1440
H014;32;Mannelijk;Rechts;5;101;left;no;600;leftarrow;831;true;focus;yes;1132659;Chrome;112.0;Windows;10;undefined;undefined;2560 x 1440;2560 x 1440
H014;32;Mannelijk;Rechts;5;102;right;no;600;rightarrow;813;true;focus;yes;1134253;Chrome;112.0;Windows;10;undefined;undefined;2560 x 1440;2560 x 1440
H014;32;Mannelijk;Rechts;5;103;right;no;600;rightarrow;819;true;focus;yes;1135854;Chrome;112.0;Windows;10;undefined;undefined;2560 x 1440;2560 x 1440
H014;32;Mannelijk;Rechts;5;104;right;no;600;rightarrow;427;true;focus;yes;1137058;Chrome;112.0;Windows;10;undefined;undefined;2560 x 1440;2560 x 1440
H014;32;Mannelijk;Rechts;5;105;left;no;600;leftarrow;692;true;focus;yes;1138532;Chrome;112.0;Windows;10;undefined;undefined;2560 x 1440;2560 x 1440
H014;32;Mannelijk;Rechts;5;106;left;no;600;leftarrow;822;true;focus;yes;1140133;Chrome;112.0;Windows;10;undefined;undefined;2560 x 1440;2560 x 1440
H014;32;Mannelijk;Rechts;5;107;left;yes;600;undefined;null;true;focus;yes;1142164;Chrome;112.0;Windows;10;undefined;undefined;2560 x 1440;2560 x 1440
H014;32;Mannelijk;Rechts;5;108;right;no;650;rightarrow;245;true;focus;yes;1143185;Chrome;112.0;Windows;10;undefined;undefined;2560 x 1440;2560 x 1440
H014;32;Mannelijk;Rechts;5;109;right;yes;650;rightarrow;595;false;focus;yes;1144563;Chrome;112.0;Windows;10;undefined;undefined;2560 x 1440;2560 x 1440
H014;32;Mannelijk;Rechts;5;110;left;no;600;leftarrow;732;true;focus;yes;1146063;Chrome;112.0;Windows;10;undefined;undefined;2560 x 1440;2560 x 1440
H014;32;Mannelijk;Rechts;5;111;right;no;600;rightarrow;804;true;focus;yes;1147638;Chrome;112.0;Windows;10;undefined;undefined;2560 x 1440;2560 x 1440
H014;32;Mannelijk;Rechts;5;112;right;no;600;rightarrow;815;true;focus;yes;1149231;Chrome;112.0;Windows;10;undefined;undefined;2560 x 1440;2560 x 1440
H014;32;Mannelijk;Rechts;5;113;left;no;600;leftarrow;781;true;focus;yes;1150791;Chrome;112.0;Windows;10;undefined;undefined;2560 x 1440;2560 x 1440
H014;32;Mannelijk;Rechts;5;114;left;no;600;leftarrow;700;true;focus;yes;1152261;Chrome;112.0;Windows;10;undefined;undefined;2560 x 1440;2560 x 1440
H014;32;Mannelijk;Rechts;5;115;right;no;600;rightarrow;799;true;focus;yes;1153831;Chrome;112.0;Windows;10;undefined;undefined;2560 x 1440;2560 x 1440
H014;32;Mannelijk;Rechts;5;116;right;no;600;rightarrow;873;true;focus;yes;1155483;Chrome;112.0;Windows;10;undefined;undefined;2560 x 1440;2560 x 1440
H014;32;Mannelijk;Rechts;5;117;right;no;600;rightarrow;779;true;focus;yes;1157039;Chrome;112.0;Windows;10;undefined;undefined;2560 x 1440;2560 x 1440
H014;32;Mannelijk;Rechts;5;118;left;yes;600;undefined;null;true;focus;yes;1159075;Chrome;112.0;Windows;10;undefined;undefined;2560 x 1440;2560 x 1440
H014;32;Mannelijk;Rechts;5;119;right;yes;650;rightarrow;366;false;focus;yes;1160209;Chrome;112.0;Windows;10;undefined;undefined;2560 x 1440;2560 x 1440
H014;32;Mannelijk;Rechts;5;120;left;no;600;leftarrow;628;true;focus;yes;1161617;Chrome;112.0;Windows;10;undefined;undefined;2560 x 1440;2560 x 1440
H014;32;Mannelijk;Rechts;5;121;left;yes;600;undefined;null;true;focus;yes;1163653;Chrome;112.0;Windows;10;undefined;undefined;2560 x 1440;2560 x 1440
H014;32;Mannelijk;Rechts;5;122;right;no;650;rightarrow;312;true;focus;yes;1164745;Chrome;112.0;Windows;10;undefined;undefined;2560 x 1440;2560 x 1440
H014;32;Mannelijk;Rechts;5;123;right;no;650;rightarrow;590;true;focus;yes;1166110;Chrome;112.0;Windows;10;undefined;undefined;2560 x 1440;2560 x 1440
H014;32;Mannelijk;Rechts;5;124;right;yes;650;rightarrow;635;false;focus;yes;1167518;Chrome;112.0;Windows;10;undefined;undefined;2560 x 1440;2560 x 1440
H014;32;Mannelijk;Rechts;5;125;left;no;600;leftarrow;851;true;focus;yes;1169145;Chrome;112.0;Windows;10;undefined;undefined;2560 x 1440;2560 x 1440
H014;32;Mannelijk;Rechts;5;126;left;no;600;leftarrow;721;true;focus;yes;1170650;Chrome;112.0;Windows;10;undefined;undefined;2560 x 1440;2560 x 1440
H014;32;Mannelijk;Rechts;5;127;left;no;600;leftarrow;575;true;focus;yes;1172002;Chrome;112.0;Windows;10;undefined;undefined;2560 x 1440;2560 x 1440
H014;32;Mannelijk;Rechts;5;128;right;no;600;rightarrow;652;true;focus;yes;1173428;Chrome;112.0;Windows;10;undefined;undefined;2560 x 1440;2560 x 1440
H014;32;Mannelijk;Rechts;6;1;right;no;600;rightarrow;342;true;focus;yes;1194410;Chrome;112.0;Windows;10;undefined;undefined;2560 x 1440;2560 x 1440
H014;32;Mannelijk;Rechts;6;2;left;no;600;leftarrow;619;true;focus;yes;1195791;Chrome;112.0;Windows;10;undefined;undefined;2560 x 1440;2560 x 1440
H014;32;Mannelijk;Rechts;6;3;left;no;600;leftarrow;679;true;focus;yes;1197244;Chrome;112.0;Windows;10;undefined;undefined;2560 x 1440;2560 x 1440
H014;32;Mannelijk;Rechts;6;4;left;yes;600;leftarrow;604;false;focus;yes;1198626;Chrome;112.0;Windows;10;undefined;undefined;2560 x 1440;2560 x 1440
H014;32;Mannelijk;Rechts;6;5;right;yes;550;rightarrow;499;false;focus;yes;1199900;Chrome;112.0;Windows;10;undefined;undefined;2560 x 1440;2560 x 1440
H014;32;Mannelijk;Rechts;6;6;right;no;500;rightarrow;496;true;focus;yes;1201164;Chrome;112.0;Windows;10;undefined;undefined;2560 x 1440;2560 x 1440
H014;32;Mannelijk;Rechts;6;7;left;no;500;leftarrow;560;true;focus;yes;1202498;Chrome;112.0;Windows;10;undefined;undefined;2560 x 1440;2560 x 1440
H014;32;Mannelijk;Rechts;6;8;right;no;500;rightarrow;485;true;focus;yes;1203758;Chrome;112.0;Windows;10;undefined;undefined;2560 x 1440;2560 x 1440
H014;32;Mannelijk;Rechts;6;9;left;no;500;leftarrow;577;true;focus;yes;1205117;Chrome;112.0;Windows;10;undefined;undefined;2560 x 1440;2560 x 1440
H014;32;Mannelijk;Rechts;6;10;right;no;500;rightarrow;803;true;focus;yes;1206691;Chrome;112.0;Windows;10;undefined;undefined;2560 x 1440;2560 x 1440
H014;32;Mannelijk;Rechts;6;11;left;no;500;leftarrow;710;true;focus;yes;1208170;Chrome;112.0;Windows;10;undefined;undefined;2560 x 1440;2560 x 1440
H014;32;Mannelijk;Rechts;6;12;right;yes;500;undefined;null;true;focus;yes;1210196;Chrome;112.0;Windows;10;undefined;undefined;2560 x 1440;2560 x 1440
H014;32;Mannelijk;Rechts;6;13;right;no;550;rightarrow;315;true;focus;yes;1211277;Chrome;112.0;Windows;10;undefined;undefined;2560 x 1440;2560 x 1440
H014;32;Mannelijk;Rechts;6;14;left;no;550;leftarrow;454;true;focus;yes;1212514;Chrome;112.0;Windows;10;undefined;undefined;2560 x 1440;2560 x 1440
H014;32;Mannelijk;Rechts;6;15;left;yes;550;leftarrow;640;false;focus;yes;1213912;Chrome;112.0;Windows;10;undefined;undefined;2560 x 1440;2560 x 1440
H014;32;Mannelijk;Rechts;6;16;right;no;500;rightarrow;274;true;focus;yes;1214957;Chrome;112.0;Windows;10;undefined;undefined;2560 x 1440;2560 x 1440
H014;32;Mannelijk;Rechts;6;17;right;yes;500;undefined;null;true;focus;yes;1216994;Chrome;112.0;Windows;10;undefined;undefined;2560 x 1440;2560 x 1440
H014;32;Mannelijk;Rechts;6;18;left;yes;550;leftarrow;319;false;focus;yes;1218088;Chrome;112.0;Windows;10;undefined;undefined;2560 x 1440;2560 x 1440
H014;32;Mannelijk;Rechts;6;19;right;no;500;rightarrow;750;true;focus;yes;1219619;Chrome;112.0;Windows;10;undefined;undefined;2560 x 1440;2560 x 1440
H014;32;Mannelijk;Rechts;6;20;left;no;500;leftarrow;686;true;focus;yes;1221079;Chrome;112.0;Windows;10;undefined;undefined;2560 x 1440;2560 x 1440
H014;32;Mannelijk;Rechts;6;21;left;no;500;leftarrow;976;true;focus;yes;1222837;Chrome;112.0;Windows;10;undefined;undefined;2560 x 1440;2560 x 1440
H014;32;Mannelijk;Rechts;6;22;left;no;500;leftarrow;351;true;focus;yes;1223964;Chrome;112.0;Windows;10;undefined;undefined;2560 x 1440;2560 x 1440
