participantID;age;gender;handedness;block_i;trial_i;stim;signal;SSD;response;rt;correct;focus;Fullscreen;time_elapsed;browser_name;browser_version;os_name;os_version;tablet;mobile;screen_resolution;window_resolution
H019;23;Vrouwelijk;Rechts;0;1;left;no;200;leftarrow;457;true;focus;yes;105325;Chrome;112.0;macOS;10.15.7;undefined;undefined;1440 x 900;1440 x 900
H019;23;Vrouwelijk;Rechts;0;2;right;no;200;rightarrow;452;true;focus;yes;107314;Chrome;112.0;macOS;10.15.7;undefined;undefined;1440 x 900;1440 x 900
H019;23;Vrouwelijk;Rechts;0;3;left;no;200;leftarrow;401;true;focus;yes;109249;Chrome;112.0;macOS;10.15.7;undefined;undefined;1440 x 900;1440 x 900
H019;23;Vrouwelijk;Rechts;0;4;left;yes;200;leftarrow;427;false;focus;yes;111196;Chrome;112.0;macOS;10.15.7;undefined;undefined;1440 x 900;1440 x 900
H019;23;Vrouwelijk;Rechts;0;5;left;no;150;leftarrow;493;true;focus;yes;113231;Chrome;112.0;macOS;10.15.7;undefined;undefined;1440 x 900;1440 x 900
H019;23;Vrouwelijk;Rechts;0;6;right;no;150;rightarrow;418;true;focus;yes;115183;Chrome;112.0;macOS;10.15.7;undefined;undefined;1440 x 900;1440 x 900
H019;23;Vrouwelijk;Rechts;0;7;right;yes;150;undefined;null;true;focus;yes;117955;Chrome;112.0;macOS;10.15.7;undefined;undefined;1440 x 900;1440 x 900
H019;23;Vrouwelijk;Rechts;0;8;right;no;200;rightarrow;554;true;focus;yes;120043;Chrome;112.0;macOS;10.15.7;undefined;undefined;1440 x 900;1440 x 900
H019;23;Vrouwelijk;Rechts;1;1;right;no;200;rightarrow;381;true;focus;yes;140401;Chrome;112.0;macOS;10.15.7;undefined;undefined;1440 x 900;1440 x 900
H019;23;Vrouwelijk;Rechts;1;2;left;no;200;leftarrow;462;true;focus;yes;141626;Chrome;112.0;macOS;10.15.7;undefined;undefined;1440 x 900;1440 x 900
H019;23;Vrouwelijk;Rechts;1;3;right;yes;200;rightarrow;377;false;focus;yes;142767;Chrome;112.0;macOS;10.15.7;undefined;undefined;1440 x 900;1440 x 900
H019;23;Vrouwelijk;Rechts;1;4;left;no;150;leftarrow;386;true;focus;yes;143929;Chrome;112.0;macOS;10.15.7;undefined;undefined;1440 x 900;1440 x 900
H019;23;Vrouwelijk;Rechts;1;5;left;yes;150;undefined;null;true;focus;yes;145949;Chrome;112.0;macOS;10.15.7;undefined;undefined;1440 x 900;1440 x 900
H019;23;Vrouwelijk;Rechts;1;6;left;no;200;rightarrow;319;false;focus;yes;147039;Chrome;112.0;macOS;10.15.7;undefined;undefined;1440 x 900;1440 x 900
H019;23;Vrouwelijk;Rechts;1;7;right;no;200;rightarrow;502;true;focus;yes;148311;Chrome;112.0;macOS;10.15.7;undefined;undefined;1440 x 900;1440 x 900
H019;23;Vrouwelijk;Rechts;1;8;right;no;200;rightarrow;641;true;focus;yes;149717;Chrome;112.0;macOS;10.15.7;undefined;undefined;1440 x 900;1440 x 900
H019;23;Vrouwelijk;Rechts;1;9;right;no;200;rightarrow;443;true;focus;yes;150938;Chrome;112.0;macOS;10.15.7;undefined;undefined;1440 x 900;1440 x 900
H019;23;Vrouwelijk;Rechts;1;10;left;no;200;leftarrow;538;true;focus;yes;152239;Chrome;112.0;macOS;10.15.7;undefined;undefined;1440 x 900;1440 x 900
H019;23;Vrouwelijk;Rechts;1;11;left;yes;200;undefined;null;true;focus;yes;154276;Chrome;112.0;macOS;10.15.7;undefined;undefined;1440 x 900;1440 x 900
H019;23;Vrouwelijk;Rechts;1;12;right;yes;250;rightarrow;434;false;focus;yes;155491;Chrome;112.0;macOS;10.15.7;undefined;undefined;1440 x 900;1440 x 900
H019;23;Vrouwelijk;Rechts;1;13;right;no;200;rightarrow;524;true;focus;yes;156775;Chrome;112.0;macOS;10.15.7;undefined;undefined;1440 x 900;1440 x 900
H019;23;Vrouwelijk;Rechts;1;14;left;no;200;leftarrow;498;true;focus;yes;158038;Chrome;112.0;macOS;10.15.7;undefined;undefined;1440 x 900;1440 x 900
H019;23;Vrouwelijk;Rechts;1;15;left;no;200;leftarrow;537;true;focus;yes;159351;Chrome;112.0;macOS;10.15.7;undefined;undefined;1440 x 900;1440 x 900
H019;23;Vrouwelijk;Rechts;1;16;right;no;200;rightarrow;538;true;focus;yes;160664;Chrome;112.0;macOS;10.15.7;undefined;undefined;1440 x 900;1440 x 900
H019;23;Vrouwelijk;Rechts;1;17;left;no;200;leftarrow;444;true;focus;yes;161871;Chrome;112.0;macOS;10.15.7;undefined;undefined;1440 x 900;1440 x 900
H019;23;Vrouwelijk;Rechts;1;18;right;no;200;rightarrow;460;true;focus;yes;163092;Chrome;112.0;macOS;10.15.7;undefined;undefined;1440 x 900;1440 x 900
H019;23;Vrouwelijk;Rechts;1;19;left;no;200;leftarrow;387;true;focus;yes;164243;Chrome;112.0;macOS;10.15.7;undefined;undefined;1440 x 900;1440 x 900
H019;23;Vrouwelijk;Rechts;1;20;right;no;200;rightarrow;527;true;focus;yes;165530;Chrome;112.0;macOS;10.15.7;undefined;undefined;1440 x 900;1440 x 900
H019;23;Vrouwelijk;Rechts;1;21;right;no;200;rightarrow;469;true;focus;yes;166761;Chrome;112.0;macOS;10.15.7;undefined;undefined;1440 x 900;1440 x 900
H019;23;Vrouwelijk;Rechts;1;22;right;yes;200;undefined;null;true;focus;yes;168780;Chrome;112.0;macOS;10.15.7;undefined;undefined;1440 x 900;1440 x 900
H019;23;Vrouwelijk;Rechts;1;23;left;no;250;leftarrow;446;true;focus;yes;169998;Chrome;112.0;macOS;10.15.7;undefined;undefined;1440 x 900;1440 x 900
H019;23;Vrouwelijk;Rechts;1;24;left;yes;250;leftarrow;421;false;focus;yes;171194;Chrome;112.0;macOS;10.15.7;undefined;undefined;1440 x 900;1440 x 900
H019;23;Vrouwelijk;Rechts;1;25;left;yes;200;undefined;null;true;focus;yes;173228;Chrome;112.0;macOS;10.15.7;undefined;undefined;1440 x 900;1440 x 900
H019;23;Vrouwelijk;Rechts;1;26;right;yes;250;rightarrow;386;false;focus;yes;174386;Chrome;112.0;macOS;10.15.7;undefined;undefined;1440 x 900;1440 x 900
H019;23;Vrouwelijk;Rechts;1;27;left;no;200;leftarrow;530;true;focus;yes;175677;Chrome;112.0;macOS;10.15.7;undefined;undefined;1440 x 900;1440 x 900
H019;23;Vrouwelijk;Rechts;1;28;right;no;200;rightarrow;585;true;focus;yes;177028;Chrome;112.0;macOS;10.15.7;undefined;undefined;1440 x 900;1440 x 900
H019;23;Vrouwelijk;Rechts;1;29;right;no;200;rightarrow;469;true;focus;yes;178264;Chrome;112.0;macOS;10.15.7;undefined;undefined;1440 x 900;1440 x 900
H019;23;Vrouwelijk;Rechts;1;30;left;no;200;leftarrow;494;true;focus;yes;179522;Chrome;112.0;macOS;10.15.7;undefined;undefined;1440 x 900;1440 x 900
H019;23;Vrouwelijk;Rechts;1;31;right;no;200;rightarrow;562;true;focus;yes;180846;Chrome;112.0;macOS;10.15.7;undefined;undefined;1440 x 900;1440 x 900
H019;23;Vrouwelijk;Rechts;1;32;left;no;200;leftarrow;583;true;focus;yes;182195;Chrome;112.0;macOS;10.15.7;undefined;undefined;1440 x 900;1440 x 900
H019;23;Vrouwelijk;Rechts;1;33;right;no;200;rightarrow;426;true;focus;yes;183399;Chrome;112.0;macOS;10.15.7;undefined;undefined;1440 x 900;1440 x 900
H019;23;Vrouwelijk;Rechts;1;34;right;yes;200;undefined;null;true;focus;yes;185433;Chrome;112.0;macOS;10.15.7;undefined;undefined;1440 x 900;1440 x 900
H019;23;Vrouwelijk;Rechts;1;35;left;yes;250;leftarrow;451;false;focus;yes;186654;Chrome;112.0;macOS;10.15.7;undefined;undefined;1440 x 900;1440 x 900
H019;23;Vrouwelijk;Rechts;1;36;left;no;200;leftarrow;569;true;focus;yes;187985;Chrome;112.0;macOS;10.15.7;undefined;undefined;1440 x 900;1440 x 900
H019;23;Vrouwelijk;Rechts;1;37;right;no;200;rightarrow;547;true;focus;yes;189294;Chrome;112.0;macOS;10.15.7;undefined;undefined;1440 x 900;1440 x 900
H019;23;Vrouwelijk;Rechts;1;38;right;no;200;rightarrow;530;true;focus;yes;190589;Chrome;112.0;macOS;10.15.7;undefined;undefined;1440 x 900;1440 x 900
H019;23;Vrouwelijk;Rechts;1;39;left;no;200;leftarrow;480;true;focus;yes;191831;Chrome;112.0;macOS;10.15.7;undefined;undefined;1440 x 900;1440 x 900
H019;23;Vrouwelijk;Rechts;1;40;left;no;200;leftarrow;403;true;focus;yes;192999;Chrome;112.0;macOS;10.15.7;undefined;undefined;1440 x 900;1440 x 900
H019;23;Vrouwelijk;Rechts;1;41;right;no;200;rightarrow;708;true;focus;yes;194480;Chrome;112.0;macOS;10.15.7;undefined;undefined;1440 x 900;1440 x 900
H019;23;Vrouwelijk;Rechts;1;42;right;no;200;rightarrow;427;true;focus;yes;195669;Chrome;112.0;macOS;10.15.7;undefined;undefined;1440 x 900;1440 x 900
H019;23;Vrouwelijk;Rechts;1;43;left;no;200;leftarrow;454;true;focus;yes;196898;Chrome;112.0;macOS;10.15.7;undefined;undefined;1440 x 900;1440 x 900
H019;23;Vrouwelijk;Rechts;1;44;right;no;200;rightarrow;404;true;focus;yes;198071;Chrome;112.0;macOS;10.15.7;undefined;undefined;1440 x 900;1440 x 900
H019;23;Vrouwelijk;Rechts;1;45;left;no;200;leftarrow;425;true;focus;yes;199253;Chrome;112.0;macOS;10.15.7;undefined;undefined;1440 x 900;1440 x 900
H019;23;Vrouwelijk;Rechts;1;46;left;no;200;leftarrow;386;true;focus;yes;200412;Chrome;112.0;macOS;10.15.7;undefined;undefined;1440 x 900;1440 x 900
H019;23;Vrouwelijk;Rechts;1;47;left;yes;200;leftarrow;426;false;focus;yes;201615;Chrome;112.0;macOS;10.15.7;undefined;undefined;1440 x 900;1440 x 900
H019;23;Vrouwelijk;Rechts;1;48;right;yes;150;undefined;null;true;focus;yes;203632;Chrome;112.0;macOS;10.15.7;undefined;undefined;1440 x 900;1440 x 900
H019;23;Vrouwelijk;Rechts;1;49;right;no;200;rightarrow;442;true;focus;yes;204848;Chrome;112.0;macOS;10.15.7;undefined;undefined;1440 x 900;1440 x 900
H019;23;Vrouwelijk;Rechts;1;50;left;no;200;leftarrow;387;true;focus;yes;205993;Chrome;112.0;macOS;10.15.7;undefined;undefined;1440 x 900;1440 x 900
H019;23;Vrouwelijk;Rechts;1;51;left;no;200;leftarrow;471;true;focus;yes;207232;Chrome;112.0;macOS;10.15.7;undefined;undefined;1440 x 900;1440 x 900
H019;23;Vrouwelijk;Rechts;1;52;right;yes;200;undefined;null;true;focus;yes;209266;Chrome;112.0;macOS;10.15.7;undefined;undefined;1440 x 900;1440 x 900
H019;23;Vrouwelijk;Rechts;1;53;right;no;250;rightarrow;501;true;focus;yes;210539;Chrome;112.0;macOS;10.15.7;undefined;undefined;1440 x 900;1440 x 900
H019;23;Vrouwelijk;Rechts;1;54;left;yes;250;leftarrow;446;false;focus;yes;211749;Chrome;112.0;macOS;10.15.7;undefined;undefined;1440 x 900;1440 x 900
H019;23;Vrouwelijk;Rechts;1;55;right;no;200;rightarrow;624;true;focus;yes;213139;Chrome;112.0;macOS;10.15.7;undefined;undefined;1440 x 900;1440 x 900
H019;23;Vrouwelijk;Rechts;1;56;left;no;200;leftarrow;725;true;focus;yes;214628;Chrome;112.0;macOS;10.15.7;undefined;undefined;1440 x 900;1440 x 900
H019;23;Vrouwelijk;Rechts;1;57;left;yes;200;undefined;null;true;focus;yes;216666;Chrome;112.0;macOS;10.15.7;undefined;undefined;1440 x 900;1440 x 900
H019;23;Vrouwelijk;Rechts;1;58;right;yes;250;undefined;null;true;focus;yes;218704;Chrome;112.0;macOS;10.15.7;undefined;undefined;1440 x 900;1440 x 900
H019;23;Vrouwelijk;Rechts;1;59;left;no;300;leftarrow;552;true;focus;yes;220021;Chrome;112.0;macOS;10.15.7;undefined;undefined;1440 x 900;1440 x 900
H019;23;Vrouwelijk;Rechts;1;60;left;no;300;leftarrow;530;true;focus;yes;221325;Chrome;112.0;macOS;10.15.7;undefined;undefined;1440 x 900;1440 x 900
H019;23;Vrouwelijk;Rechts;1;61;left;no;300;leftarrow;524;true;focus;yes;222610;Chrome;112.0;macOS;10.15.7;undefined;undefined;1440 x 900;1440 x 900
H019;23;Vrouwelijk;Rechts;1;62;right;no;300;rightarrow;543;true;focus;yes;223929;Chrome;112.0;macOS;10.15.7;undefined;undefined;1440 x 900;1440 x 900
H019;23;Vrouwelijk;Rechts;1;63;right;no;300;rightarrow;477;true;focus;yes;225175;Chrome;112.0;macOS;10.15.7;undefined;undefined;1440 x 900;1440 x 900
H019;23;Vrouwelijk;Rechts;1;64;right;no;300;rightarrow;482;true;focus;yes;226419;Chrome;112.0;macOS;10.15.7;undefined;undefined;1440 x 900;1440 x 900
H019;23;Vrouwelijk;Rechts;1;65;right;yes;300;rightarrow;452;false;focus;yes;227648;Chrome;112.0;macOS;10.15.7;undefined;undefined;1440 x 900;1440 x 900
H019;23;Vrouwelijk;Rechts;1;66;right;no;250;rightarrow;504;true;focus;yes;228913;Chrome;112.0;macOS;10.15.7;undefined;undefined;1440 x 900;1440 x 900
H019;23;Vrouwelijk;Rechts;1;67;left;no;250;leftarrow;558;true;focus;yes;230249;Chrome;112.0;macOS;10.15.7;undefined;undefined;1440 x 900;1440 x 900
H019;23;Vrouwelijk;Rechts;1;68;left;no;250;leftarrow;517;true;focus;yes;231529;Chrome;112.0;macOS;10.15.7;undefined;undefined;1440 x 900;1440 x 900
H019;23;Vrouwelijk;Rechts;1;69;left;no;250;leftarrow;473;true;focus;yes;232780;Chrome;112.0;macOS;10.15.7;undefined;undefined;1440 x 900;1440 x 900
H019;23;Vrouwelijk;Rechts;1;70;right;no;250;rightarrow;544;true;focus;yes;234098;Chrome;112.0;macOS;10.15.7;undefined;undefined;1440 x 900;1440 x 900
H019;23;Vrouwelijk;Rechts;1;71;right;no;250;rightarrow;473;true;focus;yes;235347;Chrome;112.0;macOS;10.15.7;undefined;undefined;1440 x 900;1440 x 900
H019;23;Vrouwelijk;Rechts;1;72;left;yes;250;undefined;null;true;focus;yes;237368;Chrome;112.0;macOS;10.15.7;undefined;undefined;1440 x 900;1440 x 900
H019;23;Vrouwelijk;Rechts;1;73;right;yes;300;rightarrow;523;false;focus;yes;238659;Chrome;112.0;macOS;10.15.7;undefined;undefined;1440 x 900;1440 x 900
H019;23;Vrouwelijk;Rechts;1;74;right;no;250;rightarrow;522;true;focus;yes;239946;Chrome;112.0;macOS;10.15.7;undefined;undefined;1440 x 900;1440 x 900
H019;23;Vrouwelijk;Rechts;1;75;left;no;250;leftarrow;495;true;focus;yes;241207;Chrome;112.0;macOS;10.15.7;undefined;undefined;1440 x 900;1440 x 900
H019;23;Vrouwelijk;Rechts;1;76;left;yes;250;leftarrow;384;false;focus;yes;242354;Chrome;112.0;macOS;10.15.7;undefined;undefined;1440 x 900;1440 x 900
H019;23;Vrouwelijk;Rechts;1;77;left;no;200;leftarrow;482;true;focus;yes;243612;Chrome;112.0;macOS;10.15.7;undefined;undefined;1440 x 900;1440 x 900
H019;23;Vrouwelijk;Rechts;1;78;left;no;200;leftarrow;443;true;focus;yes;244815;Chrome;112.0;macOS;10.15.7;undefined;undefined;1440 x 900;1440 x 900
H019;23;Vrouwelijk;Rechts;1;79;right;no;200;rightarrow;495;true;focus;yes;246082;Chrome;112.0;macOS;10.15.7;undefined;undefined;1440 x 900;1440 x 900
H019;23;Vrouwelijk;Rechts;1;80;right;no;200;rightarrow;669;true;focus;yes;247525;Chrome;112.0;macOS;10.15.7;undefined;undefined;1440 x 900;1440 x 900
H019;23;Vrouwelijk;Rechts;1;81;left;yes;200;undefined;null;true;focus;yes;249553;Chrome;112.0;macOS;10.15.7;undefined;undefined;1440 x 900;1440 x 900
H019;23;Vrouwelijk;Rechts;1;82;left;no;250;leftarrow;435;true;focus;yes;250766;Chrome;112.0;macOS;10.15.7;undefined;undefined;1440 x 900;1440 x 900
H019;23;Vrouwelijk;Rechts;1;83;right;no;250;rightarrow;532;true;focus;yes;252070;Chrome;112.0;macOS;10.15.7;undefined;undefined;1440 x 900;1440 x 900
H019;23;Vrouwelijk;Rechts;1;84;left;no;250;leftarrow;548;true;focus;yes;253390;Chrome;112.0;macOS;10.15.7;undefined;undefined;1440 x 900;1440 x 900
H019;23;Vrouwelijk;Rechts;1;85;right;no;250;rightarrow;514;true;focus;yes;254662;Chrome;112.0;macOS;10.15.7;undefined;undefined;1440 x 900;1440 x 900
H019;23;Vrouwelijk;Rechts;1;86;right;yes;250;undefined;null;true;focus;yes;256680;Chrome;112.0;macOS;10.15.7;undefined;undefined;1440 x 900;1440 x 900
H019;23;Vrouwelijk;Rechts;1;87;left;no;300;leftarrow;543;true;focus;yes;257995;Chrome;112.0;macOS;10.15.7;undefined;undefined;1440 x 900;1440 x 900
H019;23;Vrouwelijk;Rechts;1;88;right;no;300;rightarrow;452;true;focus;yes;259211;Chrome;112.0;macOS;10.15.7;undefined;undefined;1440 x 900;1440 x 900
H019;23;Vrouwelijk;Rechts;1;89;right;no;300;rightarrow;359;true;focus;yes;260331;Chrome;112.0;macOS;10.15.7;undefined;undefined;1440 x 900;1440 x 900
H019;23;Vrouwelijk;Rechts;1;90;left;no;300;leftarrow;365;true;focus;yes;261472;Chrome;112.0;macOS;10.15.7;undefined;undefined;1440 x 900;1440 x 900
H019;23;Vrouwelijk;Rechts;1;91;left;no;300;leftarrow;421;true;focus;yes;262672;Chrome;112.0;macOS;10.15.7;undefined;undefined;1440 x 900;1440 x 900
H019;23;Vrouwelijk;Rechts;1;92;right;no;300;rightarrow;499;true;focus;yes;263938;Chrome;112.0;macOS;10.15.7;undefined;undefined;1440 x 900;1440 x 900
H019;23;Vrouwelijk;Rechts;1;93;right;no;300;rightarrow;536;true;focus;yes;265239;Chrome;112.0;macOS;10.15.7;undefined;undefined;1440 x 900;1440 x 900
H019;23;Vrouwelijk;Rechts;1;94;left;yes;300;leftarrow;463;false;focus;yes;266471;Chrome;112.0;macOS;10.15.7;undefined;undefined;1440 x 900;1440 x 900
H019;23;Vrouwelijk;Rechts;1;95;right;yes;250;rightarrow;487;false;focus;yes;267736;Chrome;112.0;macOS;10.15.7;undefined;undefined;1440 x 900;1440 x 900
H019;23;Vrouwelijk;Rechts;1;96;left;no;200;leftarrow;502;true;focus;yes;269005;Chrome;112.0;macOS;10.15.7;undefined;undefined;1440 x 900;1440 x 900
H019;23;Vrouwelijk;Rechts;1;97;left;no;200;leftarrow;554;true;focus;yes;270331;Chrome;112.0;macOS;10.15.7;undefined;undefined;1440 x 900;1440 x 900
H019;23;Vrouwelijk;Rechts;1;98;left;no;200;leftarrow;411;true;focus;yes;271507;Chrome;112.0;macOS;10.15.7;undefined;undefined;1440 x 900;1440 x 900
H019;23;Vrouwelijk;Rechts;1;99;right;yes;200;undefined;null;true;focus;yes;273543;Chrome;112.0;macOS;10.15.7;undefined;undefined;1440 x 900;1440 x 900
H019;23;Vrouwelijk;Rechts;1;100;right;no;250;rightarrow;505;true;focus;yes;274828;Chrome;112.0;macOS;10.15.7;undefined;undefined;1440 x 900;1440 x 900
H019;23;Vrouwelijk;Rechts;1;101;left;no;250;leftarrow;491;true;focus;yes;276092;Chrome;112.0;macOS;10.15.7;undefined;undefined;1440 x 900;1440 x 900
H019;23;Vrouwelijk;Rechts;1;102;left;yes;250;undefined;null;true;focus;yes;278107;Chrome;112.0;macOS;10.15.7;undefined;undefined;1440 x 900;1440 x 900
H019;23;Vrouwelijk;Rechts;1;103;right;no;300;rightarrow;524;true;focus;yes;279400;Chrome;112.0;macOS;10.15.7;undefined;undefined;1440 x 900;1440 x 900
H019;23;Vrouwelijk;Rechts;1;104;right;no;300;rightarrow;459;true;focus;yes;280636;Chrome;112.0;macOS;10.15.7;undefined;undefined;1440 x 900;1440 x 900
H019;23;Vrouwelijk;Rechts;1;105;right;no;300;rightarrow;565;true;focus;yes;281964;Chrome;112.0;macOS;10.15.7;undefined;undefined;1440 x 900;1440 x 900
H019;23;Vrouwelijk;Rechts;1;106;left;no;300;leftarrow;537;true;focus;yes;283265;Chrome;112.0;macOS;10.15.7;undefined;undefined;1440 x 900;1440 x 900
H019;23;Vrouwelijk;Rechts;1;107;left;no;300;leftarrow;417;true;focus;yes;284456;Chrome;112.0;macOS;10.15.7;undefined;undefined;1440 x 900;1440 x 900
H019;23;Vrouwelijk;Rechts;1;108;left;no;300;leftarrow;491;true;focus;yes;285713;Chrome;112.0;macOS;10.15.7;undefined;undefined;1440 x 900;1440 x 900
H019;23;Vrouwelijk;Rechts;1;109;right;no;300;rightarrow;543;true;focus;yes;287031;Chrome;112.0;macOS;10.15.7;undefined;undefined;1440 x 900;1440 x 900
H019;23;Vrouwelijk;Rechts;1;110;right;yes;300;rightarrow;471;false;focus;yes;288279;Chrome;112.0;macOS;10.15.7;undefined;undefined;1440 x 900;1440 x 900
H019;23;Vrouwelijk;Rechts;1;111;right;no;250;rightarrow;557;true;focus;yes;289605;Chrome;112.0;macOS;10.15.7;undefined;undefined;1440 x 900;1440 x 900
H019;23;Vrouwelijk;Rechts;1;112;left;yes;250;undefined;null;true;focus;yes;291639;Chrome;112.0;macOS;10.15.7;undefined;undefined;1440 x 900;1440 x 900
H019;23;Vrouwelijk;Rechts;1;113;right;no;300;rightarrow;513;true;focus;yes;292924;Chrome;112.0;macOS;10.15.7;undefined;undefined;1440 x 900;1440 x 900
H019;23;Vrouwelijk;Rechts;1;114;left;no;300;leftarrow;508;true;focus;yes;294190;Chrome;112.0;macOS;10.15.7;undefined;undefined;1440 x 900;1440 x 900
H019;23;Vrouwelijk;Rechts;1;115;right;yes;300;rightarrow;412;false;focus;yes;295370;Chrome;112.0;macOS;10.15.7;undefined;undefined;1440 x 900;1440 x 900
H019;23;Vrouwelijk;Rechts;1;116;right;no;250;rightarrow;542;true;focus;yes;296678;Chrome;112.0;macOS;10.15.7;undefined;undefined;1440 x 900;1440 x 900
H019;23;Vrouwelijk;Rechts;1;117;left;no;250;leftarrow;667;true;focus;yes;298115;Chrome;112.0;macOS;10.15.7;undefined;undefined;1440 x 900;1440 x 900
H019;23;Vrouwelijk;Rechts;1;118;left;no;250;leftarrow;521;true;focus;yes;299411;Chrome;112.0;macOS;10.15.7;undefined;undefined;1440 x 900;1440 x 900
H019;23;Vrouwelijk;Rechts;1;119;right;no;250;rightarrow;520;true;focus;yes;300705;Chrome;112.0;macOS;10.15.7;undefined;undefined;1440 x 900;1440 x 900
H019;23;Vrouwelijk;Rechts;1;120;left;yes;250;undefined;null;true;focus;yes;302722;Chrome;112.0;macOS;10.15.7;undefined;undefined;1440 x 900;1440 x 900
H019;23;Vrouwelijk;Rechts;1;121;right;no;300;rightarrow;515;true;focus;yes;304005;Chrome;112.0;macOS;10.15.7;undefined;undefined;1440 x 900;1440 x 900
H019;23;Vrouwelijk;Rechts;1;122;right;yes;300;undefined;null;true;focus;yes;306038;Chrome;112.0;macOS;10.15.7;undefined;undefined;1440 x 900;1440 x 900
H019;23;Vrouwelijk;Rechts;1;123;right;no;350;rightarrow;553;true;focus;yes;307371;Chrome;112.0;macOS;10.15.7;undefined;undefined;1440 x 900;1440 x 900
H019;23;Vrouwelijk;Rechts;1;124;left;no;350;leftarrow;557;true;focus;yes;308691;Chrome;112.0;macOS;10.15.7;undefined;undefined;1440 x 900;1440 x 900
H019;23;Vrouwelijk;Rechts;1;125;left;yes;350;leftarrow;559;false;focus;yes;310009;Chrome;112.0;macOS;10.15.7;undefined;undefined;1440 x 900;1440 x 900
H019;23;Vrouwelijk;Rechts;1;126;left;no;300;leftarrow;764;true;focus;yes;311547;Chrome;112.0;macOS;10.15.7;undefined;undefined;1440 x 900;1440 x 900
H019;23;Vrouwelijk;Rechts;1;127;left;no;300;leftarrow;540;true;focus;yes;312859;Chrome;112.0;macOS;10.15.7;undefined;undefined;1440 x 900;1440 x 900
H019;23;Vrouwelijk;Rechts;1;128;right;no;300;rightarrow;763;true;focus;yes;314381;Chrome;112.0;macOS;10.15.7;undefined;undefined;1440 x 900;1440 x 900
H019;23;Vrouwelijk;Rechts;2;1;right;no;300;rightarrow;520;true;focus;yes;334228;Chrome;112.0;macOS;10.15.7;undefined;undefined;1440 x 900;1440 x 900
H019;23;Vrouwelijk;Rechts;2;2;left;no;300;leftarrow;346;true;focus;yes;335344;Chrome;112.0;macOS;10.15.7;undefined;undefined;1440 x 900;1440 x 900
H019;23;Vrouwelijk;Rechts;2;3;left;yes;300;leftarrow;457;false;focus;yes;336575;Chrome;112.0;macOS;10.15.7;undefined;undefined;1440 x 900;1440 x 900
H019;23;Vrouwelijk;Rechts;2;4;right;yes;250;rightarrow;461;false;focus;yes;337799;Chrome;112.0;macOS;10.15.7;undefined;undefined;1440 x 900;1440 x 900
H019;23;Vrouwelijk;Rechts;2;5;right;no;200;rightarrow;505;true;focus;yes;339081;Chrome;112.0;macOS;10.15.7;undefined;undefined;1440 x 900;1440 x 900
H019;23;Vrouwelijk;Rechts;2;6;right;no;200;rightarrow;504;true;focus;yes;340358;Chrome;112.0;macOS;10.15.7;undefined;undefined;1440 x 900;1440 x 900
H019;23;Vrouwelijk;Rechts;2;7;left;no;200;leftarrow;380;true;focus;yes;341515;Chrome;112.0;macOS;10.15.7;undefined;undefined;1440 x 900;1440 x 900
H019;23;Vrouwelijk;Rechts;2;8;left;no;200;leftarrow;408;true;focus;yes;342694;Chrome;112.0;macOS;10.15.7;undefined;undefined;1440 x 900;1440 x 900
H019;23;Vrouwelijk;Rechts;2;9;left;yes;200;leftarrow;441;false;focus;yes;343910;Chrome;112.0;macOS;10.15.7;undefined;undefined;1440 x 900;1440 x 900
H019;23;Vrouwelijk;Rechts;2;10;right;yes;150;undefined;null;true;focus;yes;345947;Chrome;112.0;macOS;10.15.7;undefined;undefined;1440 x 900;1440 x 900
H019;23;Vrouwelijk;Rechts;2;11;left;no;200;leftarrow;508;true;focus;yes;347235;Chrome;112.0;macOS;10.15.7;undefined;undefined;1440 x 900;1440 x 900
H019;23;Vrouwelijk;Rechts;2;12;right;no;200;rightarrow;457;true;focus;yes;348461;Chrome;112.0;macOS;10.15.7;undefined;undefined;1440 x 900;1440 x 900
H019;23;Vrouwelijk;Rechts;2;13;right;no;200;rightarrow;424;true;focus;yes;349662;Chrome;112.0;macOS;10.15.7;undefined;undefined;1440 x 900;1440 x 900
H019;23;Vrouwelijk;Rechts;2;14;left;no;200;leftarrow;392;true;focus;yes;350820;Chrome;112.0;macOS;10.15.7;undefined;undefined;1440 x 900;1440 x 900
H019;23;Vrouwelijk;Rechts;2;15;right;no;200;rightarrow;515;true;focus;yes;352099;Chrome;112.0;macOS;10.15.7;undefined;undefined;1440 x 900;1440 x 900
H019;23;Vrouwelijk;Rechts;2;16;left;no;200;leftarrow;383;true;focus;yes;353253;Chrome;112.0;macOS;10.15.7;undefined;undefined;1440 x 900;1440 x 900
H019;23;Vrouwelijk;Rechts;2;17;left;yes;200;undefined;null;true;focus;yes;355292;Chrome;112.0;macOS;10.15.7;undefined;undefined;1440 x 900;1440 x 900
H019;23;Vrouwelijk;Rechts;2;18;right;no;250;rightarrow;521;true;focus;yes;356585;Chrome;112.0;macOS;10.15.7;undefined;undefined;1440 x 900;1440 x 900
H019;23;Vrouwelijk;Rechts;2;19;left;no;250;leftarrow;390;true;focus;yes;357738;Chrome;112.0;macOS;10.15.7;undefined;undefined;1440 x 900;1440 x 900
H019;23;Vrouwelijk;Rechts;2;20;right;yes;250;rightarrow;447;false;focus;yes;358956;Chrome;112.0;macOS;10.15.7;undefined;undefined;1440 x 900;1440 x 900
H019;23;Vrouwelijk;Rechts;2;21;right;no;200;rightarrow;581;true;focus;yes;360312;Chrome;112.0;macOS;10.15.7;undefined;undefined;1440 x 900;1440 x 900
H019;23;Vrouwelijk;Rechts;2;22;right;no;200;rightarrow;430;true;focus;yes;361515;Chrome;112.0;macOS;10.15.7;undefined;undefined;1440 x 900;1440 x 900
H019;23;Vrouwelijk;Rechts;2;23;left;no;200;leftarrow;496;true;focus;yes;362787;Chrome;112.0;macOS;10.15.7;undefined;undefined;1440 x 900;1440 x 900
H019;23;Vrouwelijk;Rechts;2;24;left;no;200;leftarrow;494;true;focus;yes;364060;Chrome;112.0;macOS;10.15.7;undefined;undefined;1440 x 900;1440 x 900
H019;23;Vrouwelijk;Rechts;2;25;right;no;200;rightarrow;531;true;focus;yes;365359;Chrome;112.0;macOS;10.15.7;undefined;undefined;1440 x 900;1440 x 900
H019;23;Vrouwelijk;Rechts;2;26;left;yes;200;undefined;null;true;focus;yes;367396;Chrome;112.0;macOS;10.15.7;undefined;undefined;1440 x 900;1440 x 900
H019;23;Vrouwelijk;Rechts;2;27;right;no;250;rightarrow;487;true;focus;yes;368652;Chrome;112.0;macOS;10.15.7;undefined;undefined;1440 x 900;1440 x 900
H019;23;Vrouwelijk;Rechts;2;28;left;no;250;leftarrow;443;true;focus;yes;369863;Chrome;112.0;macOS;10.15.7;undefined;undefined;1440 x 900;1440 x 900
H019;23;Vrouwelijk;Rechts;2;29;right;yes;250;undefined;null;true;focus;yes;371880;Chrome;112.0;macOS;10.15.7;undefined;undefined;1440 x 900;1440 x 900
H019;23;Vrouwelijk;Rechts;2;30;right;no;300;rightarrow;480;true;focus;yes;373132;Chrome;112.0;macOS;10.15.7;undefined;undefined;1440 x 900;1440 x 900
H019;23;Vrouwelijk;Rechts;2;31;left;no;300;leftarrow;441;true;focus;yes;374336;Chrome;112.0;macOS;10.15.7;undefined;undefined;1440 x 900;1440 x 900
H019;23;Vrouwelijk;Rechts;2;32;left;no;300;leftarrow;470;true;focus;yes;375570;Chrome;112.0;macOS;10.15.7;undefined;undefined;1440 x 900;1440 x 900
H019;23;Vrouwelijk;Rechts;2;33;left;yes;300;undefined;null;true;focus;yes;377599;Chrome;112.0;macOS;10.15.7;undefined;undefined;1440 x 900;1440 x 900
H019;23;Vrouwelijk;Rechts;2;34;right;no;350;rightarrow;496;true;focus;yes;378863;Chrome;112.0;macOS;10.15.7;undefined;undefined;1440 x 900;1440 x 900
H019;23;Vrouwelijk;Rechts;2;35;left;no;350;leftarrow;496;true;focus;yes;380123;Chrome;112.0;macOS;10.15.7;undefined;undefined;1440 x 900;1440 x 900
H019;23;Vrouwelijk;Rechts;2;36;left;no;350;leftarrow;422;true;focus;yes;381323;Chrome;112.0;macOS;10.15.7;undefined;undefined;1440 x 900;1440 x 900
H019;23;Vrouwelijk;Rechts;2;37;right;no;350;rightarrow;542;true;focus;yes;382641;Chrome;112.0;macOS;10.15.7;undefined;undefined;1440 x 900;1440 x 900
H019;23;Vrouwelijk;Rechts;2;38;right;no;350;rightarrow;601;true;focus;yes;384014;Chrome;112.0;macOS;10.15.7;undefined;undefined;1440 x 900;1440 x 900
H019;23;Vrouwelijk;Rechts;2;39;right;yes;350;rightarrow;485;false;focus;yes;385264;Chrome;112.0;macOS;10.15.7;undefined;undefined;1440 x 900;1440 x 900
H019;23;Vrouwelijk;Rechts;2;40;left;no;300;leftarrow;817;true;focus;yes;386844;Chrome;112.0;macOS;10.15.7;undefined;undefined;1440 x 900;1440 x 900
H019;23;Vrouwelijk;Rechts;2;41;left;no;300;leftarrow;449;true;focus;yes;388060;Chrome;112.0;macOS;10.15.7;undefined;undefined;1440 x 900;1440 x 900
H019;23;Vrouwelijk;Rechts;2;42;right;yes;300;rightarrow;443;false;focus;yes;389281;Chrome;112.0;macOS;10.15.7;undefined;undefined;1440 x 900;1440 x 900
H019;23;Vrouwelijk;Rechts;2;43;left;no;250;leftarrow;558;true;focus;yes;390610;Chrome;112.0;macOS;10.15.7;undefined;undefined;1440 x 900;1440 x 900
H019;23;Vrouwelijk;Rechts;2;44;left;no;250;leftarrow;449;true;focus;yes;391828;Chrome;112.0;macOS;10.15.7;undefined;undefined;1440 x 900;1440 x 900
H019;23;Vrouwelijk;Rechts;2;45;right;no;250;rightarrow;411;true;focus;yes;393015;Chrome;112.0;macOS;10.15.7;undefined;undefined;1440 x 900;1440 x 900
H019;23;Vrouwelijk;Rechts;2;46;right;no;250;rightarrow;468;true;focus;yes;394242;Chrome;112.0;macOS;10.15.7;undefined;undefined;1440 x 900;1440 x 900
H019;23;Vrouwelijk;Rechts;2;47;left;yes;250;leftarrow;419;false;focus;yes;395437;Chrome;112.0;macOS;10.15.7;undefined;undefined;1440 x 900;1440 x 900
H019;23;Vrouwelijk;Rechts;2;48;right;no;200;rightarrow;482;true;focus;yes;396694;Chrome;112.0;macOS;10.15.7;undefined;undefined;1440 x 900;1440 x 900
H019;23;Vrouwelijk;Rechts;2;49;left;no;200;leftarrow;446;true;focus;yes;397900;Chrome;112.0;macOS;10.15.7;undefined;undefined;1440 x 900;1440 x 900
H019;23;Vrouwelijk;Rechts;2;50;left;yes;200;undefined;null;true;focus;yes;399922;Chrome;112.0;macOS;10.15.7;undefined;undefined;1440 x 900;1440 x 900
H019;23;Vrouwelijk;Rechts;2;51;left;no;250;leftarrow;523;true;focus;yes;401217;Chrome;112.0;macOS;10.15.7;undefined;undefined;1440 x 900;1440 x 900
H019;23;Vrouwelijk;Rechts;2;52;right;yes;250;undefined;null;true;focus;yes;403230;Chrome;112.0;macOS;10.15.7;undefined;undefined;1440 x 900;1440 x 900
H019;23;Vrouwelijk;Rechts;2;53;right;no;300;rightarrow;688;true;focus;yes;404683;Chrome;112.0;macOS;10.15.7;undefined;undefined;1440 x 900;1440 x 900
H019;23;Vrouwelijk;Rechts;2;54;right;no;300;rightarrow;525;true;focus;yes;405972;Chrome;112.0;macOS;10.15.7;undefined;undefined;1440 x 900;1440 x 900
H019;23;Vrouwelijk;Rechts;2;55;left;no;300;leftarrow;579;true;focus;yes;407328;Chrome;112.0;macOS;10.15.7;undefined;undefined;1440 x 900;1440 x 900
H019;23;Vrouwelijk;Rechts;2;56;right;no;300;rightarrow;562;true;focus;yes;408653;Chrome;112.0;macOS;10.15.7;undefined;undefined;1440 x 900;1440 x 900
H019;23;Vrouwelijk;Rechts;2;57;left;no;300;leftarrow;603;true;focus;yes;410031;Chrome;112.0;macOS;10.15.7;undefined;undefined;1440 x 900;1440 x 900
H019;23;Vrouwelijk;Rechts;2;58;right;yes;300;rightarrow;511;false;focus;yes;411316;Chrome;112.0;macOS;10.15.7;undefined;undefined;1440 x 900;1440 x 900
H019;23;Vrouwelijk;Rechts;2;59;left;no;250;leftarrow;585;true;focus;yes;412676;Chrome;112.0;macOS;10.15.7;undefined;undefined;1440 x 900;1440 x 900
H019;23;Vrouwelijk;Rechts;2;60;left;no;250;leftarrow;518;true;focus;yes;413970;Chrome;112.0;macOS;10.15.7;undefined;undefined;1440 x 900;1440 x 900
H019;23;Vrouwelijk;Rechts;2;61;right;no;250;rightarrow;536;true;focus;yes;415273;Chrome;112.0;macOS;10.15.7;undefined;undefined;1440 x 900;1440 x 900
H019;23;Vrouwelijk;Rechts;2;62;right;no;250;rightarrow;584;true;focus;yes;416638;Chrome;112.0;macOS;10.15.7;undefined;undefined;1440 x 900;1440 x 900
H019;23;Vrouwelijk;Rechts;2;63;right;no;250;rightarrow;566;true;focus;yes;417967;Chrome;112.0;macOS;10.15.7;undefined;undefined;1440 x 900;1440 x 900
H019;23;Vrouwelijk;Rechts;2;64;left;yes;250;undefined;null;true;focus;yes;419983;Chrome;112.0;macOS;10.15.7;undefined;undefined;1440 x 900;1440 x 900
H019;23;Vrouwelijk;Rechts;2;65;left;no;300;leftarrow;564;true;focus;yes;421321;Chrome;112.0;macOS;10.15.7;undefined;undefined;1440 x 900;1440 x 900
H019;23;Vrouwelijk;Rechts;2;66;left;yes;300;leftarrow;455;false;focus;yes;422540;Chrome;112.0;macOS;10.15.7;undefined;undefined;1440 x 900;1440 x 900
H019;23;Vrouwelijk;Rechts;2;67;left;no;250;leftarrow;500;true;focus;yes;423805;Chrome;112.0;macOS;10.15.7;undefined;undefined;1440 x 900;1440 x 900
H019;23;Vrouwelijk;Rechts;2;68;right;no;250;rightarrow;563;true;focus;yes;425142;Chrome;112.0;macOS;10.15.7;undefined;undefined;1440 x 900;1440 x 900
H019;23;Vrouwelijk;Rechts;2;69;right;yes;250;rightarrow;477;false;focus;yes;426382;Chrome;112.0;macOS;10.15.7;undefined;undefined;1440 x 900;1440 x 900
H019;23;Vrouwelijk;Rechts;2;70;right;no;200;rightarrow;459;true;focus;yes;427604;Chrome;112.0;macOS;10.15.7;undefined;undefined;1440 x 900;1440 x 900
H019;23;Vrouwelijk;Rechts;2;71;right;no;200;rightarrow;669;true;focus;yes;429038;Chrome;112.0;macOS;10.15.7;undefined;undefined;1440 x 900;1440 x 900
H019;23;Vrouwelijk;Rechts;2;72;left;no;200;leftarrow;534;true;focus;yes;430331;Chrome;112.0;macOS;10.15.7;undefined;undefined;1440 x 900;1440 x 900
H019;23;Vrouwelijk;Rechts;2;73;right;no;200;rightarrow;489;true;focus;yes;431596;Chrome;112.0;macOS;10.15.7;undefined;undefined;1440 x 900;1440 x 900
H019;23;Vrouwelijk;Rechts;2;74;right;no;200;rightarrow;578;true;focus;yes;432935;Chrome;112.0;macOS;10.15.7;undefined;undefined;1440 x 900;1440 x 900
H019;23;Vrouwelijk;Rechts;2;75;left;no;200;leftarrow;546;true;focus;yes;434253;Chrome;112.0;macOS;10.15.7;undefined;undefined;1440 x 900;1440 x 900
H019;23;Vrouwelijk;Rechts;2;76;right;yes;200;undefined;null;true;focus;yes;436273;Chrome;112.0;macOS;10.15.7;undefined;undefined;1440 x 900;1440 x 900
H019;23;Vrouwelijk;Rechts;2;77;right;no;250;rightarrow;308;true;focus;yes;437353;Chrome;112.0;macOS;10.15.7;undefined;undefined;1440 x 900;1440 x 900
H019;23;Vrouwelijk;Rechts;2;78;left;yes;250;undefined;null;true;focus;yes;439393;Chrome;112.0;macOS;10.15.7;undefined;undefined;1440 x 900;1440 x 900
H019;23;Vrouwelijk;Rechts;2;79;left;no;300;leftarrow;444;true;focus;yes;440613;Chrome;112.0;macOS;10.15.7;undefined;undefined;1440 x 900;1440 x 900
H019;23;Vrouwelijk;Rechts;2;80;left;no;300;leftarrow;502;true;focus;yes;441879;Chrome;112.0;macOS;10.15.7;undefined;undefined;1440 x 900;1440 x 900
H019;23;Vrouwelijk;Rechts;2;81;right;no;300;rightarrow;591;true;focus;yes;443242;Chrome;112.0;macOS;10.15.7;undefined;undefined;1440 x 900;1440 x 900
H019;23;Vrouwelijk;Rechts;2;82;right;no;300;rightarrow;601;true;focus;yes;444609;Chrome;112.0;macOS;10.15.7;undefined;undefined;1440 x 900;1440 x 900
H019;23;Vrouwelijk;Rechts;2;83;right;yes;300;undefined;null;true;focus;yes;446630;Chrome;112.0;macOS;10.15.7;undefined;undefined;1440 x 900;1440 x 900
H019;23;Vrouwelijk;Rechts;2;84;left;no;350;leftarrow;615;true;focus;yes;448012;Chrome;112.0;macOS;10.15.7;undefined;undefined;1440 x 900;1440 x 900
H019;23;Vrouwelijk;Rechts;2;85;left;no;350;leftarrow;496;true;focus;yes;449274;Chrome;112.0;macOS;10.15.7;undefined;undefined;1440 x 900;1440 x 900
H019;23;Vrouwelijk;Rechts;2;86;left;yes;350;undefined;null;true;focus;yes;451312;Chrome;112.0;macOS;10.15.7;undefined;undefined;1440 x 900;1440 x 900
H019;23;Vrouwelijk;Rechts;2;87;left;no;400;leftarrow;555;true;focus;yes;452639;Chrome;112.0;macOS;10.15.7;undefined;undefined;1440 x 900;1440 x 900
H019;23;Vrouwelijk;Rechts;2;88;right;no;400;rightarrow;534;true;focus;yes;453944;Chrome;112.0;macOS;10.15.7;undefined;undefined;1440 x 900;1440 x 900
H019;23;Vrouwelijk;Rechts;2;89;left;no;400;leftarrow;475;true;focus;yes;455197;Chrome;112.0;macOS;10.15.7;undefined;undefined;1440 x 900;1440 x 900
H019;23;Vrouwelijk;Rechts;2;90;left;no;400;leftarrow;449;true;focus;yes;456417;Chrome;112.0;macOS;10.15.7;undefined;undefined;1440 x 900;1440 x 900
H019;23;Vrouwelijk;Rechts;2;91;left;yes;400;leftarrow;465;false;focus;yes;457658;Chrome;112.0;macOS;10.15.7;undefined;undefined;1440 x 900;1440 x 900
H019;23;Vrouwelijk;Rechts;2;92;right;no;350;rightarrow;708;true;focus;yes;459133;Chrome;112.0;macOS;10.15.7;undefined;undefined;1440 x 900;1440 x 900
H019;23;Vrouwelijk;Rechts;2;93;right;yes;350;rightarrow;537;false;focus;yes;460432;Chrome;112.0;macOS;10.15.7;undefined;undefined;1440 x 900;1440 x 900
H019;23;Vrouwelijk;Rechts;2;94;left;no;300;leftarrow;495;true;focus;yes;461704;Chrome;112.0;macOS;10.15.7;undefined;undefined;1440 x 900;1440 x 900
H019;23;Vrouwelijk;Rechts;2;95;right;no;300;rightarrow;684;true;focus;yes;463156;Chrome;112.0;macOS;10.15.7;undefined;undefined;1440 x 900;1440 x 900
H019;23;Vrouwelijk;Rechts;2;96;right;no;300;rightarrow;605;true;focus;yes;464521;Chrome;112.0;macOS;10.15.7;undefined;undefined;1440 x 900;1440 x 900
H019;23;Vrouwelijk;Rechts;2;97;right;no;300;rightarrow;604;true;focus;yes;465902;Chrome;112.0;macOS;10.15.7;undefined;undefined;1440 x 900;1440 x 900
H019;23;Vrouwelijk;Rechts;2;98;right;yes;300;undefined;null;true;focus;yes;467943;Chrome;112.0;macOS;10.15.7;undefined;undefined;1440 x 900;1440 x 900
H019;23;Vrouwelijk;Rechts;2;99;right;no;350;rightarrow;637;true;focus;yes;469352;Chrome;112.0;macOS;10.15.7;undefined;undefined;1440 x 900;1440 x 900
H019;23;Vrouwelijk;Rechts;2;100;left;no;350;leftarrow;592;true;focus;yes;470721;Chrome;112.0;macOS;10.15.7;undefined;undefined;1440 x 900;1440 x 900
H019;23;Vrouwelijk;Rechts;2;101;left;no;350;leftarrow;680;true;focus;yes;472178;Chrome;112.0;macOS;10.15.7;undefined;undefined;1440 x 900;1440 x 900
H019;23;Vrouwelijk;Rechts;2;102;left;no;350;leftarrow;623;true;focus;yes;473577;Chrome;112.0;macOS;10.15.7;undefined;undefined;1440 x 900;1440 x 900
H019;23;Vrouwelijk;Rechts;2;103;left;yes;350;leftarrow;461;false;focus;yes;474804;Chrome;112.0;macOS;10.15.7;undefined;undefined;1440 x 900;1440 x 900
H019;23;Vrouwelijk;Rechts;2;104;right;no;300;rightarrow;617;true;focus;yes;476194;Chrome;112.0;macOS;10.15.7;undefined;undefined;1440 x 900;1440 x 900
H019;23;Vrouwelijk;Rechts;2;105;right;no;300;rightarrow;470;true;focus;yes;477440;Chrome;112.0;macOS;10.15.7;undefined;undefined;1440 x 900;1440 x 900
H019;23;Vrouwelijk;Rechts;2;106;right;no;300;rightarrow;602;true;focus;yes;478805;Chrome;112.0;macOS;10.15.7;undefined;undefined;1440 x 900;1440 x 900
H019;23;Vrouwelijk;Rechts;2;107;left;yes;300;undefined;null;true;focus;yes;480842;Chrome;112.0;macOS;10.15.7;undefined;undefined;1440 x 900;1440 x 900
H019;23;Vrouwelijk;Rechts;2;108;right;yes;350;undefined;null;true;focus;yes;482879;Chrome;112.0;macOS;10.15.7;undefined;undefined;1440 x 900;1440 x 900
H019;23;Vrouwelijk;Rechts;2;109;right;no;400;rightarrow;627;true;focus;yes;484278;Chrome;112.0;macOS;10.15.7;undefined;undefined;1440 x 900;1440 x 900
H019;23;Vrouwelijk;Rechts;2;110;left;no;400;leftarrow;652;true;focus;yes;485701;Chrome;112.0;macOS;10.15.7;undefined;undefined;1440 x 900;1440 x 900
H019;23;Vrouwelijk;Rechts;2;111;left;no;400;leftarrow;721;true;focus;yes;487185;Chrome;112.0;macOS;10.15.7;undefined;undefined;1440 x 900;1440 x 900
H019;23;Vrouwelijk;Rechts;2;112;left;no;400;leftarrow;633;true;focus;yes;488585;Chrome;112.0;macOS;10.15.7;undefined;undefined;1440 x 900;1440 x 900
H019;23;Vrouwelijk;Rechts;2;113;right;yes;400;undefined;null;true;focus;yes;490607;Chrome;112.0;macOS;10.15.7;undefined;undefined;1440 x 900;1440 x 900
H019;23;Vrouwelijk;Rechts;2;114;left;no;450;leftarrow;638;true;focus;yes;492015;Chrome;112.0;macOS;10.15.7;undefined;undefined;1440 x 900;1440 x 900
H019;23;Vrouwelijk;Rechts;2;115;left;no;450;leftarrow;697;true;focus;yes;493480;Chrome;112.0;macOS;10.15.7;undefined;undefined;1440 x 900;1440 x 900
H019;23;Vrouwelijk;Rechts;2;116;left;yes;450;leftarrow;652;false;focus;yes;494908;Chrome;112.0;macOS;10.15.7;undefined;undefined;1440 x 900;1440 x 900
H019;23;Vrouwelijk;Rechts;2;117;left;no;400;leftarrow;711;true;focus;yes;496392;Chrome;112.0;macOS;10.15.7;undefined;undefined;1440 x 900;1440 x 900
H019;23;Vrouwelijk;Rechts;2;118;right;no;400;rightarrow;655;true;focus;yes;497814;Chrome;112.0;macOS;10.15.7;undefined;undefined;1440 x 900;1440 x 900
H019;23;Vrouwelijk;Rechts;2;119;right;no;400;rightarrow;719;true;focus;yes;499312;Chrome;112.0;macOS;10.15.7;undefined;undefined;1440 x 900;1440 x 900
H019;23;Vrouwelijk;Rechts;2;120;right;no;400;rightarrow;756;true;focus;yes;500830;Chrome;112.0;macOS;10.15.7;undefined;undefined;1440 x 900;1440 x 900
H019;23;Vrouwelijk;Rechts;2;121;right;no;400;rightarrow;758;true;focus;yes;502367;Chrome;112.0;macOS;10.15.7;undefined;undefined;1440 x 900;1440 x 900
H019;23;Vrouwelijk;Rechts;2;122;right;no;400;rightarrow;793;true;focus;yes;503935;Chrome;112.0;macOS;10.15.7;undefined;undefined;1440 x 900;1440 x 900
H019;23;Vrouwelijk;Rechts;2;123;left;no;400;leftarrow;887;true;focus;yes;505599;Chrome;112.0;macOS;10.15.7;undefined;undefined;1440 x 900;1440 x 900
H019;23;Vrouwelijk;Rechts;2;124;left;no;400;leftarrow;727;true;focus;yes;507090;Chrome;112.0;macOS;10.15.7;undefined;undefined;1440 x 900;1440 x 900
H019;23;Vrouwelijk;Rechts;2;125;left;yes;400;undefined;null;true;focus;yes;509115;Chrome;112.0;macOS;10.15.7;undefined;undefined;1440 x 900;1440 x 900
H019;23;Vrouwelijk;Rechts;2;126;right;yes;450;undefined;null;true;focus;yes;511148;Chrome;112.0;macOS;10.15.7;undefined;undefined;1440 x 900;1440 x 900
H019;23;Vrouwelijk;Rechts;2;127;left;no;500;leftarrow;728;true;focus;yes;512659;Chrome;112.0;macOS;10.15.7;undefined;undefined;1440 x 900;1440 x 900
H019;23;Vrouwelijk;Rechts;2;128;right;no;500;rightarrow;648;true;focus;yes;514080;Chrome;112.0;macOS;10.15.7;undefined;undefined;1440 x 900;1440 x 900
H019;23;Vrouwelijk;Rechts;3;1;right;no;500;rightarrow;609;true;focus;yes;533610;Chrome;112.0;macOS;10.15.7;undefined;undefined;1440 x 900;1440 x 900
H019;23;Vrouwelijk;Rechts;3;2;left;no;500;leftarrow;608;true;focus;yes;534981;Chrome;112.0;macOS;10.15.7;undefined;undefined;1440 x 900;1440 x 900
H019;23;Vrouwelijk;Rechts;3;3;left;yes;500;leftarrow;617;false;focus;yes;536376;Chrome;112.0;macOS;10.15.7;undefined;undefined;1440 x 900;1440 x 900
H019;23;Vrouwelijk;Rechts;3;4;right;no;450;rightarrow;625;true;focus;yes;537774;Chrome;112.0;macOS;10.15.7;undefined;undefined;1440 x 900;1440 x 900
H019;23;Vrouwelijk;Rechts;3;5;left;no;450;leftarrow;567;true;focus;yes;539107;Chrome;112.0;macOS;10.15.7;undefined;undefined;1440 x 900;1440 x 900
H019;23;Vrouwelijk;Rechts;3;6;left;no;450;leftarrow;697;true;focus;yes;540575;Chrome;112.0;macOS;10.15.7;undefined;undefined;1440 x 900;1440 x 900
H019;23;Vrouwelijk;Rechts;3;7;right;yes;450;undefined;null;true;focus;yes;542613;Chrome;112.0;macOS;10.15.7;undefined;undefined;1440 x 900;1440 x 900
H019;23;Vrouwelijk;Rechts;3;8;right;no;500;rightarrow;588;true;focus;yes;543978;Chrome;112.0;macOS;10.15.7;undefined;undefined;1440 x 900;1440 x 900
H019;23;Vrouwelijk;Rechts;3;9;left;no;500;leftarrow;624;true;focus;yes;545364;Chrome;112.0;macOS;10.15.7;undefined;undefined;1440 x 900;1440 x 900
H019;23;Vrouwelijk;Rechts;3;10;right;no;500;rightarrow;562;true;focus;yes;546704;Chrome;112.0;macOS;10.15.7;undefined;undefined;1440 x 900;1440 x 900
H019;23;Vrouwelijk;Rechts;3;11;right;no;500;rightarrow;747;true;focus;yes;548226;Chrome;112.0;macOS;10.15.7;undefined;undefined;1440 x 900;1440 x 900
H019;23;Vrouwelijk;Rechts;3;12;right;no;500;rightarrow;877;true;focus;yes;549861;Chrome;112.0;macOS;10.15.7;undefined;undefined;1440 x 900;1440 x 900
H019;23;Vrouwelijk;Rechts;3;13;right;yes;500;rightarrow;750;false;focus;yes;551379;Chrome;112.0;macOS;10.15.7;undefined;undefined;1440 x 900;1440 x 900
H019;23;Vrouwelijk;Rechts;3;14;left;no;450;leftarrow;741;true;focus;yes;552899;Chrome;112.0;macOS;10.15.7;undefined;undefined;1440 x 900;1440 x 900
H019;23;Vrouwelijk;Rechts;3;15;left;yes;450;undefined;null;true;focus;yes;554940;Chrome;112.0;macOS;10.15.7;undefined;undefined;1440 x 900;1440 x 900
H019;23;Vrouwelijk;Rechts;3;16;left;no;500;leftarrow;662;true;focus;yes;556374;Chrome;112.0;macOS;10.15.7;undefined;undefined;1440 x 900;1440 x 900
H019;23;Vrouwelijk;Rechts;3;17;left;no;500;leftarrow;667;true;focus;yes;557817;Chrome;112.0;macOS;10.15.7;undefined;undefined;1440 x 900;1440 x 900
H019;23;Vrouwelijk;Rechts;3;18;right;yes;500;rightarrow;731;false;focus;yes;559323;Chrome;112.0;macOS;10.15.7;undefined;undefined;1440 x 900;1440 x 900
H019;23;Vrouwelijk;Rechts;3;19;right;no;450;rightarrow;846;true;focus;yes;560950;Chrome;112.0;macOS;10.15.7;undefined;undefined;1440 x 900;1440 x 900
H019;23;Vrouwelijk;Rechts;3;20;right;no;450;rightarrow;801;true;focus;yes;562527;Chrome;112.0;macOS;10.15.7;undefined;undefined;1440 x 900;1440 x 900
H019;23;Vrouwelijk;Rechts;3;21;right;no;450;rightarrow;658;true;focus;yes;563962;Chrome;112.0;macOS;10.15.7;undefined;undefined;1440 x 900;1440 x 900
H019;23;Vrouwelijk;Rechts;3;22;left;yes;450;undefined;null;true;focus;yes;565988;Chrome;112.0;macOS;10.15.7;undefined;undefined;1440 x 900;1440 x 900
H019;23;Vrouwelijk;Rechts;3;23;left;no;500;leftarrow;756;true;focus;yes;567517;Chrome;112.0;macOS;10.15.7;undefined;undefined;1440 x 900;1440 x 900
H019;23;Vrouwelijk;Rechts;3;24;left;no;500;leftarrow;663;true;focus;yes;568957;Chrome;112.0;macOS;10.15.7;undefined;undefined;1440 x 900;1440 x 900
H019;23;Vrouwelijk;Rechts;3;25;right;yes;500;rightarrow;695;false;focus;yes;570428;Chrome;112.0;macOS;10.15.7;undefined;undefined;1440 x 900;1440 x 900
H019;23;Vrouwelijk;Rechts;3;26;left;yes;450;undefined;null;true;focus;yes;572451;Chrome;112.0;macOS;10.15.7;undefined;undefined;1440 x 900;1440 x 900
H019;23;Vrouwelijk;Rechts;3;27;right;no;500;rightarrow;729;true;focus;yes;573957;Chrome;112.0;macOS;10.15.7;undefined;undefined;1440 x 900;1440 x 900
H019;23;Vrouwelijk;Rechts;3;28;left;no;500;leftarrow;886;true;focus;yes;575609;Chrome;112.0;macOS;10.15.7;undefined;undefined;1440 x 900;1440 x 900
H019;23;Vrouwelijk;Rechts;3;29;right;no;500;rightarrow;853;true;focus;yes;577225;Chrome;112.0;macOS;10.15.7;undefined;undefined;1440 x 900;1440 x 900
H019;23;Vrouwelijk;Rechts;3;30;left;no;500;leftarrow;680;true;focus;yes;578677;Chrome;112.0;macOS;10.15.7;undefined;undefined;1440 x 900;1440 x 900
H019;23;Vrouwelijk;Rechts;3;31;left;no;500;leftarrow;624;true;focus;yes;580067;Chrome;112.0;macOS;10.15.7;undefined;undefined;1440 x 900;1440 x 900
H019;23;Vrouwelijk;Rechts;3;32;right;no;500;rightarrow;814;true;focus;yes;581660;Chrome;112.0;macOS;10.15.7;undefined;undefined;1440 x 900;1440 x 900
H019;23;Vrouwelijk;Rechts;3;33;right;yes;500;undefined;null;true;focus;yes;583695;Chrome;112.0;macOS;10.15.7;undefined;undefined;1440 x 900;1440 x 900
H019;23;Vrouwelijk;Rechts;3;34;right;no;550;rightarrow;641;true;focus;yes;585109;Chrome;112.0;macOS;10.15.7;undefined;undefined;1440 x 900;1440 x 900
H019;23;Vrouwelijk;Rechts;3;35;left;no;550;leftarrow;632;true;focus;yes;586507;Chrome;112.0;macOS;10.15.7;undefined;undefined;1440 x 900;1440 x 900
H019;23;Vrouwelijk;Rechts;3;36;right;no;550;rightarrow;699;true;focus;yes;587984;Chrome;112.0;macOS;10.15.7;undefined;undefined;1440 x 900;1440 x 900
H019;23;Vrouwelijk;Rechts;3;37;right;no;550;rightarrow;655;true;focus;yes;589412;Chrome;112.0;macOS;10.15.7;undefined;undefined;1440 x 900;1440 x 900
H019;23;Vrouwelijk;Rechts;3;38;left;no;550;leftarrow;650;true;focus;yes;590829;Chrome;112.0;macOS;10.15.7;undefined;undefined;1440 x 900;1440 x 900
H019;23;Vrouwelijk;Rechts;3;39;left;no;550;leftarrow;653;true;focus;yes;592244;Chrome;112.0;macOS;10.15.7;undefined;undefined;1440 x 900;1440 x 900
H019;23;Vrouwelijk;Rechts;3;40;left;yes;550;leftarrow;518;false;focus;yes;593538;Chrome;112.0;macOS;10.15.7;undefined;undefined;1440 x 900;1440 x 900
H019;23;Vrouwelijk;Rechts;3;41;left;no;500;leftarrow;545;true;focus;yes;594861;Chrome;112.0;macOS;10.15.7;undefined;undefined;1440 x 900;1440 x 900
H019;23;Vrouwelijk;Rechts;3;42;right;no;500;rightarrow;738;true;focus;yes;596365;Chrome;112.0;macOS;10.15.7;undefined;undefined;1440 x 900;1440 x 900
H019;23;Vrouwelijk;Rechts;3;43;right;no;500;rightarrow;705;true;focus;yes;597845;Chrome;112.0;macOS;10.15.7;undefined;undefined;1440 x 900;1440 x 900
H019;23;Vrouwelijk;Rechts;3;44;left;no;500;leftarrow;637;true;focus;yes;599255;Chrome;112.0;macOS;10.15.7;undefined;undefined;1440 x 900;1440 x 900
H019;23;Vrouwelijk;Rechts;3;45;right;no;500;rightarrow;732;true;focus;yes;600760;Chrome;112.0;macOS;10.15.7;undefined;undefined;1440 x 900;1440 x 900
H019;23;Vrouwelijk;Rechts;3;46;left;no;500;leftarrow;668;true;focus;yes;602191;Chrome;112.0;macOS;10.15.7;undefined;undefined;1440 x 900;1440 x 900
H019;23;Vrouwelijk;Rechts;3;47;right;yes;500;rightarrow;625;false;focus;yes;603579;Chrome;112.0;macOS;10.15.7;undefined;undefined;1440 x 900;1440 x 900
H019;23;Vrouwelijk;Rechts;3;48;left;yes;450;leftarrow;681;false;focus;yes;605037;Chrome;112.0;macOS;10.15.7;undefined;undefined;1440 x 900;1440 x 900
H019;23;Vrouwelijk;Rechts;3;49;right;no;400;rightarrow;678;true;focus;yes;606482;Chrome;112.0;macOS;10.15.7;undefined;undefined;1440 x 900;1440 x 900
H019;23;Vrouwelijk;Rechts;3;50;right;yes;400;rightarrow;552;false;focus;yes;607804;Chrome;112.0;macOS;10.15.7;undefined;undefined;1440 x 900;1440 x 900
H019;23;Vrouwelijk;Rechts;3;51;left;no;350;leftarrow;827;true;focus;yes;609407;Chrome;112.0;macOS;10.15.7;undefined;undefined;1440 x 900;1440 x 900
H019;23;Vrouwelijk;Rechts;3;52;right;no;350;rightarrow;635;true;focus;yes;610815;Chrome;112.0;macOS;10.15.7;undefined;undefined;1440 x 900;1440 x 900
H019;23;Vrouwelijk;Rechts;3;53;left;no;350;leftarrow;647;true;focus;yes;612226;Chrome;112.0;macOS;10.15.7;undefined;undefined;1440 x 900;1440 x 900
H019;23;Vrouwelijk;Rechts;3;54;left;yes;350;leftarrow;538;false;focus;yes;613542;Chrome;112.0;macOS;10.15.7;undefined;undefined;1440 x 900;1440 x 900
H019;23;Vrouwelijk;Rechts;3;55;right;no;300;rightarrow;914;true;focus;yes;615228;Chrome;112.0;macOS;10.15.7;undefined;undefined;1440 x 900;1440 x 900
H019;23;Vrouwelijk;Rechts;3;56;left;no;300;leftarrow;1089;true;focus;yes;617093;Chrome;112.0;macOS;10.15.7;undefined;undefined;1440 x 900;1440 x 900
H019;23;Vrouwelijk;Rechts;3;57;right;no;300;rightarrow;595;true;focus;yes;618462;Chrome;112.0;macOS;10.15.7;undefined;undefined;1440 x 900;1440 x 900
H019;23;Vrouwelijk;Rechts;3;58;left;no;300;leftarrow;471;true;focus;yes;619707;Chrome;112.0;macOS;10.15.7;undefined;undefined;1440 x 900;1440 x 900
H019;23;Vrouwelijk;Rechts;3;59;right;no;300;rightarrow;456;true;focus;yes;620940;Chrome;112.0;macOS;10.15.7;undefined;undefined;1440 x 900;1440 x 900
H019;23;Vrouwelijk;Rechts;3;60;left;no;300;leftarrow;478;true;focus;yes;622194;Chrome;112.0;macOS;10.15.7;undefined;undefined;1440 x 900;1440 x 900
H019;23;Vrouwelijk;Rechts;3;61;left;no;300;leftarrow;620;true;focus;yes;623591;Chrome;112.0;macOS;10.15.7;undefined;undefined;1440 x 900;1440 x 900
H019;23;Vrouwelijk;Rechts;3;62;right;no;300;rightarrow;490;true;focus;yes;624853;Chrome;112.0;macOS;10.15.7;undefined;undefined;1440 x 900;1440 x 900
H019;23;Vrouwelijk;Rechts;3;63;right;yes;300;undefined;null;true;focus;yes;626873;Chrome;112.0;macOS;10.15.7;undefined;undefined;1440 x 900;1440 x 900
H019;23;Vrouwelijk;Rechts;3;64;left;yes;350;undefined;null;true;focus;yes;628905;Chrome;112.0;macOS;10.15.7;undefined;undefined;1440 x 900;1440 x 900
H019;23;Vrouwelijk;Rechts;3;65;left;no;400;leftarrow;576;true;focus;yes;630253;Chrome;112.0;macOS;10.15.7;undefined;undefined;1440 x 900;1440 x 900
H019;23;Vrouwelijk;Rechts;3;66;right;yes;400;rightarrow;549;false;focus;yes;631566;Chrome;112.0;macOS;10.15.7;undefined;undefined;1440 x 900;1440 x 900
H019;23;Vrouwelijk;Rechts;3;67;right;no;350;rightarrow;643;true;focus;yes;632982;Chrome;112.0;macOS;10.15.7;undefined;undefined;1440 x 900;1440 x 900
H019;23;Vrouwelijk;Rechts;3;68;left;yes;350;undefined;null;true;focus;yes;635014;Chrome;112.0;macOS;10.15.7;undefined;undefined;1440 x 900;1440 x 900
H019;23;Vrouwelijk;Rechts;3;69;left;no;400;leftarrow;613;true;focus;yes;636395;Chrome;112.0;macOS;10.15.7;undefined;undefined;1440 x 900;1440 x 900
H019;23;Vrouwelijk;Rechts;3;70;left;no;400;leftarrow;605;true;focus;yes;637777;Chrome;112.0;macOS;10.15.7;undefined;undefined;1440 x 900;1440 x 900
H019;23;Vrouwelijk;Rechts;3;71;right;no;400;rightarrow;602;true;focus;yes;639157;Chrome;112.0;macOS;10.15.7;undefined;undefined;1440 x 900;1440 x 900
H019;23;Vrouwelijk;Rechts;3;72;right;no;400;rightarrow;739;true;focus;yes;640670;Chrome;112.0;macOS;10.15.7;undefined;undefined;1440 x 900;1440 x 900
H019;23;Vrouwelijk;Rechts;3;73;left;no;400;leftarrow;689;true;focus;yes;642124;Chrome;112.0;macOS;10.15.7;undefined;undefined;1440 x 900;1440 x 900
H019;23;Vrouwelijk;Rechts;3;74;left;yes;400;undefined;null;true;focus;yes;644160;Chrome;112.0;macOS;10.15.7;undefined;undefined;1440 x 900;1440 x 900
H019;23;Vrouwelijk;Rechts;3;75;right;no;450;rightarrow;589;true;focus;yes;645531;Chrome;112.0;macOS;10.15.7;undefined;undefined;1440 x 900;1440 x 900
H019;23;Vrouwelijk;Rechts;3;76;right;yes;450;undefined;null;true;focus;yes;647548;Chrome;112.0;macOS;10.15.7;undefined;undefined;1440 x 900;1440 x 900
H019;23;Vrouwelijk;Rechts;3;77;left;no;500;leftarrow;690;true;focus;yes;649007;Chrome;112.0;macOS;10.15.7;undefined;undefined;1440 x 900;1440 x 900
H019;23;Vrouwelijk;Rechts;3;78;right;no;500;rightarrow;652;true;focus;yes;650440;Chrome;112.0;macOS;10.15.7;undefined;undefined;1440 x 900;1440 x 900
H019;23;Vrouwelijk;Rechts;3;79;right;no;500;rightarrow;757;true;focus;yes;651977;Chrome;112.0;macOS;10.15.7;undefined;undefined;1440 x 900;1440 x 900
H019;23;Vrouwelijk;Rechts;3;80;left;no;500;leftarrow;736;true;focus;yes;653490;Chrome;112.0;macOS;10.15.7;undefined;undefined;1440 x 900;1440 x 900
H019;23;Vrouwelijk;Rechts;3;81;right;yes;500;undefined;null;true;focus;yes;655528;Chrome;112.0;macOS;10.15.7;undefined;undefined;1440 x 900;1440 x 900
H019;23;Vrouwelijk;Rechts;3;82;right;no;550;rightarrow;815;true;focus;yes;657115;Chrome;112.0;macOS;10.15.7;undefined;undefined;1440 x 900;1440 x 900
H019;23;Vrouwelijk;Rechts;3;83;left;no;550;leftarrow;746;true;focus;yes;658634;Chrome;112.0;macOS;10.15.7;undefined;undefined;1440 x 900;1440 x 900
H019;23;Vrouwelijk;Rechts;3;84;left;no;550;leftarrow;791;true;focus;yes;660201;Chrome;112.0;macOS;10.15.7;undefined;undefined;1440 x 900;1440 x 900
H019;23;Vrouwelijk;Rechts;3;85;right;no;550;rightarrow;700;true;focus;yes;661668;Chrome;112.0;macOS;10.15.7;undefined;undefined;1440 x 900;1440 x 900
H019;23;Vrouwelijk;Rechts;3;86;right;no;550;rightarrow;727;true;focus;yes;663160;Chrome;112.0;macOS;10.15.7;undefined;undefined;1440 x 900;1440 x 900
H019;23;Vrouwelijk;Rechts;3;87;left;no;550;leftarrow;664;true;focus;yes;664602;Chrome;112.0;macOS;10.15.7;undefined;undefined;1440 x 900;1440 x 900
H019;23;Vrouwelijk;Rechts;3;88;left;yes;550;leftarrow;719;false;focus;yes;666088;Chrome;112.0;macOS;10.15.7;undefined;undefined;1440 x 900;1440 x 900
H019;23;Vrouwelijk;Rechts;3;89;left;yes;500;leftarrow;597;false;focus;yes;667463;Chrome;112.0;macOS;10.15.7;undefined;undefined;1440 x 900;1440 x 900
H019;23;Vrouwelijk;Rechts;3;90;left;no;450;leftarrow;971;true;focus;yes;669199;Chrome;112.0;macOS;10.15.7;undefined;undefined;1440 x 900;1440 x 900
H019;23;Vrouwelijk;Rechts;3;91;left;no;450;leftarrow;590;true;focus;yes;670568;Chrome;112.0;macOS;10.15.7;undefined;undefined;1440 x 900;1440 x 900
H019;23;Vrouwelijk;Rechts;3;92;right;no;450;rightarrow;609;true;focus;yes;671954;Chrome;112.0;macOS;10.15.7;undefined;undefined;1440 x 900;1440 x 900
H019;23;Vrouwelijk;Rechts;3;93;right;no;450;rightarrow;678;true;focus;yes;673407;Chrome;112.0;macOS;10.15.7;undefined;undefined;1440 x 900;1440 x 900
H019;23;Vrouwelijk;Rechts;3;94;right;no;450;rightarrow;653;true;focus;yes;674838;Chrome;112.0;macOS;10.15.7;undefined;undefined;1440 x 900;1440 x 900
H019;23;Vrouwelijk;Rechts;3;95;left;no;450;leftarrow;909;true;focus;yes;676525;Chrome;112.0;macOS;10.15.7;undefined;undefined;1440 x 900;1440 x 900
H019;23;Vrouwelijk;Rechts;3;96;right;yes;450;rightarrow;612;false;focus;yes;677910;Chrome;112.0;macOS;10.15.7;undefined;undefined;1440 x 900;1440 x 900
H019;23;Vrouwelijk;Rechts;3;97;left;no;400;leftarrow;593;true;focus;yes;679275;Chrome;112.0;macOS;10.15.7;undefined;undefined;1440 x 900;1440 x 900
H019;23;Vrouwelijk;Rechts;3;98;right;no;400;rightarrow;614;true;focus;yes;680662;Chrome;112.0;macOS;10.15.7;undefined;undefined;1440 x 900;1440 x 900
H019;23;Vrouwelijk;Rechts;3;99;right;no;400;rightarrow;623;true;focus;yes;682065;Chrome;112.0;macOS;10.15.7;undefined;undefined;1440 x 900;1440 x 900
H019;23;Vrouwelijk;Rechts;3;100;left;yes;400;leftarrow;641;false;focus;yes;683483;Chrome;112.0;macOS;10.15.7;undefined;undefined;1440 x 900;1440 x 900
H019;23;Vrouwelijk;Rechts;3;101;left;no;350;leftarrow;748;true;focus;yes;684996;Chrome;112.0;macOS;10.15.7;undefined;undefined;1440 x 900;1440 x 900
H019;23;Vrouwelijk;Rechts;3;102;left;no;350;leftarrow;759;true;focus;yes;686518;Chrome;112.0;macOS;10.15.7;undefined;undefined;1440 x 900;1440 x 900
H019;23;Vrouwelijk;Rechts;3;103;right;yes;350;undefined;null;true;focus;yes;688559;Chrome;112.0;macOS;10.15.7;undefined;undefined;1440 x 900;1440 x 900
H019;23;Vrouwelijk;Rechts;3;104;right;no;400;rightarrow;578;true;focus;yes;689909;Chrome;112.0;macOS;10.15.7;undefined;undefined;1440 x 900;1440 x 900
H019;23;Vrouwelijk;Rechts;3;105;left;no;400;leftarrow;569;true;focus;yes;691250;Chrome;112.0;macOS;10.15.7;undefined;undefined;1440 x 900;1440 x 900
H019;23;Vrouwelijk;Rechts;3;106;left;no;400;leftarrow;863;true;focus;yes;692889;Chrome;112.0;macOS;10.15.7;undefined;undefined;1440 x 900;1440 x 900
H019;23;Vrouwelijk;Rechts;3;107;right;no;400;rightarrow;708;true;focus;yes;694372;Chrome;112.0;macOS;10.15.7;undefined;undefined;1440 x 900;1440 x 900
H019;23;Vrouwelijk;Rechts;3;108;right;no;400;rightarrow;938;true;focus;yes;696080;Chrome;112.0;macOS;10.15.7;undefined;undefined;1440 x 900;1440 x 900
H019;23;Vrouwelijk;Rechts;3;109;right;no;400;rightarrow;835;true;focus;yes;697691;Chrome;112.0;macOS;10.15.7;undefined;undefined;1440 x 900;1440 x 900
H019;23;Vrouwelijk;Rechts;3;110;right;yes;400;undefined;null;true;focus;yes;699718;Chrome;112.0;macOS;10.15.7;undefined;undefined;1440 x 900;1440 x 900
H019;23;Vrouwelijk;Rechts;3;111;left;yes;450;undefined;null;true;focus;yes;701758;Chrome;112.0;macOS;10.15.7;undefined;undefined;1440 x 900;1440 x 900
H019;23;Vrouwelijk;Rechts;3;112;left;no;500;leftarrow;767;true;focus;yes;703298;Chrome;112.0;macOS;10.15.7;undefined;undefined;1440 x 900;1440 x 900
H019;23;Vrouwelijk;Rechts;3;113;right;no;500;rightarrow;538;true;focus;yes;704611;Chrome;112.0;macOS;10.15.7;undefined;undefined;1440 x 900;1440 x 900
H019;23;Vrouwelijk;Rechts;3;114;right;yes;500;rightarrow;657;false;focus;yes;706032;Chrome;112.0;macOS;10.15.7;undefined;undefined;1440 x 900;1440 x 900
H019;23;Vrouwelijk;Rechts;3;115;right;no;450;rightarrow;771;true;focus;yes;707565;Chrome;112.0;macOS;10.15.7;undefined;undefined;1440 x 900;1440 x 900
H019;23;Vrouwelijk;Rechts;3;116;left;yes;450;undefined;null;true;focus;yes;709598;Chrome;112.0;macOS;10.15.7;undefined;undefined;1440 x 900;1440 x 900
H019;23;Vrouwelijk;Rechts;3;117;left;no;500;leftarrow;690;true;focus;yes;711057;Chrome;112.0;macOS;10.15.7;undefined;undefined;1440 x 900;1440 x 900
H019;23;Vrouwelijk;Rechts;3;118;right;no;500;rightarrow;846;true;focus;yes;712678;Chrome;112.0;macOS;10.15.7;undefined;undefined;1440 x 900;1440 x 900
H019;23;Vrouwelijk;Rechts;3;119;left;no;500;leftarrow;765;true;focus;yes;714220;Chrome;112.0;macOS;10.15.7;undefined;undefined;1440 x 900;1440 x 900
H019;23;Vrouwelijk;Rechts;3;120;left;no;500;leftarrow;966;true;focus;yes;715966;Chrome;112.0;macOS;10.15.7;undefined;undefined;1440 x 900;1440 x 900
H019;23;Vrouwelijk;Rechts;3;121;right;no;500;rightarrow;739;true;focus;yes;717480;Chrome;112.0;macOS;10.15.7;undefined;undefined;1440 x 900;1440 x 900
H019;23;Vrouwelijk;Rechts;3;122;right;no;500;rightarrow;910;true;focus;yes;719166;Chrome;112.0;macOS;10.15.7;undefined;undefined;1440 x 900;1440 x 900
H019;23;Vrouwelijk;Rechts;3;123;right;yes;500;undefined;null;true;focus;yes;721205;Chrome;112.0;macOS;10.15.7;undefined;undefined;1440 x 900;1440 x 900
H019;23;Vrouwelijk;Rechts;3;124;right;no;550;rightarrow;666;true;focus;yes;722636;Chrome;112.0;macOS;10.15.7;undefined;undefined;1440 x 900;1440 x 900
H019;23;Vrouwelijk;Rechts;3;125;left;no;550;leftarrow;806;true;focus;yes;724222;Chrome;112.0;macOS;10.15.7;undefined;undefined;1440 x 900;1440 x 900
H019;23;Vrouwelijk;Rechts;3;126;left;yes;550;leftarrow;774;false;focus;yes;725764;Chrome;112.0;macOS;10.15.7;undefined;undefined;1440 x 900;1440 x 900
H019;23;Vrouwelijk;Rechts;3;127;left;no;500;leftarrow;737;true;focus;yes;727270;Chrome;112.0;macOS;10.15.7;undefined;undefined;1440 x 900;1440 x 900
H019;23;Vrouwelijk;Rechts;3;128;left;no;500;leftarrow;726;true;focus;yes;728772;Chrome;112.0;macOS;10.15.7;undefined;undefined;1440 x 900;1440 x 900
H019;23;Vrouwelijk;Rechts;4;1;right;no;500;rightarrow;689;true;focus;yes;748442;Chrome;112.0;macOS;10.15.7;undefined;undefined;1440 x 900;1440 x 900
H019;23;Vrouwelijk;Rechts;4;2;left;no;500;leftarrow;606;true;focus;yes;749821;Chrome;112.0;macOS;10.15.7;undefined;undefined;1440 x 900;1440 x 900
H019;23;Vrouwelijk;Rechts;4;3;right;yes;500;rightarrow;495;false;focus;yes;751093;Chrome;112.0;macOS;10.15.7;undefined;undefined;1440 x 900;1440 x 900
H019;23;Vrouwelijk;Rechts;4;4;left;no;450;leftarrow;462;true;focus;yes;752322;Chrome;112.0;macOS;10.15.7;undefined;undefined;1440 x 900;1440 x 900
H019;23;Vrouwelijk;Rechts;4;5;right;no;450;rightarrow;496;true;focus;yes;753591;Chrome;112.0;macOS;10.15.7;undefined;undefined;1440 x 900;1440 x 900
H019;23;Vrouwelijk;Rechts;4;6;left;no;450;leftarrow;676;true;focus;yes;755042;Chrome;112.0;macOS;10.15.7;undefined;undefined;1440 x 900;1440 x 900
H019;23;Vrouwelijk;Rechts;4;7;right;no;450;rightarrow;530;true;focus;yes;756354;Chrome;112.0;macOS;10.15.7;undefined;undefined;1440 x 900;1440 x 900
H019;23;Vrouwelijk;Rechts;4;8;left;yes;450;leftarrow;382;false;focus;yes;757510;Chrome;112.0;macOS;10.15.7;undefined;undefined;1440 x 900;1440 x 900
H019;23;Vrouwelijk;Rechts;4;9;right;no;400;rightarrow;455;true;focus;yes;758742;Chrome;112.0;macOS;10.15.7;undefined;undefined;1440 x 900;1440 x 900
H019;23;Vrouwelijk;Rechts;4;10;left;no;400;leftarrow;366;true;focus;yes;759875;Chrome;112.0;macOS;10.15.7;undefined;undefined;1440 x 900;1440 x 900
H019;23;Vrouwelijk;Rechts;4;11;left;no;400;leftarrow;534;true;focus;yes;761190;Chrome;112.0;macOS;10.15.7;undefined;undefined;1440 x 900;1440 x 900
H019;23;Vrouwelijk;Rechts;4;12;right;yes;400;rightarrow;376;false;focus;yes;762342;Chrome;112.0;macOS;10.15.7;undefined;undefined;1440 x 900;1440 x 900
H019;23;Vrouwelijk;Rechts;4;13;left;yes;350;leftarrow;392;false;focus;yes;763510;Chrome;112.0;macOS;10.15.7;undefined;undefined;1440 x 900;1440 x 900
H019;23;Vrouwelijk;Rechts;4;14;right;no;300;rightarrow;708;true;focus;yes;764983;Chrome;112.0;macOS;10.15.7;undefined;undefined;1440 x 900;1440 x 900
H019;23;Vrouwelijk;Rechts;4;15;right;no;300;rightarrow;404;true;focus;yes;766162;Chrome;112.0;macOS;10.15.7;undefined;undefined;1440 x 900;1440 x 900
H019;23;Vrouwelijk;Rechts;4;16;left;no;300;leftarrow;352;true;focus;yes;767296;Chrome;112.0;macOS;10.15.7;undefined;undefined;1440 x 900;1440 x 900
H019;23;Vrouwelijk;Rechts;4;17;left;no;300;leftarrow;432;true;focus;yes;768502;Chrome;112.0;macOS;10.15.7;undefined;undefined;1440 x 900;1440 x 900
H019;23;Vrouwelijk;Rechts;4;18;left;yes;300;undefined;null;true;focus;yes;770523;Chrome;112.0;macOS;10.15.7;undefined;undefined;1440 x 900;1440 x 900
H019;23;Vrouwelijk;Rechts;4;19;left;no;350;leftarrow;669;true;focus;yes;771966;Chrome;112.0;macOS;10.15.7;undefined;undefined;1440 x 900;1440 x 900
H019;23;Vrouwelijk;Rechts;4;20;right;no;350;rightarrow;514;true;focus;yes;773253;Chrome;112.0;macOS;10.15.7;undefined;undefined;1440 x 900;1440 x 900
H019;23;Vrouwelijk;Rechts;4;21;left;no;350;leftarrow;571;true;focus;yes;774588;Chrome;112.0;macOS;10.15.7;undefined;undefined;1440 x 900;1440 x 900
H019;23;Vrouwelijk;Rechts;4;22;right;yes;350;undefined;null;true;focus;yes;776627;Chrome;112.0;macOS;10.15.7;undefined;undefined;1440 x 900;1440 x 900
H019;23;Vrouwelijk;Rechts;4;23;right;no;400;rightarrow;614;true;focus;yes;778023;Chrome;112.0;macOS;10.15.7;undefined;undefined;1440 x 900;1440 x 900
H019;23;Vrouwelijk;Rechts;4;24;right;no;400;rightarrow;830;true;focus;yes;779614;Chrome;112.0;macOS;10.15.7;undefined;undefined;1440 x 900;1440 x 900
H019;23;Vrouwelijk;Rechts;4;25;left;yes;400;leftarrow;603;false;focus;yes;780990;Chrome;112.0;macOS;10.15.7;undefined;undefined;1440 x 900;1440 x 900
H019;23;Vrouwelijk;Rechts;4;26;left;no;350;leftarrow;580;true;focus;yes;782336;Chrome;112.0;macOS;10.15.7;undefined;undefined;1440 x 900;1440 x 900
H019;23;Vrouwelijk;Rechts;4;27;right;no;350;rightarrow;570;true;focus;yes;783679;Chrome;112.0;macOS;10.15.7;undefined;undefined;1440 x 900;1440 x 900
H019;23;Vrouwelijk;Rechts;4;28;left;no;350;leftarrow;617;true;focus;yes;785060;Chrome;112.0;macOS;10.15.7;undefined;undefined;1440 x 900;1440 x 900
H019;23;Vrouwelijk;Rechts;4;29;left;no;350;leftarrow;566;true;focus;yes;786389;Chrome;112.0;macOS;10.15.7;undefined;undefined;1440 x 900;1440 x 900
H019;23;Vrouwelijk;Rechts;4;30;right;yes;350;undefined;null;true;focus;yes;788426;Chrome;112.0;macOS;10.15.7;undefined;undefined;1440 x 900;1440 x 900
H019;23;Vrouwelijk;Rechts;4;31;right;no;400;rightarrow;702;true;focus;yes;789909;Chrome;112.0;macOS;10.15.7;undefined;undefined;1440 x 900;1440 x 900
H019;23;Vrouwelijk;Rechts;4;32;right;no;400;rightarrow;526;true;focus;yes;791201;Chrome;112.0;macOS;10.15.7;undefined;undefined;1440 x 900;1440 x 900
H019;23;Vrouwelijk;Rechts;4;33;right;yes;400;rightarrow;568;false;focus;yes;792548;Chrome;112.0;macOS;10.15.7;undefined;undefined;1440 x 900;1440 x 900
H019;23;Vrouwelijk;Rechts;4;34;right;no;350;rightarrow;573;true;focus;yes;793898;Chrome;112.0;macOS;10.15.7;undefined;undefined;1440 x 900;1440 x 900
H019;23;Vrouwelijk;Rechts;4;35;left;yes;350;undefined;null;true;focus;yes;795938;Chrome;112.0;macOS;10.15.7;undefined;undefined;1440 x 900;1440 x 900
H019;23;Vrouwelijk;Rechts;4;36;right;no;400;rightarrow;766;true;focus;yes;797481;Chrome;112.0;macOS;10.15.7;undefined;undefined;1440 x 900;1440 x 900
H019;23;Vrouwelijk;Rechts;4;37;left;no;400;leftarrow;933;true;focus;yes;799193;Chrome;112.0;macOS;10.15.7;undefined;undefined;1440 x 900;1440 x 900
H019;23;Vrouwelijk;Rechts;4;38;left;no;400;leftarrow;768;true;focus;yes;800742;Chrome;112.0;macOS;10.15.7;undefined;undefined;1440 x 900;1440 x 900
H019;23;Vrouwelijk;Rechts;4;39;left;no;400;leftarrow;592;true;focus;yes;802100;Chrome;112.0;macOS;10.15.7;undefined;undefined;1440 x 900;1440 x 900
H019;23;Vrouwelijk;Rechts;4;40;right;no;400;rightarrow;719;true;focus;yes;803586;Chrome;112.0;macOS;10.15.7;undefined;undefined;1440 x 900;1440 x 900
H019;23;Vrouwelijk;Rechts;4;41;right;yes;400;rightarrow;609;false;focus;yes;804963;Chrome;112.0;macOS;10.15.7;undefined;undefined;1440 x 900;1440 x 900
H019;23;Vrouwelijk;Rechts;4;42;right;no;350;rightarrow;629;true;focus;yes;806370;Chrome;112.0;macOS;10.15.7;undefined;undefined;1440 x 900;1440 x 900
H019;23;Vrouwelijk;Rechts;4;43;left;no;350;leftarrow;627;true;focus;yes;807776;Chrome;112.0;macOS;10.15.7;undefined;undefined;1440 x 900;1440 x 900
H019;23;Vrouwelijk;Rechts;4;44;left;no;350;leftarrow;624;true;focus;yes;809172;Chrome;112.0;macOS;10.15.7;undefined;undefined;1440 x 900;1440 x 900
H019;23;Vrouwelijk;Rechts;4;45;left;yes;350;undefined;null;true;focus;yes;811210;Chrome;112.0;macOS;10.15.7;undefined;undefined;1440 x 900;1440 x 900
H019;23;Vrouwelijk;Rechts;4;46;right;no;400;rightarrow;648;true;focus;yes;812639;Chrome;112.0;macOS;10.15.7;undefined;undefined;1440 x 900;1440 x 900
H019;23;Vrouwelijk;Rechts;4;47;left;no;400;leftarrow;689;true;focus;yes;814092;Chrome;112.0;macOS;10.15.7;undefined;undefined;1440 x 900;1440 x 900
H019;23;Vrouwelijk;Rechts;4;48;right;no;400;rightarrow;680;true;focus;yes;815534;Chrome;112.0;macOS;10.15.7;undefined;undefined;1440 x 900;1440 x 900
H019;23;Vrouwelijk;Rechts;4;49;left;yes;400;leftarrow;584;false;focus;yes;816878;Chrome;112.0;macOS;10.15.7;undefined;undefined;1440 x 900;1440 x 900
H019;23;Vrouwelijk;Rechts;4;50;right;no;350;rightarrow;449;true;focus;yes;818091;Chrome;112.0;macOS;10.15.7;undefined;undefined;1440 x 900;1440 x 900
H019;23;Vrouwelijk;Rechts;4;51;left;no;350;leftarrow;509;true;focus;yes;819375;Chrome;112.0;macOS;10.15.7;undefined;undefined;1440 x 900;1440 x 900
H019;23;Vrouwelijk;Rechts;4;52;right;yes;350;undefined;null;true;focus;yes;821409;Chrome;112.0;macOS;10.15.7;undefined;undefined;1440 x 900;1440 x 900
H019;23;Vrouwelijk;Rechts;4;53;left;no;400;leftarrow;540;true;focus;yes;822726;Chrome;112.0;macOS;10.15.7;undefined;undefined;1440 x 900;1440 x 900
H019;23;Vrouwelijk;Rechts;4;54;right;no;400;rightarrow;432;true;focus;yes;823918;Chrome;112.0;macOS;10.15.7;undefined;undefined;1440 x 900;1440 x 900
H019;23;Vrouwelijk;Rechts;4;55;left;no;400;leftarrow;430;true;focus;yes;825112;Chrome;112.0;macOS;10.15.7;undefined;undefined;1440 x 900;1440 x 900
H019;23;Vrouwelijk;Rechts;4;56;right;no;400;rightarrow;352;true;focus;yes;826235;Chrome;112.0;macOS;10.15.7;undefined;undefined;1440 x 900;1440 x 900
H019;23;Vrouwelijk;Rechts;4;57;right;no;400;rightarrow;577;true;focus;yes;827588;Chrome;112.0;macOS;10.15.7;undefined;undefined;1440 x 900;1440 x 900
H019;23;Vrouwelijk;Rechts;4;58;right;yes;400;rightarrow;541;false;focus;yes;828904;Chrome;112.0;macOS;10.15.7;undefined;undefined;1440 x 900;1440 x 900
H019;23;Vrouwelijk;Rechts;4;59;left;no;350;leftarrow;446;true;focus;yes;830120;Chrome;112.0;macOS;10.15.7;undefined;undefined;1440 x 900;1440 x 900
H019;23;Vrouwelijk;Rechts;4;60;right;no;350;rightarrow;533;true;focus;yes;831434;Chrome;112.0;macOS;10.15.7;undefined;undefined;1440 x 900;1440 x 900
H019;23;Vrouwelijk;Rechts;4;61;left;no;350;leftarrow;593;true;focus;yes;832804;Chrome;112.0;macOS;10.15.7;undefined;undefined;1440 x 900;1440 x 900
H019;23;Vrouwelijk;Rechts;4;62;left;yes;350;undefined;null;true;focus;yes;834825;Chrome;112.0;macOS;10.15.7;undefined;undefined;1440 x 900;1440 x 900
H019;23;Vrouwelijk;Rechts;4;63;left;no;400;leftarrow;558;true;focus;yes;836159;Chrome;112.0;macOS;10.15.7;undefined;undefined;1440 x 900;1440 x 900
H019;23;Vrouwelijk;Rechts;4;64;right;no;400;rightarrow;524;true;focus;yes;837462;Chrome;112.0;macOS;10.15.7;undefined;undefined;1440 x 900;1440 x 900
H019;23;Vrouwelijk;Rechts;4;65;right;no;400;rightarrow;530;true;focus;yes;838775;Chrome;112.0;macOS;10.15.7;undefined;undefined;1440 x 900;1440 x 900
H019;23;Vrouwelijk;Rechts;4;66;right;no;400;rightarrow;629;true;focus;yes;840182;Chrome;112.0;macOS;10.15.7;undefined;undefined;1440 x 900;1440 x 900
H019;23;Vrouwelijk;Rechts;4;67;left;no;400;leftarrow;667;true;focus;yes;841622;Chrome;112.0;macOS;10.15.7;undefined;undefined;1440 x 900;1440 x 900
H019;23;Vrouwelijk;Rechts;4;68;right;yes;400;rightarrow;481;false;focus;yes;842886;Chrome;112.0;macOS;10.15.7;undefined;undefined;1440 x 900;1440 x 900
H019;23;Vrouwelijk;Rechts;4;69;left;yes;350;leftarrow;570;false;focus;yes;844227;Chrome;112.0;macOS;10.15.7;undefined;undefined;1440 x 900;1440 x 900
H019;23;Vrouwelijk;Rechts;4;70;left;no;300;leftarrow;481;true;focus;yes;845475;Chrome;112.0;macOS;10.15.7;undefined;undefined;1440 x 900;1440 x 900
H019;23;Vrouwelijk;Rechts;4;71;right;no;300;rightarrow;415;true;focus;yes;846652;Chrome;112.0;macOS;10.15.7;undefined;undefined;1440 x 900;1440 x 900
H019;23;Vrouwelijk;Rechts;4;72;left;no;300;leftarrow;411;true;focus;yes;847837;Chrome;112.0;macOS;10.15.7;undefined;undefined;1440 x 900;1440 x 900
H019;23;Vrouwelijk;Rechts;4;73;right;no;300;rightarrow;386;true;focus;yes;848987;Chrome;112.0;macOS;10.15.7;undefined;undefined;1440 x 900;1440 x 900
H019;23;Vrouwelijk;Rechts;4;74;right;no;300;rightarrow;458;true;focus;yes;850222;Chrome;112.0;macOS;10.15.7;undefined;undefined;1440 x 900;1440 x 900
H019;23;Vrouwelijk;Rechts;4;75;left;no;300;leftarrow;429;true;focus;yes;851422;Chrome;112.0;macOS;10.15.7;undefined;undefined;1440 x 900;1440 x 900
H019;23;Vrouwelijk;Rechts;4;76;left;no;300;leftarrow;495;true;focus;yes;852699;Chrome;112.0;macOS;10.15.7;undefined;undefined;1440 x 900;1440 x 900
H019;23;Vrouwelijk;Rechts;4;77;left;no;300;leftarrow;473;true;focus;yes;853947;Chrome;112.0;macOS;10.15.7;undefined;undefined;1440 x 900;1440 x 900
H019;23;Vrouwelijk;Rechts;4;78;right;no;300;rightarrow;559;true;focus;yes;855282;Chrome;112.0;macOS;10.15.7;undefined;undefined;1440 x 900;1440 x 900
H019;23;Vrouwelijk;Rechts;4;79;right;yes;300;rightarrow;479;false;focus;yes;856529;Chrome;112.0;macOS;10.15.7;undefined;undefined;1440 x 900;1440 x 900
H019;23;Vrouwelijk;Rechts;4;80;left;yes;250;undefined;null;true;focus;yes;858552;Chrome;112.0;macOS;10.15.7;undefined;undefined;1440 x 900;1440 x 900
H019;23;Vrouwelijk;Rechts;4;81;left;yes;300;leftarrow;481;false;focus;yes;859814;Chrome;112.0;macOS;10.15.7;undefined;undefined;1440 x 900;1440 x 900
H019;23;Vrouwelijk;Rechts;4;82;right;no;250;rightarrow;521;true;focus;yes;861107;Chrome;112.0;macOS;10.15.7;undefined;undefined;1440 x 900;1440 x 900
H019;23;Vrouwelijk;Rechts;4;83;right;yes;250;undefined;null;true;focus;yes;863133;Chrome;112.0;macOS;10.15.7;undefined;undefined;1440 x 900;1440 x 900
H019;23;Vrouwelijk;Rechts;4;84;right;no;300;rightarrow;456;true;focus;yes;864372;Chrome;112.0;macOS;10.15.7;undefined;undefined;1440 x 900;1440 x 900
H019;23;Vrouwelijk;Rechts;4;85;left;no;300;leftarrow;597;true;focus;yes;865744;Chrome;112.0;macOS;10.15.7;undefined;undefined;1440 x 900;1440 x 900
H019;23;Vrouwelijk;Rechts;4;86;right;no;300;rightarrow;586;true;focus;yes;867108;Chrome;112.0;macOS;10.15.7;undefined;undefined;1440 x 900;1440 x 900
H019;23;Vrouwelijk;Rechts;4;87;left;no;300;leftarrow;843;true;focus;yes;868711;Chrome;112.0;macOS;10.15.7;undefined;undefined;1440 x 900;1440 x 900
H019;23;Vrouwelijk;Rechts;4;88;left;no;300;leftarrow;670;true;focus;yes;870161;Chrome;112.0;macOS;10.15.7;undefined;undefined;1440 x 900;1440 x 900
H019;23;Vrouwelijk;Rechts;4;89;right;no;300;rightarrow;540;true;focus;yes;871469;Chrome;112.0;macOS;10.15.7;undefined;undefined;1440 x 900;1440 x 900
H019;23;Vrouwelijk;Rechts;4;90;left;yes;300;undefined;null;true;focus;yes;873487;Chrome;112.0;macOS;10.15.7;undefined;undefined;1440 x 900;1440 x 900
H019;23;Vrouwelijk;Rechts;4;91;left;no;350;leftarrow;570;true;focus;yes;874829;Chrome;112.0;macOS;10.15.7;undefined;undefined;1440 x 900;1440 x 900
H019;23;Vrouwelijk;Rechts;4;92;left;no;350;leftarrow;521;true;focus;yes;876114;Chrome;112.0;macOS;10.15.7;undefined;undefined;1440 x 900;1440 x 900
H019;23;Vrouwelijk;Rechts;4;93;right;no;350;rightarrow;589;true;focus;yes;877476;Chrome;112.0;macOS;10.15.7;undefined;undefined;1440 x 900;1440 x 900
H019;23;Vrouwelijk;Rechts;4;94;right;yes;350;undefined;null;true;focus;yes;879519;Chrome;112.0;macOS;10.15.7;undefined;undefined;1440 x 900;1440 x 900
H019;23;Vrouwelijk;Rechts;4;95;right;no;400;rightarrow;514;true;focus;yes;880815;Chrome;112.0;macOS;10.15.7;undefined;undefined;1440 x 900;1440 x 900
H019;23;Vrouwelijk;Rechts;4;96;left;no;400;leftarrow;528;true;focus;yes;882111;Chrome;112.0;macOS;10.15.7;undefined;undefined;1440 x 900;1440 x 900
H019;23;Vrouwelijk;Rechts;4;97;right;no;400;rightarrow;669;true;focus;yes;883558;Chrome;112.0;macOS;10.15.7;undefined;undefined;1440 x 900;1440 x 900
H019;23;Vrouwelijk;Rechts;4;98;left;yes;400;leftarrow;591;false;focus;yes;884920;Chrome;112.0;macOS;10.15.7;undefined;undefined;1440 x 900;1440 x 900
H019;23;Vrouwelijk;Rechts;4;99;left;no;350;leftarrow;545;true;focus;yes;886242;Chrome;112.0;macOS;10.15.7;undefined;undefined;1440 x 900;1440 x 900
H019;23;Vrouwelijk;Rechts;4;100;right;no;350;rightarrow;601;true;focus;yes;887608;Chrome;112.0;macOS;10.15.7;undefined;undefined;1440 x 900;1440 x 900
H019;23;Vrouwelijk;Rechts;4;101;left;no;350;leftarrow;593;true;focus;yes;888970;Chrome;112.0;macOS;10.15.7;undefined;undefined;1440 x 900;1440 x 900
H019;23;Vrouwelijk;Rechts;4;102;left;no;350;leftarrow;655;true;focus;yes;890386;Chrome;112.0;macOS;10.15.7;undefined;undefined;1440 x 900;1440 x 900
H019;23;Vrouwelijk;Rechts;4;103;right;yes;350;undefined;null;true;focus;yes;892420;Chrome;112.0;macOS;10.15.7;undefined;undefined;1440 x 900;1440 x 900
H019;23;Vrouwelijk;Rechts;4;104;right;no;400;rightarrow;516;true;focus;yes;893719;Chrome;112.0;macOS;10.15.7;undefined;undefined;1440 x 900;1440 x 900
H019;23;Vrouwelijk;Rechts;4;105;left;no;400;leftarrow;642;true;focus;yes;895136;Chrome;112.0;macOS;10.15.7;undefined;undefined;1440 x 900;1440 x 900
H019;23;Vrouwelijk;Rechts;4;106;right;yes;400;rightarrow;609;false;focus;yes;896520;Chrome;112.0;macOS;10.15.7;undefined;undefined;1440 x 900;1440 x 900
H019;23;Vrouwelijk;Rechts;4;107;left;no;350;leftarrow;545;true;focus;yes;897831;Chrome;112.0;macOS;10.15.7;undefined;undefined;1440 x 900;1440 x 900
H019;23;Vrouwelijk;Rechts;4;108;right;no;350;rightarrow;694;true;focus;yes;899300;Chrome;112.0;macOS;10.15.7;undefined;undefined;1440 x 900;1440 x 900
H019;23;Vrouwelijk;Rechts;4;109;right;no;350;rightarrow;762;true;focus;yes;900842;Chrome;112.0;macOS;10.15.7;undefined;undefined;1440 x 900;1440 x 900
H019;23;Vrouwelijk;Rechts;4;110;left;yes;350;leftarrow;525;false;focus;yes;902131;Chrome;112.0;macOS;10.15.7;undefined;undefined;1440 x 900;1440 x 900
H019;23;Vrouwelijk;Rechts;4;111;right;no;300;rightarrow;609;true;focus;yes;903514;Chrome;112.0;macOS;10.15.7;undefined;undefined;1440 x 900;1440 x 900
H019;23;Vrouwelijk;Rechts;4;112;left;no;300;leftarrow;473;true;focus;yes;904761;Chrome;112.0;macOS;10.15.7;undefined;undefined;1440 x 900;1440 x 900
H019;23;Vrouwelijk;Rechts;4;113;right;yes;300;rightarrow;372;false;focus;yes;905899;Chrome;112.0;macOS;10.15.7;undefined;undefined;1440 x 900;1440 x 900
H019;23;Vrouwelijk;Rechts;4;114;left;no;250;leftarrow;396;true;focus;yes;907059;Chrome;112.0;macOS;10.15.7;undefined;undefined;1440 x 900;1440 x 900
H019;23;Vrouwelijk;Rechts;4;115;right;no;250;rightarrow;538;true;focus;yes;908371;Chrome;112.0;macOS;10.15.7;undefined;undefined;1440 x 900;1440 x 900
H019;23;Vrouwelijk;Rechts;4;116;left;no;250;leftarrow;558;true;focus;yes;909692;Chrome;112.0;macOS;10.15.7;undefined;undefined;1440 x 900;1440 x 900
H019;23;Vrouwelijk;Rechts;4;117;right;no;250;rightarrow;441;true;focus;yes;910911;Chrome;112.0;macOS;10.15.7;undefined;undefined;1440 x 900;1440 x 900
H019;23;Vrouwelijk;Rechts;4;118;left;yes;250;leftarrow;456;false;focus;yes;912144;Chrome;112.0;macOS;10.15.7;undefined;undefined;1440 x 900;1440 x 900
H019;23;Vrouwelijk;Rechts;4;119;right;no;200;rightarrow;546;true;focus;yes;913456;Chrome;112.0;macOS;10.15.7;undefined;undefined;1440 x 900;1440 x 900
H019;23;Vrouwelijk;Rechts;4;120;left;no;200;leftarrow;627;true;focus;yes;914859;Chrome;112.0;macOS;10.15.7;undefined;undefined;1440 x 900;1440 x 900
H019;23;Vrouwelijk;Rechts;4;121;left;no;200;leftarrow;471;true;focus;yes;916113;Chrome;112.0;macOS;10.15.7;undefined;undefined;1440 x 900;1440 x 900
H019;23;Vrouwelijk;Rechts;4;122;right;yes;200;undefined;null;true;focus;yes;918149;Chrome;112.0;macOS;10.15.7;undefined;undefined;1440 x 900;1440 x 900
H019;23;Vrouwelijk;Rechts;4;123;left;yes;250;undefined;null;true;focus;yes;920181;Chrome;112.0;macOS;10.15.7;undefined;undefined;1440 x 900;1440 x 900
H019;23;Vrouwelijk;Rechts;4;124;right;no;300;rightarrow;454;true;focus;yes;921416;Chrome;112.0;macOS;10.15.7;undefined;undefined;1440 x 900;1440 x 900
H019;23;Vrouwelijk;Rechts;4;125;right;no;300;rightarrow;494;true;focus;yes;922686;Chrome;112.0;macOS;10.15.7;undefined;undefined;1440 x 900;1440 x 900
H019;23;Vrouwelijk;Rechts;4;126;left;no;300;leftarrow;590;true;focus;yes;924052;Chrome;112.0;macOS;10.15.7;undefined;undefined;1440 x 900;1440 x 900
H019;23;Vrouwelijk;Rechts;4;127;left;no;300;leftarrow;537;true;focus;yes;925370;Chrome;112.0;macOS;10.15.7;undefined;undefined;1440 x 900;1440 x 900
H019;23;Vrouwelijk;Rechts;4;128;right;no;300;rightarrow;657;true;focus;yes;926800;Chrome;112.0;macOS;10.15.7;undefined;undefined;1440 x 900;1440 x 900
H019;23;Vrouwelijk;Rechts;5;1;right;no;300;rightarrow;567;true;focus;yes;948449;Chrome;112.0;macOS;10.15.7;undefined;undefined;1440 x 900;1440 x 900
H019;23;Vrouwelijk;Rechts;5;2;left;no;300;leftarrow;375;true;focus;yes;949608;Chrome;112.0;macOS;10.15.7;undefined;undefined;1440 x 900;1440 x 900
H019;23;Vrouwelijk;Rechts;5;3;left;no;300;leftarrow;478;true;focus;yes;950861;Chrome;112.0;macOS;10.15.7;undefined;undefined;1440 x 900;1440 x 900
H019;23;Vrouwelijk;Rechts;5;4;right;no;300;rightarrow;376;true;focus;yes;952015;Chrome;112.0;macOS;10.15.7;undefined;undefined;1440 x 900;1440 x 900
H019;23;Vrouwelijk;Rechts;5;5;right;no;300;rightarrow;429;true;focus;yes;953209;Chrome;112.0;macOS;10.15.7;undefined;undefined;1440 x 900;1440 x 900
H019;23;Vrouwelijk;Rechts;5;6;left;no;300;leftarrow;394;true;focus;yes;954376;Chrome;112.0;macOS;10.15.7;undefined;undefined;1440 x 900;1440 x 900
H019;23;Vrouwelijk;Rechts;5;7;right;yes;300;rightarrow;368;false;focus;yes;955519;Chrome;112.0;macOS;10.15.7;undefined;undefined;1440 x 900;1440 x 900
H019;23;Vrouwelijk;Rechts;5;8;left;yes;250;leftarrow;437;false;focus;yes;956729;Chrome;112.0;macOS;10.15.7;undefined;undefined;1440 x 900;1440 x 900
H019;23;Vrouwelijk;Rechts;5;9;right;yes;200;undefined;null;true;focus;yes;958755;Chrome;112.0;macOS;10.15.7;undefined;undefined;1440 x 900;1440 x 900
H019;23;Vrouwelijk;Rechts;5;10;left;no;250;leftarrow;576;true;focus;yes;960112;Chrome;112.0;macOS;10.15.7;undefined;undefined;1440 x 900;1440 x 900
H019;23;Vrouwelijk;Rechts;5;11;right;no;250;rightarrow;566;true;focus;yes;961450;Chrome;112.0;macOS;10.15.7;undefined;undefined;1440 x 900;1440 x 900
H019;23;Vrouwelijk;Rechts;5;12;right;no;250;rightarrow;574;true;focus;yes;962806;Chrome;112.0;macOS;10.15.7;undefined;undefined;1440 x 900;1440 x 900
H019;23;Vrouwelijk;Rechts;5;13;left;no;250;leftarrow;538;true;focus;yes;964110;Chrome;112.0;macOS;10.15.7;undefined;undefined;1440 x 900;1440 x 900
H019;23;Vrouwelijk;Rechts;5;14;left;yes;250;undefined;null;true;focus;yes;966143;Chrome;112.0;macOS;10.15.7;undefined;undefined;1440 x 900;1440 x 900
H019;23;Vrouwelijk;Rechts;5;15;right;no;300;rightarrow;545;true;focus;yes;967466;Chrome;112.0;macOS;10.15.7;undefined;undefined;1440 x 900;1440 x 900
H019;23;Vrouwelijk;Rechts;5;16;left;no;300;leftarrow;509;true;focus;yes;968756;Chrome;112.0;macOS;10.15.7;undefined;undefined;1440 x 900;1440 x 900
H019;23;Vrouwelijk;Rechts;5;17;left;no;300;leftarrow;542;true;focus;yes;970074;Chrome;112.0;macOS;10.15.7;undefined;undefined;1440 x 900;1440 x 900
H019;23;Vrouwelijk;Rechts;5;18;right;no;300;rightarrow;686;true;focus;yes;971540;Chrome;112.0;macOS;10.15.7;undefined;undefined;1440 x 900;1440 x 900
H019;23;Vrouwelijk;Rechts;5;19;left;no;300;leftarrow;560;true;focus;yes;972865;Chrome;112.0;macOS;10.15.7;undefined;undefined;1440 x 900;1440 x 900
H019;23;Vrouwelijk;Rechts;5;20;right;yes;300;undefined;null;true;focus;yes;974895;Chrome;112.0;macOS;10.15.7;undefined;undefined;1440 x 900;1440 x 900
H019;23;Vrouwelijk;Rechts;5;21;left;yes;350;undefined;null;true;focus;yes;976931;Chrome;112.0;macOS;10.15.7;undefined;undefined;1440 x 900;1440 x 900
H019;23;Vrouwelijk;Rechts;5;22;right;no;400;rightarrow;625;true;focus;yes;978337;Chrome;112.0;macOS;10.15.7;undefined;undefined;1440 x 900;1440 x 900
H019;23;Vrouwelijk;Rechts;5;23;right;no;400;rightarrow;644;true;focus;yes;979753;Chrome;112.0;macOS;10.15.7;undefined;undefined;1440 x 900;1440 x 900
H019;23;Vrouwelijk;Rechts;5;24;left;no;400;leftarrow;599;true;focus;yes;981131;Chrome;112.0;macOS;10.15.7;undefined;undefined;1440 x 900;1440 x 900
H019;23;Vrouwelijk;Rechts;5;25;right;no;400;rightarrow;626;true;focus;yes;982534;Chrome;112.0;macOS;10.15.7;undefined;undefined;1440 x 900;1440 x 900
H019;23;Vrouwelijk;Rechts;5;26;right;yes;400;undefined;null;true;focus;yes;984554;Chrome;112.0;macOS;10.15.7;undefined;undefined;1440 x 900;1440 x 900
H019;23;Vrouwelijk;Rechts;5;27;left;no;450;leftarrow;634;true;focus;yes;985963;Chrome;112.0;macOS;10.15.7;undefined;undefined;1440 x 900;1440 x 900
H019;23;Vrouwelijk;Rechts;5;28;right;no;450;rightarrow;696;true;focus;yes;987437;Chrome;112.0;macOS;10.15.7;undefined;undefined;1440 x 900;1440 x 900
H019;23;Vrouwelijk;Rechts;5;29;left;no;450;leftarrow;697;true;focus;yes;988897;Chrome;112.0;macOS;10.15.7;undefined;undefined;1440 x 900;1440 x 900
H019;23;Vrouwelijk;Rechts;5;30;right;no;450;rightarrow;625;true;focus;yes;990294;Chrome;112.0;macOS;10.15.7;undefined;undefined;1440 x 900;1440 x 900
H019;23;Vrouwelijk;Rechts;5;31;left;no;450;leftarrow;648;true;focus;yes;991707;Chrome;112.0;macOS;10.15.7;undefined;undefined;1440 x 900;1440 x 900
H019;23;Vrouwelijk;Rechts;5;32;left;yes;450;undefined;null;true;focus;yes;993738;Chrome;112.0;macOS;10.15.7;undefined;undefined;1440 x 900;1440 x 900
H019;23;Vrouwelijk;Rechts;5;33;left;no;500;leftarrow;615;true;focus;yes;995134;Chrome;112.0;macOS;10.15.7;undefined;undefined;1440 x 900;1440 x 900
H019;23;Vrouwelijk;Rechts;5;34;right;yes;500;rightarrow;577;false;focus;yes;996477;Chrome;112.0;macOS;10.15.7;undefined;undefined;1440 x 900;1440 x 900
H019;23;Vrouwelijk;Rechts;5;35;right;no;450;rightarrow;605;true;focus;yes;997848;Chrome;112.0;macOS;10.15.7;undefined;undefined;1440 x 900;1440 x 900
H019;23;Vrouwelijk;Rechts;5;36;left;yes;450;leftarrow;697;false;focus;yes;999319;Chrome;112.0;macOS;10.15.7;undefined;undefined;1440 x 900;1440 x 900
H019;23;Vrouwelijk;Rechts;5;37;right;no;400;rightarrow;1052;true;focus;yes;1001151;Chrome;112.0;macOS;10.15.7;undefined;undefined;1440 x 900;1440 x 900
H019;23;Vrouwelijk;Rechts;5;38;left;no;400;leftarrow;888;true;focus;yes;1002803;Chrome;112.0;macOS;10.15.7;undefined;undefined;1440 x 900;1440 x 900
H019;23;Vrouwelijk;Rechts;5;39;left;no;400;leftarrow;718;true;focus;yes;1004288;Chrome;112.0;macOS;10.15.7;undefined;undefined;1440 x 900;1440 x 900
H019;23;Vrouwelijk;Rechts;5;40;right;no;400;rightarrow;765;true;focus;yes;1005835;Chrome;112.0;macOS;10.15.7;undefined;undefined;1440 x 900;1440 x 900
H019;23;Vrouwelijk;Rechts;5;41;right;yes;400;undefined;null;true;focus;yes;1007854;Chrome;112.0;macOS;10.15.7;undefined;undefined;1440 x 900;1440 x 900
H019;23;Vrouwelijk;Rechts;5;42;left;no;450;leftarrow;683;true;focus;yes;1009302;Chrome;112.0;macOS;10.15.7;undefined;undefined;1440 x 900;1440 x 900
H019;23;Vrouwelijk;Rechts;5;43;left;yes;450;undefined;null;true;focus;yes;1011321;Chrome;112.0;macOS;10.15.7;undefined;undefined;1440 x 900;1440 x 900
H019;23;Vrouwelijk;Rechts;5;44;right;no;500;rightarrow;681;true;focus;yes;1012780;Chrome;112.0;macOS;10.15.7;undefined;undefined;1440 x 900;1440 x 900
H019;23;Vrouwelijk;Rechts;5;45;left;no;500;leftarrow;658;true;focus;yes;1014214;Chrome;112.0;macOS;10.15.7;undefined;undefined;1440 x 900;1440 x 900
H019;23;Vrouwelijk;Rechts;5;46;right;no;500;rightarrow;792;true;focus;yes;1015781;Chrome;112.0;macOS;10.15.7;undefined;undefined;1440 x 900;1440 x 900
H019;23;Vrouwelijk;Rechts;5;47;right;no;500;rightarrow;820;true;focus;yes;1017376;Chrome;112.0;macOS;10.15.7;undefined;undefined;1440 x 900;1440 x 900
H019;23;Vrouwelijk;Rechts;5;48;left;no;500;leftarrow;979;true;focus;yes;1019136;Chrome;112.0;macOS;10.15.7;undefined;undefined;1440 x 900;1440 x 900
H019;23;Vrouwelijk;Rechts;5;49;right;no;500;rightarrow;819;true;focus;yes;1020737;Chrome;112.0;macOS;10.15.7;undefined;undefined;1440 x 900;1440 x 900
H019;23;Vrouwelijk;Rechts;5;50;left;no;500;leftarrow;859;true;focus;yes;1022373;Chrome;112.0;macOS;10.15.7;undefined;undefined;1440 x 900;1440 x 900
H019;23;Vrouwelijk;Rechts;5;51;left;no;500;leftarrow;900;true;focus;yes;1024038;Chrome;112.0;macOS;10.15.7;undefined;undefined;1440 x 900;1440 x 900
H019;23;Vrouwelijk;Rechts;5;52;right;yes;500;undefined;null;true;focus;yes;1026054;Chrome;112.0;macOS;10.15.7;undefined;undefined;1440 x 900;1440 x 900
H019;23;Vrouwelijk;Rechts;5;53;right;no;550;rightarrow;743;true;focus;yes;1027580;Chrome;112.0;macOS;10.15.7;undefined;undefined;1440 x 900;1440 x 900
H019;23;Vrouwelijk;Rechts;5;54;right;no;550;rightarrow;755;true;focus;yes;1029108;Chrome;112.0;macOS;10.15.7;undefined;undefined;1440 x 900;1440 x 900
H019;23;Vrouwelijk;Rechts;5;55;left;no;550;leftarrow;789;true;focus;yes;1030673;Chrome;112.0;macOS;10.15.7;undefined;undefined;1440 x 900;1440 x 900
H019;23;Vrouwelijk;Rechts;5;56;left;yes;550;undefined;null;true;focus;yes;1032700;Chrome;112.0;macOS;10.15.7;undefined;undefined;1440 x 900;1440 x 900
H019;23;Vrouwelijk;Rechts;5;57;left;no;600;leftarrow;631;true;focus;yes;1034106;Chrome;112.0;macOS;10.15.7;undefined;undefined;1440 x 900;1440 x 900
H019;23;Vrouwelijk;Rechts;5;58;right;no;600;rightarrow;661;true;focus;yes;1035534;Chrome;112.0;macOS;10.15.7;undefined;undefined;1440 x 900;1440 x 900
H019;23;Vrouwelijk;Rechts;5;59;left;yes;600;leftarrow;714;false;focus;yes;1037031;Chrome;112.0;macOS;10.15.7;undefined;undefined;1440 x 900;1440 x 900
H019;23;Vrouwelijk;Rechts;5;60;left;no;550;leftarrow;871;true;focus;yes;1038684;Chrome;112.0;macOS;10.15.7;undefined;undefined;1440 x 900;1440 x 900
H019;23;Vrouwelijk;Rechts;5;61;right;no;550;rightarrow;779;true;focus;yes;1040229;Chrome;112.0;macOS;10.15.7;undefined;undefined;1440 x 900;1440 x 900
H019;23;Vrouwelijk;Rechts;5;62;right;no;550;rightarrow;801;true;focus;yes;1041795;Chrome;112.0;macOS;10.15.7;undefined;undefined;1440 x 900;1440 x 900
H019;23;Vrouwelijk;Rechts;5;63;left;no;550;leftarrow;710;true;focus;yes;1043267;Chrome;112.0;macOS;10.15.7;undefined;undefined;1440 x 900;1440 x 900
H019;23;Vrouwelijk;Rechts;5;64;right;yes;550;rightarrow;739;false;focus;yes;1044774;Chrome;112.0;macOS;10.15.7;undefined;undefined;1440 x 900;1440 x 900
H019;23;Vrouwelijk;Rechts;5;65;left;no;500;leftarrow;630;true;focus;yes;1046187;Chrome;112.0;macOS;10.15.7;undefined;undefined;1440 x 900;1440 x 900
H019;23;Vrouwelijk;Rechts;5;66;right;no;500;rightarrow;513;true;focus;yes;1047467;Chrome;112.0;macOS;10.15.7;undefined;undefined;1440 x 900;1440 x 900
H019;23;Vrouwelijk;Rechts;5;67;right;no;500;rightarrow;769;true;focus;yes;1049011;Chrome;112.0;macOS;10.15.7;undefined;undefined;1440 x 900;1440 x 900
H019;23;Vrouwelijk;Rechts;5;68;right;yes;500;undefined;null;true;focus;yes;1051046;Chrome;112.0;macOS;10.15.7;undefined;undefined;1440 x 900;1440 x 900
H019;23;Vrouwelijk;Rechts;5;69;left;no;550;leftarrow;623;true;focus;yes;1052452;Chrome;112.0;macOS;10.15.7;undefined;undefined;1440 x 900;1440 x 900
H019;23;Vrouwelijk;Rechts;5;70;left;yes;550;leftarrow;638;false;focus;yes;1053866;Chrome;112.0;macOS;10.15.7;undefined;undefined;1440 x 900;1440 x 900
H019;23;Vrouwelijk;Rechts;5;71;right;no;500;rightarrow;761;true;focus;yes;1055394;Chrome;112.0;macOS;10.15.7;undefined;undefined;1440 x 900;1440 x 900
H019;23;Vrouwelijk;Rechts;5;72;left;no;500;leftarrow;731;true;focus;yes;1056902;Chrome;112.0;macOS;10.15.7;undefined;undefined;1440 x 900;1440 x 900
H019;23;Vrouwelijk;Rechts;5;73;right;no;500;rightarrow;848;true;focus;yes;1058533;Chrome;112.0;macOS;10.15.7;undefined;undefined;1440 x 900;1440 x 900
H019;23;Vrouwelijk;Rechts;5;74;right;no;500;rightarrow;753;true;focus;yes;1060070;Chrome;112.0;macOS;10.15.7;undefined;undefined;1440 x 900;1440 x 900
H019;23;Vrouwelijk;Rechts;5;75;right;yes;500;undefined;null;true;focus;yes;1062111;Chrome;112.0;macOS;10.15.7;undefined;undefined;1440 x 900;1440 x 900
H019;23;Vrouwelijk;Rechts;5;76;left;no;550;leftarrow;665;true;focus;yes;1063549;Chrome;112.0;macOS;10.15.7;undefined;undefined;1440 x 900;1440 x 900
H019;23;Vrouwelijk;Rechts;5;77;left;yes;550;leftarrow;727;false;focus;yes;1065049;Chrome;112.0;macOS;10.15.7;undefined;undefined;1440 x 900;1440 x 900
H019;23;Vrouwelijk;Rechts;5;78;right;no;500;rightarrow;697;true;focus;yes;1066514;Chrome;112.0;macOS;10.15.7;undefined;undefined;1440 x 900;1440 x 900
H019;23;Vrouwelijk;Rechts;5;79;left;no;500;leftarrow;771;true;focus;yes;1068052;Chrome;112.0;macOS;10.15.7;undefined;undefined;1440 x 900;1440 x 900
H019;23;Vrouwelijk;Rechts;5;80;left;no;500;leftarrow;795;true;focus;yes;1069619;Chrome;112.0;macOS;10.15.7;undefined;undefined;1440 x 900;1440 x 900
H019;23;Vrouwelijk;Rechts;5;81;right;yes;500;undefined;null;true;focus;yes;1071655;Chrome;112.0;macOS;10.15.7;undefined;undefined;1440 x 900;1440 x 900
H019;23;Vrouwelijk;Rechts;5;82;right;no;550;rightarrow;723;true;focus;yes;1073158;Chrome;112.0;macOS;10.15.7;undefined;undefined;1440 x 900;1440 x 900
H019;23;Vrouwelijk;Rechts;5;83;right;no;550;rightarrow;853;true;focus;yes;1074783;Chrome;112.0;macOS;10.15.7;undefined;undefined;1440 x 900;1440 x 900
H019;23;Vrouwelijk;Rechts;5;84;right;no;550;rightarrow;785;true;focus;yes;1076347;Chrome;112.0;macOS;10.15.7;undefined;undefined;1440 x 900;1440 x 900
H019;23;Vrouwelijk;Rechts;5;85;left;no;550;leftarrow;836;true;focus;yes;1077958;Chrome;112.0;macOS;10.15.7;undefined;undefined;1440 x 900;1440 x 900
H019;23;Vrouwelijk;Rechts;5;86;left;no;550;leftarrow;666;true;focus;yes;1079403;Chrome;112.0;macOS;10.15.7;undefined;undefined;1440 x 900;1440 x 900
H019;23;Vrouwelijk;Rechts;5;87;left;no;550;leftarrow;594;true;focus;yes;1080773;Chrome;112.0;macOS;10.15.7;undefined;undefined;1440 x 900;1440 x 900
H019;23;Vrouwelijk;Rechts;5;88;left;yes;550;leftarrow;579;false;focus;yes;1082135;Chrome;112.0;macOS;10.15.7;undefined;undefined;1440 x 900;1440 x 900
H019;23;Vrouwelijk;Rechts;5;89;left;no;500;leftarrow;688;true;focus;yes;1083601;Chrome;112.0;macOS;10.15.7;undefined;undefined;1440 x 900;1440 x 900
H019;23;Vrouwelijk;Rechts;5;90;right;no;500;rightarrow;524;true;focus;yes;1084888;Chrome;112.0;macOS;10.15.7;undefined;undefined;1440 x 900;1440 x 900
H019;23;Vrouwelijk;Rechts;5;91;left;no;500;leftarrow;493;true;focus;yes;1086148;Chrome;112.0;macOS;10.15.7;undefined;undefined;1440 x 900;1440 x 900
H019;23;Vrouwelijk;Rechts;5;92;right;yes;500;rightarrow;418;false;focus;yes;1087350;Chrome;112.0;macOS;10.15.7;undefined;undefined;1440 x 900;1440 x 900
H019;23;Vrouwelijk;Rechts;5;93;left;no;450;leftarrow;406;true;focus;yes;1088522;Chrome;112.0;macOS;10.15.7;undefined;undefined;1440 x 900;1440 x 900
H019;23;Vrouwelijk;Rechts;5;94;left;yes;450;leftarrow;514;false;focus;yes;1089812;Chrome;112.0;macOS;10.15.7;undefined;undefined;1440 x 900;1440 x 900
H019;23;Vrouwelijk;Rechts;5;95;right;no;400;rightarrow;522;true;focus;yes;1091108;Chrome;112.0;macOS;10.15.7;undefined;undefined;1440 x 900;1440 x 900
H019;23;Vrouwelijk;Rechts;5;96;right;no;400;rightarrow;532;true;focus;yes;1092424;Chrome;112.0;macOS;10.15.7;undefined;undefined;1440 x 900;1440 x 900
H019;23;Vrouwelijk;Rechts;5;97;left;yes;400;undefined;null;true;focus;yes;1094454;Chrome;112.0;macOS;10.15.7;undefined;undefined;1440 x 900;1440 x 900
H019;23;Vrouwelijk;Rechts;5;98;right;yes;450;rightarrow;672;false;focus;yes;1095899;Chrome;112.0;macOS;10.15.7;undefined;undefined;1440 x 900;1440 x 900
H019;23;Vrouwelijk;Rechts;5;99;left;no;400;leftarrow;774;true;focus;yes;1097445;Chrome;112.0;macOS;10.15.7;undefined;undefined;1440 x 900;1440 x 900
H019;23;Vrouwelijk;Rechts;5;100;right;no;400;rightarrow;676;true;focus;yes;1098901;Chrome;112.0;macOS;10.15.7;undefined;undefined;1440 x 900;1440 x 900
H019;23;Vrouwelijk;Rechts;5;101;left;no;400;leftarrow;609;true;focus;yes;1100290;Chrome;112.0;macOS;10.15.7;undefined;undefined;1440 x 900;1440 x 900
H019;23;Vrouwelijk;Rechts;5;102;right;no;400;rightarrow;670;true;focus;yes;1101733;Chrome;112.0;macOS;10.15.7;undefined;undefined;1440 x 900;1440 x 900
H019;23;Vrouwelijk;Rechts;5;103;right;no;400;rightarrow;727;true;focus;yes;1103230;Chrome;112.0;macOS;10.15.7;undefined;undefined;1440 x 900;1440 x 900
H019;23;Vrouwelijk;Rechts;5;104;left;no;400;leftarrow;645;true;focus;yes;1104644;Chrome;112.0;macOS;10.15.7;undefined;undefined;1440 x 900;1440 x 900
H019;23;Vrouwelijk;Rechts;5;105;left;yes;400;leftarrow;627;false;focus;yes;1106052;Chrome;112.0;macOS;10.15.7;undefined;undefined;1440 x 900;1440 x 900
H019;23;Vrouwelijk;Rechts;5;106;right;no;350;rightarrow;538;true;focus;yes;1107372;Chrome;112.0;macOS;10.15.7;undefined;undefined;1440 x 900;1440 x 900
H019;23;Vrouwelijk;Rechts;5;107;right;no;350;rightarrow;562;true;focus;yes;1108717;Chrome;112.0;macOS;10.15.7;undefined;undefined;1440 x 900;1440 x 900
H019;23;Vrouwelijk;Rechts;5;108;left;no;350;leftarrow;627;true;focus;yes;1110125;Chrome;112.0;macOS;10.15.7;undefined;undefined;1440 x 900;1440 x 900
H019;23;Vrouwelijk;Rechts;5;109;right;yes;350;undefined;null;true;focus;yes;1112161;Chrome;112.0;macOS;10.15.7;undefined;undefined;1440 x 900;1440 x 900
H019;23;Vrouwelijk;Rechts;5;110;right;no;400;rightarrow;698;true;focus;yes;1113629;Chrome;112.0;macOS;10.15.7;undefined;undefined;1440 x 900;1440 x 900
H019;23;Vrouwelijk;Rechts;5;111;left;no;400;leftarrow;588;true;focus;yes;1114996;Chrome;112.0;macOS;10.15.7;undefined;undefined;1440 x 900;1440 x 900
H019;23;Vrouwelijk;Rechts;5;112;left;no;400;leftarrow;586;true;focus;yes;1116365;Chrome;112.0;macOS;10.15.7;undefined;undefined;1440 x 900;1440 x 900
H019;23;Vrouwelijk;Rechts;5;113;left;no;400;leftarrow;629;true;focus;yes;1117764;Chrome;112.0;macOS;10.15.7;undefined;undefined;1440 x 900;1440 x 900
H019;23;Vrouwelijk;Rechts;5;114;right;yes;400;rightarrow;539;false;focus;yes;1119084;Chrome;112.0;macOS;10.15.7;undefined;undefined;1440 x 900;1440 x 900
H019;23;Vrouwelijk;Rechts;5;115;left;yes;350;leftarrow;421;false;focus;yes;1120276;Chrome;112.0;macOS;10.15.7;undefined;undefined;1440 x 900;1440 x 900
H019;23;Vrouwelijk;Rechts;5;116;left;no;300;leftarrow;631;true;focus;yes;1121685;Chrome;112.0;macOS;10.15.7;undefined;undefined;1440 x 900;1440 x 900
H019;23;Vrouwelijk;Rechts;5;117;left;no;300;leftarrow;551;true;focus;yes;1123016;Chrome;112.0;macOS;10.15.7;undefined;undefined;1440 x 900;1440 x 900
H019;23;Vrouwelijk;Rechts;5;118;right;no;300;rightarrow;455;true;focus;yes;1124238;Chrome;112.0;macOS;10.15.7;undefined;undefined;1440 x 900;1440 x 900
H019;23;Vrouwelijk;Rechts;5;119;right;no;300;rightarrow;473;true;focus;yes;1125489;Chrome;112.0;macOS;10.15.7;undefined;undefined;1440 x 900;1440 x 900
H019;23;Vrouwelijk;Rechts;5;120;right;no;300;rightarrow;499;true;focus;yes;1126764;Chrome;112.0;macOS;10.15.7;undefined;undefined;1440 x 900;1440 x 900
H019;23;Vrouwelijk;Rechts;5;121;right;no;300;rightarrow;431;true;focus;yes;1127974;Chrome;112.0;macOS;10.15.7;undefined;undefined;1440 x 900;1440 x 900
H019;23;Vrouwelijk;Rechts;5;122;right;yes;300;rightarrow;445;false;focus;yes;1129198;Chrome;112.0;macOS;10.15.7;undefined;undefined;1440 x 900;1440 x 900
H019;23;Vrouwelijk;Rechts;5;123;left;no;250;leftarrow;470;true;focus;yes;1130445;Chrome;112.0;macOS;10.15.7;undefined;undefined;1440 x 900;1440 x 900
H019;23;Vrouwelijk;Rechts;5;124;left;no;250;leftarrow;438;true;focus;yes;1131652;Chrome;112.0;macOS;10.15.7;undefined;undefined;1440 x 900;1440 x 900
H019;23;Vrouwelijk;Rechts;5;125;right;no;250;rightarrow;913;true;focus;yes;1133344;Chrome;112.0;macOS;10.15.7;undefined;undefined;1440 x 900;1440 x 900
H019;23;Vrouwelijk;Rechts;5;126;left;yes;250;undefined;null;true;focus;yes;1135371;Chrome;112.0;macOS;10.15.7;undefined;undefined;1440 x 900;1440 x 900
H019;23;Vrouwelijk;Rechts;5;127;left;no;300;leftarrow;572;true;focus;yes;1136726;Chrome;112.0;macOS;10.15.7;undefined;undefined;1440 x 900;1440 x 900
H019;23;Vrouwelijk;Rechts;5;128;right;no;300;rightarrow;539;true;focus;yes;1138042;Chrome;112.0;macOS;10.15.7;undefined;undefined;1440 x 900;1440 x 900
H019;23;Vrouwelijk;Rechts;6;1;right;no;300;rightarrow;608;true;focus;yes;1157414;Chrome;112.0;macOS;10.15.7;undefined;undefined;1440 x 900;1440 x 900
H019;23;Vrouwelijk;Rechts;6;2;right;no;300;rightarrow;483;true;focus;yes;1158674;Chrome;112.0;macOS;10.15.7;undefined;undefined;1440 x 900;1440 x 900
H019;23;Vrouwelijk;Rechts;6;3;left;yes;300;leftarrow;453;false;focus;yes;1159907;Chrome;112.0;macOS;10.15.7;undefined;undefined;1440 x 900;1440 x 900
H019;23;Vrouwelijk;Rechts;6;4;right;yes;250;rightarrow;398;false;focus;yes;1161083;Chrome;112.0;macOS;10.15.7;undefined;undefined;1440 x 900;1440 x 900
H019;23;Vrouwelijk;Rechts;6;5;left;no;200;leftarrow;525;true;focus;yes;1162378;Chrome;112.0;macOS;10.15.7;undefined;undefined;1440 x 900;1440 x 900
H019;23;Vrouwelijk;Rechts;6;6;left;no;200;leftarrow;469;true;focus;yes;1163628;Chrome;112.0;macOS;10.15.7;undefined;undefined;1440 x 900;1440 x 900
H019;23;Vrouwelijk;Rechts;6;7;right;no;200;rightarrow;511;true;focus;yes;1164917;Chrome;112.0;macOS;10.15.7;undefined;undefined;1440 x 900;1440 x 900
H019;23;Vrouwelijk;Rechts;6;8;left;no;200;leftarrow;494;true;focus;yes;1166179;Chrome;112.0;macOS;10.15.7;undefined;undefined;1440 x 900;1440 x 900
H019;23;Vrouwelijk;Rechts;6;9;left;no;200;leftarrow;557;true;focus;yes;1167516;Chrome;112.0;macOS;10.15.7;undefined;undefined;1440 x 900;1440 x 900
H019;23;Vrouwelijk;Rechts;6;10;right;yes;200;undefined;null;true;focus;yes;1169551;Chrome;112.0;macOS;10.15.7;undefined;undefined;1440 x 900;1440 x 900
H019;23;Vrouwelijk;Rechts;6;11;left;yes;250;leftarrow;474;false;focus;yes;1170792;Chrome;112.0;macOS;10.15.7;undefined;undefined;1440 x 900;1440 x 900
H019;23;Vrouwelijk;Rechts;6;12;right;no;200;rightarrow;393;true;focus;yes;1171960;Chrome;112.0;macOS;10.15.7;undefined;undefined;1440 x 900;1440 x 900
H019;23;Vrouwelijk;Rechts;6;13;right;no;200;rightarrow;502;true;focus;yes;1173226;Chrome;112.0;macOS;10.15.7;undefined;undefined;1440 x 900;1440 x 900
H019;23;Vrouwelijk;Rechts;6;14;right;no;200;rightarrow;527;true;focus;yes;1174533;Chrome;112.0;macOS;10.15.7;undefined;undefined;1440 x 900;1440 x 900