participantID;age;gender;handedness;block_i;trial_i;stim;signal;SSD;response;rt;correct;focus;Fullscreen;time_elapsed;browser_name;browser_version;os_name;os_version;tablet;mobile;screen_resolution;window_resolution
H045;20;Vrouwelijk;Rechts;0;1;left;no;200;leftarrow;456;true;focus;yes;152169;Chrome;112.0;Windows;10;undefined;undefined;1536 x 864;1536 x 864
H045;20;Vrouwelijk;Rechts;0;2;left;no;200;leftarrow;339;true;focus;yes;154028;Chrome;112.0;Windows;10;undefined;undefined;1536 x 864;1536 x 864
H045;20;Vrouwelijk;Rechts;0;3;right;no;200;rightarrow;339;true;focus;yes;155903;Chrome;112.0;Windows;10;undefined;undefined;1536 x 864;1536 x 864
H045;20;Vrouwelijk;Rechts;0;4;right;no;200;rightarrow;305;true;focus;yes;157728;Chrome;112.0;Windows;10;undefined;undefined;1536 x 864;1536 x 864
H045;20;Vrouwelijk;Rechts;0;5;left;no;200;leftarrow;386;true;focus;yes;159642;Chrome;112.0;Windows;10;undefined;undefined;1536 x 864;1536 x 864
H045;20;Vrouwelijk;Rechts;0;6;left;yes;200;leftarrow;383;false;focus;yes;161551;Chrome;112.0;Windows;10;undefined;undefined;1536 x 864;1536 x 864
H045;20;Vrouwelijk;Rechts;0;7;right;no;150;rightarrow;380;true;focus;yes;163467;Chrome;112.0;Windows;10;undefined;undefined;1536 x 864;1536 x 864
H045;20;Vrouwelijk;Rechts;0;8;right;yes;150;undefined;null;true;focus;yes;166257;Chrome;112.0;Windows;10;undefined;undefined;1536 x 864;1536 x 864
H045;20;Vrouwelijk;Rechts;1;1;right;yes;200;rightarrow;387;false;focus;yes;186846;Chrome;112.0;Windows;10;undefined;undefined;1536 x 864;1536 x 864
H045;20;Vrouwelijk;Rechts;1;2;right;no;150;rightarrow;488;true;focus;yes;188099;Chrome;112.0;Windows;10;undefined;undefined;1536 x 864;1536 x 864
H045;20;Vrouwelijk;Rechts;1;3;left;yes;150;undefined;null;true;focus;yes;190124;Chrome;112.0;Windows;10;undefined;undefined;1536 x 864;1536 x 864
H045;20;Vrouwelijk;Rechts;1;4;right;no;200;rightarrow;354;true;focus;yes;191256;Chrome;112.0;Windows;10;undefined;undefined;1536 x 864;1536 x 864
H045;20;Vrouwelijk;Rechts;1;5;right;no;200;rightarrow;501;true;focus;yes;192525;Chrome;112.0;Windows;10;undefined;undefined;1536 x 864;1536 x 864
H045;20;Vrouwelijk;Rechts;1;6;left;no;200;leftarrow;326;true;focus;yes;193627;Chrome;112.0;Windows;10;undefined;undefined;1536 x 864;1536 x 864
H045;20;Vrouwelijk;Rechts;1;7;left;no;200;leftarrow;326;true;focus;yes;194722;Chrome;112.0;Windows;10;undefined;undefined;1536 x 864;1536 x 864
H045;20;Vrouwelijk;Rechts;1;8;left;no;200;leftarrow;385;true;focus;yes;195871;Chrome;112.0;Windows;10;undefined;undefined;1536 x 864;1536 x 864
H045;20;Vrouwelijk;Rechts;1;9;left;no;200;leftarrow;340;true;focus;yes;196986;Chrome;112.0;Windows;10;undefined;undefined;1536 x 864;1536 x 864
H045;20;Vrouwelijk;Rechts;1;10;left;yes;200;undefined;null;true;focus;yes;199018;Chrome;112.0;Windows;10;undefined;undefined;1536 x 864;1536 x 864
H045;20;Vrouwelijk;Rechts;1;11;left;no;250;leftarrow;359;true;focus;yes;200143;Chrome;112.0;Windows;10;undefined;undefined;1536 x 864;1536 x 864
H045;20;Vrouwelijk;Rechts;1;12;right;no;250;rightarrow;516;true;focus;yes;201429;Chrome;112.0;Windows;10;undefined;undefined;1536 x 864;1536 x 864
H045;20;Vrouwelijk;Rechts;1;13;left;no;250;leftarrow;363;true;focus;yes;202551;Chrome;112.0;Windows;10;undefined;undefined;1536 x 864;1536 x 864
H045;20;Vrouwelijk;Rechts;1;14;right;no;250;rightarrow;353;true;focus;yes;203671;Chrome;112.0;Windows;10;undefined;undefined;1536 x 864;1536 x 864
H045;20;Vrouwelijk;Rechts;1;15;right;yes;250;rightarrow;393;false;focus;yes;204836;Chrome;112.0;Windows;10;undefined;undefined;1536 x 864;1536 x 864
H045;20;Vrouwelijk;Rechts;1;16;right;no;200;rightarrow;825;true;focus;yes;206430;Chrome;112.0;Windows;10;undefined;undefined;1536 x 864;1536 x 864
H045;20;Vrouwelijk;Rechts;1;17;left;no;200;leftarrow;309;true;focus;yes;207508;Chrome;112.0;Windows;10;undefined;undefined;1536 x 864;1536 x 864
H045;20;Vrouwelijk;Rechts;1;18;left;no;200;leftarrow;311;true;focus;yes;208589;Chrome;112.0;Windows;10;undefined;undefined;1536 x 864;1536 x 864
H045;20;Vrouwelijk;Rechts;1;19;right;yes;200;undefined;null;true;focus;yes;210609;Chrome;112.0;Windows;10;undefined;undefined;1536 x 864;1536 x 864
H045;20;Vrouwelijk;Rechts;1;20;left;yes;250;leftarrow;290;false;focus;yes;211663;Chrome;112.0;Windows;10;undefined;undefined;1536 x 864;1536 x 864
H045;20;Vrouwelijk;Rechts;1;21;right;no;200;rightarrow;565;true;focus;yes;213002;Chrome;112.0;Windows;10;undefined;undefined;1536 x 864;1536 x 864
H045;20;Vrouwelijk;Rechts;1;22;left;no;200;leftarrow;312;true;focus;yes;214086;Chrome;112.0;Windows;10;undefined;undefined;1536 x 864;1536 x 864
H045;20;Vrouwelijk;Rechts;1;23;right;no;200;rightarrow;398;true;focus;yes;215242;Chrome;112.0;Windows;10;undefined;undefined;1536 x 864;1536 x 864
H045;20;Vrouwelijk;Rechts;1;24;right;no;200;rightarrow;335;true;focus;yes;216341;Chrome;112.0;Windows;10;undefined;undefined;1536 x 864;1536 x 864
H045;20;Vrouwelijk;Rechts;1;25;left;no;200;leftarrow;430;true;focus;yes;217544;Chrome;112.0;Windows;10;undefined;undefined;1536 x 864;1536 x 864
H045;20;Vrouwelijk;Rechts;1;26;left;yes;200;leftarrow;388;false;focus;yes;218702;Chrome;112.0;Windows;10;undefined;undefined;1536 x 864;1536 x 864
H045;20;Vrouwelijk;Rechts;1;27;right;no;150;rightarrow;376;true;focus;yes;219856;Chrome;112.0;Windows;10;undefined;undefined;1536 x 864;1536 x 864
H045;20;Vrouwelijk;Rechts;1;28;right;no;150;rightarrow;604;true;focus;yes;221230;Chrome;112.0;Windows;10;undefined;undefined;1536 x 864;1536 x 864
H045;20;Vrouwelijk;Rechts;1;29;right;yes;150;undefined;null;true;focus;yes;223240;Chrome;112.0;Windows;10;undefined;undefined;1536 x 864;1536 x 864
H045;20;Vrouwelijk;Rechts;1;30;left;no;200;leftarrow;435;true;focus;yes;224448;Chrome;112.0;Windows;10;undefined;undefined;1536 x 864;1536 x 864
H045;20;Vrouwelijk;Rechts;1;31;right;no;200;rightarrow;508;true;focus;yes;225732;Chrome;112.0;Windows;10;undefined;undefined;1536 x 864;1536 x 864
H045;20;Vrouwelijk;Rechts;1;32;left;no;200;leftarrow;477;true;focus;yes;226968;Chrome;112.0;Windows;10;undefined;undefined;1536 x 864;1536 x 864
H045;20;Vrouwelijk;Rechts;1;33;right;no;200;rightarrow;358;true;focus;yes;228108;Chrome;112.0;Windows;10;undefined;undefined;1536 x 864;1536 x 864
H045;20;Vrouwelijk;Rechts;1;34;left;yes;200;leftarrow;319;false;focus;yes;229187;Chrome;112.0;Windows;10;undefined;undefined;1536 x 864;1536 x 864
H045;20;Vrouwelijk;Rechts;1;35;right;no;150;rightarrow;462;true;focus;yes;230420;Chrome;112.0;Windows;10;undefined;undefined;1536 x 864;1536 x 864
H045;20;Vrouwelijk;Rechts;1;36;left;no;150;leftarrow;535;true;focus;yes;231738;Chrome;112.0;Windows;10;undefined;undefined;1536 x 864;1536 x 864
H045;20;Vrouwelijk;Rechts;1;37;right;no;150;rightarrow;334;true;focus;yes;232840;Chrome;112.0;Windows;10;undefined;undefined;1536 x 864;1536 x 864
H045;20;Vrouwelijk;Rechts;1;38;right;yes;150;undefined;null;true;focus;yes;234874;Chrome;112.0;Windows;10;undefined;undefined;1536 x 864;1536 x 864
H045;20;Vrouwelijk;Rechts;1;39;left;no;200;leftarrow;402;true;focus;yes;236061;Chrome;112.0;Windows;10;undefined;undefined;1536 x 864;1536 x 864
H045;20;Vrouwelijk;Rechts;1;40;left;no;200;leftarrow;433;true;focus;yes;237256;Chrome;112.0;Windows;10;undefined;undefined;1536 x 864;1536 x 864
H045;20;Vrouwelijk;Rechts;1;41;left;no;200;leftarrow;508;true;focus;yes;238528;Chrome;112.0;Windows;10;undefined;undefined;1536 x 864;1536 x 864
H045;20;Vrouwelijk;Rechts;1;42;right;yes;200;undefined;null;true;focus;yes;240555;Chrome;112.0;Windows;10;undefined;undefined;1536 x 864;1536 x 864
H045;20;Vrouwelijk;Rechts;1;43;right;no;250;rightarrow;354;true;focus;yes;241695;Chrome;112.0;Windows;10;undefined;undefined;1536 x 864;1536 x 864
H045;20;Vrouwelijk;Rechts;1;44;left;no;250;leftarrow;369;true;focus;yes;242845;Chrome;112.0;Windows;10;undefined;undefined;1536 x 864;1536 x 864
H045;20;Vrouwelijk;Rechts;1;45;left;yes;250;leftarrow;349;false;focus;yes;243960;Chrome;112.0;Windows;10;undefined;undefined;1536 x 864;1536 x 864
H045;20;Vrouwelijk;Rechts;1;46;right;no;200;rightarrow;431;true;focus;yes;245159;Chrome;112.0;Windows;10;undefined;undefined;1536 x 864;1536 x 864
H045;20;Vrouwelijk;Rechts;1;47;right;no;200;rightarrow;565;true;focus;yes;246492;Chrome;112.0;Windows;10;undefined;undefined;1536 x 864;1536 x 864
H045;20;Vrouwelijk;Rechts;1;48;left;no;200;leftarrow;431;true;focus;yes;247703;Chrome;112.0;Windows;10;undefined;undefined;1536 x 864;1536 x 864
H045;20;Vrouwelijk;Rechts;1;49;right;no;200;rightarrow;477;true;focus;yes;248951;Chrome;112.0;Windows;10;undefined;undefined;1536 x 864;1536 x 864
H045;20;Vrouwelijk;Rechts;1;50;left;no;200;leftarrow;447;true;focus;yes;250174;Chrome;112.0;Windows;10;undefined;undefined;1536 x 864;1536 x 864
H045;20;Vrouwelijk;Rechts;1;51;right;no;200;rightarrow;405;true;focus;yes;251346;Chrome;112.0;Windows;10;undefined;undefined;1536 x 864;1536 x 864
H045;20;Vrouwelijk;Rechts;1;52;right;yes;200;rightarrow;339;false;focus;yes;252454;Chrome;112.0;Windows;10;undefined;undefined;1536 x 864;1536 x 864
H045;20;Vrouwelijk;Rechts;1;53;left;no;150;leftarrow;606;true;focus;yes;253842;Chrome;112.0;Windows;10;undefined;undefined;1536 x 864;1536 x 864
H045;20;Vrouwelijk;Rechts;1;54;left;yes;150;undefined;null;true;focus;yes;255876;Chrome;112.0;Windows;10;undefined;undefined;1536 x 864;1536 x 864
H045;20;Vrouwelijk;Rechts;1;55;left;no;200;leftarrow;407;true;focus;yes;257052;Chrome;112.0;Windows;10;undefined;undefined;1536 x 864;1536 x 864
H045;20;Vrouwelijk;Rechts;1;56;right;no;200;rightarrow;516;true;focus;yes;258346;Chrome;112.0;Windows;10;undefined;undefined;1536 x 864;1536 x 864
H045;20;Vrouwelijk;Rechts;1;57;right;no;200;rightarrow;346;true;focus;yes;259476;Chrome;112.0;Windows;10;undefined;undefined;1536 x 864;1536 x 864
H045;20;Vrouwelijk;Rechts;1;58;left;yes;200;leftarrow;384;false;focus;yes;260639;Chrome;112.0;Windows;10;undefined;undefined;1536 x 864;1536 x 864
H045;20;Vrouwelijk;Rechts;1;59;left;no;150;leftarrow;457;true;focus;yes;261876;Chrome;112.0;Windows;10;undefined;undefined;1536 x 864;1536 x 864
H045;20;Vrouwelijk;Rechts;1;60;right;no;150;rightarrow;512;true;focus;yes;263170;Chrome;112.0;Windows;10;undefined;undefined;1536 x 864;1536 x 864
H045;20;Vrouwelijk;Rechts;1;61;right;yes;150;undefined;null;true;focus;yes;265210;Chrome;112.0;Windows;10;undefined;undefined;1536 x 864;1536 x 864
H045;20;Vrouwelijk;Rechts;1;62;left;no;200;leftarrow;440;true;focus;yes;266412;Chrome;112.0;Windows;10;undefined;undefined;1536 x 864;1536 x 864
H045;20;Vrouwelijk;Rechts;1;63;right;no;200;rightarrow;454;true;focus;yes;267636;Chrome;112.0;Windows;10;undefined;undefined;1536 x 864;1536 x 864
H045;20;Vrouwelijk;Rechts;1;64;left;no;200;leftarrow;556;true;focus;yes;268960;Chrome;112.0;Windows;10;undefined;undefined;1536 x 864;1536 x 864
H045;20;Vrouwelijk;Rechts;1;65;left;no;200;leftarrow;427;true;focus;yes;270164;Chrome;112.0;Windows;10;undefined;undefined;1536 x 864;1536 x 864
H045;20;Vrouwelijk;Rechts;1;66;right;yes;200;undefined;null;true;focus;yes;272192;Chrome;112.0;Windows;10;undefined;undefined;1536 x 864;1536 x 864
H045;20;Vrouwelijk;Rechts;1;67;right;no;250;rightarrow;471;true;focus;yes;273432;Chrome;112.0;Windows;10;undefined;undefined;1536 x 864;1536 x 864
H045;20;Vrouwelijk;Rechts;1;68;left;yes;250;undefined;null;true;focus;yes;275458;Chrome;112.0;Windows;10;undefined;undefined;1536 x 864;1536 x 864
H045;20;Vrouwelijk;Rechts;1;69;left;no;300;leftarrow;424;true;focus;yes;276660;Chrome;112.0;Windows;10;undefined;undefined;1536 x 864;1536 x 864
H045;20;Vrouwelijk;Rechts;1;70;right;no;300;rightarrow;478;true;focus;yes;277895;Chrome;112.0;Windows;10;undefined;undefined;1536 x 864;1536 x 864
H045;20;Vrouwelijk;Rechts;1;71;left;no;300;leftarrow;327;true;focus;yes;278990;Chrome;112.0;Windows;10;undefined;undefined;1536 x 864;1536 x 864
H045;20;Vrouwelijk;Rechts;1;72;right;no;300;rightarrow;425;true;focus;yes;280184;Chrome;112.0;Windows;10;undefined;undefined;1536 x 864;1536 x 864
H045;20;Vrouwelijk;Rechts;1;73;right;yes;300;rightarrow;463;false;focus;yes;281420;Chrome;112.0;Windows;10;undefined;undefined;1536 x 864;1536 x 864
H045;20;Vrouwelijk;Rechts;1;74;right;no;250;rightarrow;700;true;focus;yes;282887;Chrome;112.0;Windows;10;undefined;undefined;1536 x 864;1536 x 864
H045;20;Vrouwelijk;Rechts;1;75;left;no;250;leftarrow;585;true;focus;yes;284241;Chrome;112.0;Windows;10;undefined;undefined;1536 x 864;1536 x 864
H045;20;Vrouwelijk;Rechts;1;76;left;no;250;leftarrow;481;true;focus;yes;285489;Chrome;112.0;Windows;10;undefined;undefined;1536 x 864;1536 x 864
H045;20;Vrouwelijk;Rechts;1;77;right;no;250;rightarrow;499;true;focus;yes;286773;Chrome;112.0;Windows;10;undefined;undefined;1536 x 864;1536 x 864
H045;20;Vrouwelijk;Rechts;1;78;left;yes;250;undefined;null;true;focus;yes;288815;Chrome;112.0;Windows;10;undefined;undefined;1536 x 864;1536 x 864
H045;20;Vrouwelijk;Rechts;1;79;left;no;300;leftarrow;545;true;focus;yes;290128;Chrome;112.0;Windows;10;undefined;undefined;1536 x 864;1536 x 864
H045;20;Vrouwelijk;Rechts;1;80;right;no;300;rightarrow;546;true;focus;yes;291444;Chrome;112.0;Windows;10;undefined;undefined;1536 x 864;1536 x 864
H045;20;Vrouwelijk;Rechts;1;81;left;no;300;leftarrow;543;true;focus;yes;292766;Chrome;112.0;Windows;10;undefined;undefined;1536 x 864;1536 x 864
H045;20;Vrouwelijk;Rechts;1;82;right;no;300;rightarrow;652;true;focus;yes;294200;Chrome;112.0;Windows;10;undefined;undefined;1536 x 864;1536 x 864
H045;20;Vrouwelijk;Rechts;1;83;left;no;300;leftarrow;493;true;focus;yes;295471;Chrome;112.0;Windows;10;undefined;undefined;1536 x 864;1536 x 864
H045;20;Vrouwelijk;Rechts;1;84;right;yes;300;undefined;null;true;focus;yes;297504;Chrome;112.0;Windows;10;undefined;undefined;1536 x 864;1536 x 864
H045;20;Vrouwelijk;Rechts;1;85;left;yes;350;leftarrow;429;false;focus;yes;298718;Chrome;112.0;Windows;10;undefined;undefined;1536 x 864;1536 x 864
H045;20;Vrouwelijk;Rechts;1;86;left;no;300;leftarrow;599;true;focus;yes;300084;Chrome;112.0;Windows;10;undefined;undefined;1536 x 864;1536 x 864
H045;20;Vrouwelijk;Rechts;1;87;right;no;300;rightarrow;467;true;focus;yes;301323;Chrome;112.0;Windows;10;undefined;undefined;1536 x 864;1536 x 864
H045;20;Vrouwelijk;Rechts;1;88;right;no;300;rightarrow;463;true;focus;yes;302550;Chrome;112.0;Windows;10;undefined;undefined;1536 x 864;1536 x 864
H045;20;Vrouwelijk;Rechts;1;89;right;no;300;rightarrow;516;true;focus;yes;303831;Chrome;112.0;Windows;10;undefined;undefined;1536 x 864;1536 x 864
H045;20;Vrouwelijk;Rechts;1;90;left;no;300;leftarrow;666;true;focus;yes;305264;Chrome;112.0;Windows;10;undefined;undefined;1536 x 864;1536 x 864
H045;20;Vrouwelijk;Rechts;1;91;right;yes;300;rightarrow;458;false;focus;yes;306489;Chrome;112.0;Windows;10;undefined;undefined;1536 x 864;1536 x 864
H045;20;Vrouwelijk;Rechts;1;92;left;no;250;leftarrow;556;true;focus;yes;307810;Chrome;112.0;Windows;10;undefined;undefined;1536 x 864;1536 x 864
H045;20;Vrouwelijk;Rechts;1;93;right;no;250;rightarrow;532;true;focus;yes;309115;Chrome;112.0;Windows;10;undefined;undefined;1536 x 864;1536 x 864
H045;20;Vrouwelijk;Rechts;1;94;left;yes;250;leftarrow;424;false;focus;yes;310313;Chrome;112.0;Windows;10;undefined;undefined;1536 x 864;1536 x 864
H045;20;Vrouwelijk;Rechts;1;95;right;no;200;rightarrow;637;true;focus;yes;311716;Chrome;112.0;Windows;10;undefined;undefined;1536 x 864;1536 x 864
H045;20;Vrouwelijk;Rechts;1;96;left;no;200;leftarrow;689;true;focus;yes;313188;Chrome;112.0;Windows;10;undefined;undefined;1536 x 864;1536 x 864
H045;20;Vrouwelijk;Rechts;1;97;left;no;200;leftarrow;989;true;focus;yes;314941;Chrome;112.0;Windows;10;undefined;undefined;1536 x 864;1536 x 864
H045;20;Vrouwelijk;Rechts;1;98;left;no;200;leftarrow;448;true;focus;yes;316172;Chrome;112.0;Windows;10;undefined;undefined;1536 x 864;1536 x 864
H045;20;Vrouwelijk;Rechts;1;99;right;yes;200;undefined;null;true;focus;yes;318195;Chrome;112.0;Windows;10;undefined;undefined;1536 x 864;1536 x 864
H045;20;Vrouwelijk;Rechts;1;100;right;no;250;rightarrow;563;true;focus;yes;319542;Chrome;112.0;Windows;10;undefined;undefined;1536 x 864;1536 x 864
H045;20;Vrouwelijk;Rechts;1;101;right;no;250;rightarrow;633;true;focus;yes;320956;Chrome;112.0;Windows;10;undefined;undefined;1536 x 864;1536 x 864
H045;20;Vrouwelijk;Rechts;1;102;left;no;250;leftarrow;572;true;focus;yes;322295;Chrome;112.0;Windows;10;undefined;undefined;1536 x 864;1536 x 864
H045;20;Vrouwelijk;Rechts;1;103;left;yes;250;undefined;null;true;focus;yes;324326;Chrome;112.0;Windows;10;undefined;undefined;1536 x 864;1536 x 864
H045;20;Vrouwelijk;Rechts;1;104;right;no;300;rightarrow;631;true;focus;yes;325727;Chrome;112.0;Windows;10;undefined;undefined;1536 x 864;1536 x 864
H045;20;Vrouwelijk;Rechts;1;105;left;yes;300;undefined;null;true;focus;yes;327755;Chrome;112.0;Windows;10;undefined;undefined;1536 x 864;1536 x 864
H045;20;Vrouwelijk;Rechts;1;106;left;no;350;leftarrow;560;true;focus;yes;329083;Chrome;112.0;Windows;10;undefined;undefined;1536 x 864;1536 x 864
H045;20;Vrouwelijk;Rechts;1;107;right;no;350;rightarrow;591;true;focus;yes;330441;Chrome;112.0;Windows;10;undefined;undefined;1536 x 864;1536 x 864
H045;20;Vrouwelijk;Rechts;1;108;left;no;350;leftarrow;576;true;focus;yes;331786;Chrome;112.0;Windows;10;undefined;undefined;1536 x 864;1536 x 864
H045;20;Vrouwelijk;Rechts;1;109;right;no;350;rightarrow;736;true;focus;yes;333289;Chrome;112.0;Windows;10;undefined;undefined;1536 x 864;1536 x 864
H045;20;Vrouwelijk;Rechts;1;110;right;yes;350;rightarrow;457;false;focus;yes;334520;Chrome;112.0;Windows;10;undefined;undefined;1536 x 864;1536 x 864
H045;20;Vrouwelijk;Rechts;1;111;right;no;300;rightarrow;961;true;focus;yes;336251;Chrome;112.0;Windows;10;undefined;undefined;1536 x 864;1536 x 864
H045;20;Vrouwelijk;Rechts;1;112;left;no;300;leftarrow;808;true;focus;yes;337836;Chrome;112.0;Windows;10;undefined;undefined;1536 x 864;1536 x 864
H045;20;Vrouwelijk;Rechts;1;113;left;no;300;leftarrow;588;true;focus;yes;339187;Chrome;112.0;Windows;10;undefined;undefined;1536 x 864;1536 x 864
H045;20;Vrouwelijk;Rechts;1;114;left;yes;300;undefined;null;true;focus;yes;341227;Chrome;112.0;Windows;10;undefined;undefined;1536 x 864;1536 x 864
H045;20;Vrouwelijk;Rechts;1;115;left;no;350;leftarrow;573;true;focus;yes;342577;Chrome;112.0;Windows;10;undefined;undefined;1536 x 864;1536 x 864
H045;20;Vrouwelijk;Rechts;1;116;right;no;350;rightarrow;633;true;focus;yes;343978;Chrome;112.0;Windows;10;undefined;undefined;1536 x 864;1536 x 864
H045;20;Vrouwelijk;Rechts;1;117;right;yes;350;rightarrow;543;false;focus;yes;345288;Chrome;112.0;Windows;10;undefined;undefined;1536 x 864;1536 x 864
H045;20;Vrouwelijk;Rechts;1;118;right;no;300;rightarrow;690;true;focus;yes;346753;Chrome;112.0;Windows;10;undefined;undefined;1536 x 864;1536 x 864
H045;20;Vrouwelijk;Rechts;1;119;right;no;300;rightarrow;636;true;focus;yes;348154;Chrome;112.0;Windows;10;undefined;undefined;1536 x 864;1536 x 864
H045;20;Vrouwelijk;Rechts;1;120;left;no;300;leftarrow;525;true;focus;yes;349447;Chrome;112.0;Windows;10;undefined;undefined;1536 x 864;1536 x 864
H045;20;Vrouwelijk;Rechts;1;121;left;no;300;leftarrow;611;true;focus;yes;350844;Chrome;112.0;Windows;10;undefined;undefined;1536 x 864;1536 x 864
H045;20;Vrouwelijk;Rechts;1;122;left;yes;300;leftarrow;404;false;focus;yes;352035;Chrome;112.0;Windows;10;undefined;undefined;1536 x 864;1536 x 864
H045;20;Vrouwelijk;Rechts;1;123;right;yes;250;undefined;null;true;focus;yes;354046;Chrome;112.0;Windows;10;undefined;undefined;1536 x 864;1536 x 864
H045;20;Vrouwelijk;Rechts;1;124;right;no;300;rightarrow;413;true;focus;yes;355240;Chrome;112.0;Windows;10;undefined;undefined;1536 x 864;1536 x 864
H045;20;Vrouwelijk;Rechts;1;125;right;no;300;rightarrow;457;true;focus;yes;356465;Chrome;112.0;Windows;10;undefined;undefined;1536 x 864;1536 x 864
H045;20;Vrouwelijk;Rechts;1;126;right;no;300;rightarrow;483;true;focus;yes;357708;Chrome;112.0;Windows;10;undefined;undefined;1536 x 864;1536 x 864
H045;20;Vrouwelijk;Rechts;1;127;left;no;300;leftarrow;606;true;focus;yes;359096;Chrome;112.0;Windows;10;undefined;undefined;1536 x 864;1536 x 864
H045;20;Vrouwelijk;Rechts;1;128;left;no;300;leftarrow;625;true;focus;yes;360484;Chrome;112.0;Windows;10;undefined;undefined;1536 x 864;1536 x 864
H045;20;Vrouwelijk;Rechts;2;1;right;no;300;rightarrow;509;true;focus;yes;381177;Chrome;112.0;Windows;10;undefined;undefined;1536 x 864;1536 x 864
H045;20;Vrouwelijk;Rechts;2;2;right;yes;300;rightarrow;467;false;focus;yes;382426;Chrome;112.0;Windows;10;undefined;undefined;1536 x 864;1536 x 864
H045;20;Vrouwelijk;Rechts;2;3;right;no;250;rightarrow;636;true;focus;yes;383837;Chrome;112.0;Windows;10;undefined;undefined;1536 x 864;1536 x 864
H045;20;Vrouwelijk;Rechts;2;4;left;yes;250;undefined;null;true;focus;yes;385849;Chrome;112.0;Windows;10;undefined;undefined;1536 x 864;1536 x 864
H045;20;Vrouwelijk;Rechts;2;5;left;no;300;leftarrow;521;true;focus;yes;387151;Chrome;112.0;Windows;10;undefined;undefined;1536 x 864;1536 x 864
H045;20;Vrouwelijk;Rechts;2;6;right;no;300;rightarrow;481;true;focus;yes;388407;Chrome;112.0;Windows;10;undefined;undefined;1536 x 864;1536 x 864
H045;20;Vrouwelijk;Rechts;2;7;left;no;300;leftarrow;466;true;focus;yes;389649;Chrome;112.0;Windows;10;undefined;undefined;1536 x 864;1536 x 864
H045;20;Vrouwelijk;Rechts;2;8;left;no;300;leftarrow;607;true;focus;yes;391032;Chrome;112.0;Windows;10;undefined;undefined;1536 x 864;1536 x 864
H045;20;Vrouwelijk;Rechts;2;9;left;no;300;leftarrow;445;true;focus;yes;392240;Chrome;112.0;Windows;10;undefined;undefined;1536 x 864;1536 x 864
H045;20;Vrouwelijk;Rechts;2;10;right;no;300;rightarrow;424;true;focus;yes;393442;Chrome;112.0;Windows;10;undefined;undefined;1536 x 864;1536 x 864
H045;20;Vrouwelijk;Rechts;2;11;left;yes;300;leftarrow;361;false;focus;yes;394576;Chrome;112.0;Windows;10;undefined;undefined;1536 x 864;1536 x 864
H045;20;Vrouwelijk;Rechts;2;12;left;no;250;leftarrow;523;true;focus;yes;395874;Chrome;112.0;Windows;10;undefined;undefined;1536 x 864;1536 x 864
H045;20;Vrouwelijk;Rechts;2;13;right;no;250;rightarrow;388;true;focus;yes;397042;Chrome;112.0;Windows;10;undefined;undefined;1536 x 864;1536 x 864
H045;20;Vrouwelijk;Rechts;2;14;right;no;250;rightarrow;357;true;focus;yes;398171;Chrome;112.0;Windows;10;undefined;undefined;1536 x 864;1536 x 864
H045;20;Vrouwelijk;Rechts;2;15;left;no;250;leftarrow;444;true;focus;yes;399393;Chrome;112.0;Windows;10;undefined;undefined;1536 x 864;1536 x 864
H045;20;Vrouwelijk;Rechts;2;16;right;yes;250;undefined;null;true;focus;yes;401431;Chrome;112.0;Windows;10;undefined;undefined;1536 x 864;1536 x 864
H045;20;Vrouwelijk;Rechts;2;17;right;no;300;rightarrow;472;true;focus;yes;402683;Chrome;112.0;Windows;10;undefined;undefined;1536 x 864;1536 x 864
H045;20;Vrouwelijk;Rechts;2;18;left;yes;300;leftarrow;325;false;focus;yes;403775;Chrome;112.0;Windows;10;undefined;undefined;1536 x 864;1536 x 864
H045;20;Vrouwelijk;Rechts;2;19;right;yes;250;undefined;null;true;focus;yes;405801;Chrome;112.0;Windows;10;undefined;undefined;1536 x 864;1536 x 864
H045;20;Vrouwelijk;Rechts;2;20;right;no;300;rightarrow;478;true;focus;yes;407051;Chrome;112.0;Windows;10;undefined;undefined;1536 x 864;1536 x 864
H045;20;Vrouwelijk;Rechts;2;21;left;no;300;leftarrow;545;true;focus;yes;408367;Chrome;112.0;Windows;10;undefined;undefined;1536 x 864;1536 x 864
H045;20;Vrouwelijk;Rechts;2;22;right;no;300;rightarrow;451;true;focus;yes;409580;Chrome;112.0;Windows;10;undefined;undefined;1536 x 864;1536 x 864
H045;20;Vrouwelijk;Rechts;2;23;left;no;300;leftarrow;497;true;focus;yes;410844;Chrome;112.0;Windows;10;undefined;undefined;1536 x 864;1536 x 864
H045;20;Vrouwelijk;Rechts;2;24;left;no;300;leftarrow;442;true;focus;yes;412056;Chrome;112.0;Windows;10;undefined;undefined;1536 x 864;1536 x 864
H045;20;Vrouwelijk;Rechts;2;25;left;no;300;leftarrow;641;true;focus;yes;413465;Chrome;112.0;Windows;10;undefined;undefined;1536 x 864;1536 x 864
H045;20;Vrouwelijk;Rechts;2;26;right;no;300;rightarrow;495;true;focus;yes;414728;Chrome;112.0;Windows;10;undefined;undefined;1536 x 864;1536 x 864
H045;20;Vrouwelijk;Rechts;2;27;right;yes;300;undefined;null;true;focus;yes;416774;Chrome;112.0;Windows;10;undefined;undefined;1536 x 864;1536 x 864
H045;20;Vrouwelijk;Rechts;2;28;right;no;350;rightarrow;532;true;focus;yes;418077;Chrome;112.0;Windows;10;undefined;undefined;1536 x 864;1536 x 864
H045;20;Vrouwelijk;Rechts;2;29;right;no;350;rightarrow;419;true;focus;yes;419265;Chrome;112.0;Windows;10;undefined;undefined;1536 x 864;1536 x 864
H045;20;Vrouwelijk;Rechts;2;30;left;yes;350;leftarrow;478;false;focus;yes;420514;Chrome;112.0;Windows;10;undefined;undefined;1536 x 864;1536 x 864
H045;20;Vrouwelijk;Rechts;2;31;left;no;300;leftarrow;730;true;focus;yes;422003;Chrome;112.0;Windows;10;undefined;undefined;1536 x 864;1536 x 864
H045;20;Vrouwelijk;Rechts;2;32;left;no;300;leftarrow;521;true;focus;yes;423303;Chrome;112.0;Windows;10;undefined;undefined;1536 x 864;1536 x 864
H045;20;Vrouwelijk;Rechts;2;33;right;no;300;rightarrow;361;true;focus;yes;424430;Chrome;112.0;Windows;10;undefined;undefined;1536 x 864;1536 x 864
H045;20;Vrouwelijk;Rechts;2;34;right;yes;300;rightarrow;321;false;focus;yes;425524;Chrome;112.0;Windows;10;undefined;undefined;1536 x 864;1536 x 864
H045;20;Vrouwelijk;Rechts;2;35;left;no;250;leftarrow;542;true;focus;yes;426826;Chrome;112.0;Windows;10;undefined;undefined;1536 x 864;1536 x 864
H045;20;Vrouwelijk;Rechts;2;36;left;no;250;leftarrow;441;true;focus;yes;428039;Chrome;112.0;Windows;10;undefined;undefined;1536 x 864;1536 x 864
H045;20;Vrouwelijk;Rechts;2;37;left;yes;250;undefined;null;true;focus;yes;430080;Chrome;112.0;Windows;10;undefined;undefined;1536 x 864;1536 x 864
H045;20;Vrouwelijk;Rechts;2;38;left;no;300;leftarrow;343;true;focus;yes;431195;Chrome;112.0;Windows;10;undefined;undefined;1536 x 864;1536 x 864
H045;20;Vrouwelijk;Rechts;2;39;right;no;300;rightarrow;385;true;focus;yes;432339;Chrome;112.0;Windows;10;undefined;undefined;1536 x 864;1536 x 864
H045;20;Vrouwelijk;Rechts;2;40;right;no;300;rightarrow;314;true;focus;yes;433430;Chrome;112.0;Windows;10;undefined;undefined;1536 x 864;1536 x 864
H045;20;Vrouwelijk;Rechts;2;41;right;no;300;rightarrow;463;true;focus;yes;434658;Chrome;112.0;Windows;10;undefined;undefined;1536 x 864;1536 x 864
H045;20;Vrouwelijk;Rechts;2;42;right;no;300;rightarrow;735;true;focus;yes;436161;Chrome;112.0;Windows;10;undefined;undefined;1536 x 864;1536 x 864
H045;20;Vrouwelijk;Rechts;2;43;left;no;300;leftarrow;755;true;focus;yes;437686;Chrome;112.0;Windows;10;undefined;undefined;1536 x 864;1536 x 864
H045;20;Vrouwelijk;Rechts;2;44;right;no;300;rightarrow;567;true;focus;yes;439018;Chrome;112.0;Windows;10;undefined;undefined;1536 x 864;1536 x 864
H045;20;Vrouwelijk;Rechts;2;45;right;yes;300;undefined;null;true;focus;yes;441053;Chrome;112.0;Windows;10;undefined;undefined;1536 x 864;1536 x 864
H045;20;Vrouwelijk;Rechts;2;46;left;no;350;leftarrow;452;true;focus;yes;442288;Chrome;112.0;Windows;10;undefined;undefined;1536 x 864;1536 x 864
H045;20;Vrouwelijk;Rechts;2;47;left;yes;350;leftarrow;444;false;focus;yes;443515;Chrome;112.0;Windows;10;undefined;undefined;1536 x 864;1536 x 864
H045;20;Vrouwelijk;Rechts;2;48;left;no;300;leftarrow;575;true;focus;yes;444855;Chrome;112.0;Windows;10;undefined;undefined;1536 x 864;1536 x 864
H045;20;Vrouwelijk;Rechts;2;49;left;yes;300;undefined;null;true;focus;yes;446898;Chrome;112.0;Windows;10;undefined;undefined;1536 x 864;1536 x 864
H045;20;Vrouwelijk;Rechts;2;50;right;no;350;rightarrow;566;true;focus;yes;448247;Chrome;112.0;Windows;10;undefined;undefined;1536 x 864;1536 x 864
H045;20;Vrouwelijk;Rechts;2;51;right;no;350;rightarrow;352;true;focus;yes;449375;Chrome;112.0;Windows;10;undefined;undefined;1536 x 864;1536 x 864
H045;20;Vrouwelijk;Rechts;2;52;left;no;350;leftarrow;576;true;focus;yes;450718;Chrome;112.0;Windows;10;undefined;undefined;1536 x 864;1536 x 864
H045;20;Vrouwelijk;Rechts;2;53;right;no;350;rightarrow;469;true;focus;yes;451956;Chrome;112.0;Windows;10;undefined;undefined;1536 x 864;1536 x 864
H045;20;Vrouwelijk;Rechts;2;54;left;no;350;leftarrow;589;true;focus;yes;453317;Chrome;112.0;Windows;10;undefined;undefined;1536 x 864;1536 x 864
H045;20;Vrouwelijk;Rechts;2;55;right;yes;350;rightarrow;466;false;focus;yes;454544;Chrome;112.0;Windows;10;undefined;undefined;1536 x 864;1536 x 864
H045;20;Vrouwelijk;Rechts;2;56;left;no;300;leftarrow;566;true;focus;yes;455882;Chrome;112.0;Windows;10;undefined;undefined;1536 x 864;1536 x 864
H045;20;Vrouwelijk;Rechts;2;57;right;no;300;rightarrow;506;true;focus;yes;457155;Chrome;112.0;Windows;10;undefined;undefined;1536 x 864;1536 x 864
H045;20;Vrouwelijk;Rechts;2;58;left;yes;300;undefined;null;true;focus;yes;459170;Chrome;112.0;Windows;10;undefined;undefined;1536 x 864;1536 x 864
H045;20;Vrouwelijk;Rechts;2;59;right;no;350;rightarrow;474;true;focus;yes;460402;Chrome;112.0;Windows;10;undefined;undefined;1536 x 864;1536 x 864
H045;20;Vrouwelijk;Rechts;2;60;left;no;350;leftarrow;481;true;focus;yes;461656;Chrome;112.0;Windows;10;undefined;undefined;1536 x 864;1536 x 864
H045;20;Vrouwelijk;Rechts;2;61;left;no;350;leftarrow;633;true;focus;yes;463056;Chrome;112.0;Windows;10;undefined;undefined;1536 x 864;1536 x 864
H045;20;Vrouwelijk;Rechts;2;62;right;yes;350;rightarrow;370;false;focus;yes;464204;Chrome;112.0;Windows;10;undefined;undefined;1536 x 864;1536 x 864
H045;20;Vrouwelijk;Rechts;2;63;left;no;300;leftarrow;473;true;focus;yes;465459;Chrome;112.0;Windows;10;undefined;undefined;1536 x 864;1536 x 864
H045;20;Vrouwelijk;Rechts;2;64;right;no;300;rightarrow;527;true;focus;yes;466754;Chrome;112.0;Windows;10;undefined;undefined;1536 x 864;1536 x 864
H045;20;Vrouwelijk;Rechts;2;65;right;yes;300;undefined;null;true;focus;yes;468772;Chrome;112.0;Windows;10;undefined;undefined;1536 x 864;1536 x 864
H045;20;Vrouwelijk;Rechts;2;66;left;yes;350;undefined;null;true;focus;yes;470806;Chrome;112.0;Windows;10;undefined;undefined;1536 x 864;1536 x 864
H045;20;Vrouwelijk;Rechts;2;67;left;no;400;leftarrow;490;true;focus;yes;472071;Chrome;112.0;Windows;10;undefined;undefined;1536 x 864;1536 x 864
H045;20;Vrouwelijk;Rechts;2;68;left;no;400;leftarrow;423;true;focus;yes;473269;Chrome;112.0;Windows;10;undefined;undefined;1536 x 864;1536 x 864
H045;20;Vrouwelijk;Rechts;2;69;right;no;400;leftarrow;311;false;focus;yes;474363;Chrome;112.0;Windows;10;undefined;undefined;1536 x 864;1536 x 864
H045;20;Vrouwelijk;Rechts;2;70;right;no;400;rightarrow;685;true;focus;yes;475821;Chrome;112.0;Windows;10;undefined;undefined;1536 x 864;1536 x 864
H045;20;Vrouwelijk;Rechts;2;71;right;no;400;rightarrow;387;true;focus;yes;476979;Chrome;112.0;Windows;10;undefined;undefined;1536 x 864;1536 x 864
H045;20;Vrouwelijk;Rechts;2;72;left;no;400;leftarrow;691;true;focus;yes;478445;Chrome;112.0;Windows;10;undefined;undefined;1536 x 864;1536 x 864
H045;20;Vrouwelijk;Rechts;2;73;left;no;400;leftarrow;426;true;focus;yes;479643;Chrome;112.0;Windows;10;undefined;undefined;1536 x 864;1536 x 864
H045;20;Vrouwelijk;Rechts;2;74;right;no;400;rightarrow;623;true;focus;yes;481025;Chrome;112.0;Windows;10;undefined;undefined;1536 x 864;1536 x 864
H045;20;Vrouwelijk;Rechts;2;75;right;no;400;rightarrow;496;true;focus;yes;482288;Chrome;112.0;Windows;10;undefined;undefined;1536 x 864;1536 x 864
H045;20;Vrouwelijk;Rechts;2;76;right;no;400;rightarrow;608;true;focus;yes;483661;Chrome;112.0;Windows;10;undefined;undefined;1536 x 864;1536 x 864
H045;20;Vrouwelijk;Rechts;2;77;left;yes;400;undefined;null;true;focus;yes;485694;Chrome;112.0;Windows;10;undefined;undefined;1536 x 864;1536 x 864
H045;20;Vrouwelijk;Rechts;2;78;left;no;450;leftarrow;489;true;focus;yes;486960;Chrome;112.0;Windows;10;undefined;undefined;1536 x 864;1536 x 864
H045;20;Vrouwelijk;Rechts;2;79;right;yes;450;rightarrow;578;false;focus;yes;488319;Chrome;112.0;Windows;10;undefined;undefined;1536 x 864;1536 x 864
H045;20;Vrouwelijk;Rechts;2;80;left;no;400;leftarrow;480;true;focus;yes;489571;Chrome;112.0;Windows;10;undefined;undefined;1536 x 864;1536 x 864
H045;20;Vrouwelijk;Rechts;2;81;left;no;400;leftarrow;629;true;focus;yes;490975;Chrome;112.0;Windows;10;undefined;undefined;1536 x 864;1536 x 864
H045;20;Vrouwelijk;Rechts;2;82;right;no;400;rightarrow;476;true;focus;yes;492216;Chrome;112.0;Windows;10;undefined;undefined;1536 x 864;1536 x 864
H045;20;Vrouwelijk;Rechts;2;83;right;no;400;rightarrow;611;true;focus;yes;493606;Chrome;112.0;Windows;10;undefined;undefined;1536 x 864;1536 x 864
H045;20;Vrouwelijk;Rechts;2;84;left;no;400;leftarrow;511;true;focus;yes;494889;Chrome;112.0;Windows;10;undefined;undefined;1536 x 864;1536 x 864
H045;20;Vrouwelijk;Rechts;2;85;left;yes;400;leftarrow;419;false;focus;yes;496080;Chrome;112.0;Windows;10;undefined;undefined;1536 x 864;1536 x 864
H045;20;Vrouwelijk;Rechts;2;86;right;yes;350;rightarrow;484;false;focus;yes;497346;Chrome;112.0;Windows;10;undefined;undefined;1536 x 864;1536 x 864
H045;20;Vrouwelijk;Rechts;2;87;left;no;300;leftarrow;528;true;focus;yes;498655;Chrome;112.0;Windows;10;undefined;undefined;1536 x 864;1536 x 864
H045;20;Vrouwelijk;Rechts;2;88;right;no;300;rightarrow;541;true;focus;yes;499967;Chrome;112.0;Windows;10;undefined;undefined;1536 x 864;1536 x 864
H045;20;Vrouwelijk;Rechts;2;89;left;no;300;leftarrow;611;true;focus;yes;501346;Chrome;112.0;Windows;10;undefined;undefined;1536 x 864;1536 x 864
H045;20;Vrouwelijk;Rechts;2;90;right;no;300;rightarrow;461;true;focus;yes;502588;Chrome;112.0;Windows;10;undefined;undefined;1536 x 864;1536 x 864
H045;20;Vrouwelijk;Rechts;2;91;left;no;300;leftarrow;570;true;focus;yes;503933;Chrome;112.0;Windows;10;undefined;undefined;1536 x 864;1536 x 864
H045;20;Vrouwelijk;Rechts;2;92;right;no;300;rightarrow;617;true;focus;yes;505314;Chrome;112.0;Windows;10;undefined;undefined;1536 x 864;1536 x 864
H045;20;Vrouwelijk;Rechts;2;93;left;yes;300;undefined;null;true;focus;yes;507346;Chrome;112.0;Windows;10;undefined;undefined;1536 x 864;1536 x 864
H045;20;Vrouwelijk;Rechts;2;94;right;yes;350;rightarrow;551;false;focus;yes;508674;Chrome;112.0;Windows;10;undefined;undefined;1536 x 864;1536 x 864
H045;20;Vrouwelijk;Rechts;2;95;right;no;300;rightarrow;521;true;focus;yes;509969;Chrome;112.0;Windows;10;undefined;undefined;1536 x 864;1536 x 864
H045;20;Vrouwelijk;Rechts;2;96;left;no;300;leftarrow;534;true;focus;yes;511285;Chrome;112.0;Windows;10;undefined;undefined;1536 x 864;1536 x 864
H045;20;Vrouwelijk;Rechts;2;97;right;no;300;rightarrow;435;true;focus;yes;512499;Chrome;112.0;Windows;10;undefined;undefined;1536 x 864;1536 x 864
H045;20;Vrouwelijk;Rechts;2;98;left;no;300;leftarrow;516;true;focus;yes;513801;Chrome;112.0;Windows;10;undefined;undefined;1536 x 864;1536 x 864
H045;20;Vrouwelijk;Rechts;2;99;right;yes;300;rightarrow;407;false;focus;yes;514979;Chrome;112.0;Windows;10;undefined;undefined;1536 x 864;1536 x 864
H045;20;Vrouwelijk;Rechts;2;100;right;no;250;rightarrow;524;true;focus;yes;516277;Chrome;112.0;Windows;10;undefined;undefined;1536 x 864;1536 x 864
H045;20;Vrouwelijk;Rechts;2;101;left;yes;250;undefined;null;true;focus;yes;518288;Chrome;112.0;Windows;10;undefined;undefined;1536 x 864;1536 x 864
H045;20;Vrouwelijk;Rechts;2;102;left;no;300;leftarrow;643;true;focus;yes;519700;Chrome;112.0;Windows;10;undefined;undefined;1536 x 864;1536 x 864
H045;20;Vrouwelijk;Rechts;2;103;right;no;300;rightarrow;496;true;focus;yes;520972;Chrome;112.0;Windows;10;undefined;undefined;1536 x 864;1536 x 864
H045;20;Vrouwelijk;Rechts;2;104;left;no;300;leftarrow;816;true;focus;yes;522573;Chrome;112.0;Windows;10;undefined;undefined;1536 x 864;1536 x 864
H045;20;Vrouwelijk;Rechts;2;105;left;no;300;leftarrow;375;true;focus;yes;523715;Chrome;112.0;Windows;10;undefined;undefined;1536 x 864;1536 x 864
H045;20;Vrouwelijk;Rechts;2;106;left;yes;300;undefined;null;true;focus;yes;525734;Chrome;112.0;Windows;10;undefined;undefined;1536 x 864;1536 x 864
H045;20;Vrouwelijk;Rechts;2;107;right;no;350;rightarrow;453;true;focus;yes;526974;Chrome;112.0;Windows;10;undefined;undefined;1536 x 864;1536 x 864
H045;20;Vrouwelijk;Rechts;2;108;left;no;350;leftarrow;559;true;focus;yes;528314;Chrome;112.0;Windows;10;undefined;undefined;1536 x 864;1536 x 864
H045;20;Vrouwelijk;Rechts;2;109;left;no;350;leftarrow;475;true;focus;yes;529562;Chrome;112.0;Windows;10;undefined;undefined;1536 x 864;1536 x 864
H045;20;Vrouwelijk;Rechts;2;110;right;yes;350;rightarrow;418;false;focus;yes;530747;Chrome;112.0;Windows;10;undefined;undefined;1536 x 864;1536 x 864
H045;20;Vrouwelijk;Rechts;2;111;right;no;300;rightarrow;629;true;focus;yes;532158;Chrome;112.0;Windows;10;undefined;undefined;1536 x 864;1536 x 864
H045;20;Vrouwelijk;Rechts;2;112;right;no;300;rightarrow;606;true;focus;yes;533534;Chrome;112.0;Windows;10;undefined;undefined;1536 x 864;1536 x 864
H045;20;Vrouwelijk;Rechts;2;113;right;yes;300;rightarrow;417;false;focus;yes;534727;Chrome;112.0;Windows;10;undefined;undefined;1536 x 864;1536 x 864
H045;20;Vrouwelijk;Rechts;2;114;left;yes;250;undefined;null;true;focus;yes;536746;Chrome;112.0;Windows;10;undefined;undefined;1536 x 864;1536 x 864
H045;20;Vrouwelijk;Rechts;2;115;right;no;300;rightarrow;533;true;focus;yes;538055;Chrome;112.0;Windows;10;undefined;undefined;1536 x 864;1536 x 864
H045;20;Vrouwelijk;Rechts;2;116;right;no;300;rightarrow;655;true;focus;yes;539483;Chrome;112.0;Windows;10;undefined;undefined;1536 x 864;1536 x 864
H045;20;Vrouwelijk;Rechts;2;117;left;no;300;leftarrow;585;true;focus;yes;540851;Chrome;112.0;Windows;10;undefined;undefined;1536 x 864;1536 x 864
H045;20;Vrouwelijk;Rechts;2;118;left;no;300;leftarrow;754;true;focus;yes;542377;Chrome;112.0;Windows;10;undefined;undefined;1536 x 864;1536 x 864
H045;20;Vrouwelijk;Rechts;2;119;left;no;300;leftarrow;438;true;focus;yes;543587;Chrome;112.0;Windows;10;undefined;undefined;1536 x 864;1536 x 864
H045;20;Vrouwelijk;Rechts;2;120;right;no;300;rightarrow;450;true;focus;yes;544820;Chrome;112.0;Windows;10;undefined;undefined;1536 x 864;1536 x 864
H045;20;Vrouwelijk;Rechts;2;121;right;no;300;rightarrow;429;true;focus;yes;546026;Chrome;112.0;Windows;10;undefined;undefined;1536 x 864;1536 x 864
H045;20;Vrouwelijk;Rechts;2;122;right;no;300;rightarrow;461;true;focus;yes;547254;Chrome;112.0;Windows;10;undefined;undefined;1536 x 864;1536 x 864
H045;20;Vrouwelijk;Rechts;2;123;right;no;300;rightarrow;533;true;focus;yes;548554;Chrome;112.0;Windows;10;undefined;undefined;1536 x 864;1536 x 864
H045;20;Vrouwelijk;Rechts;2;124;left;yes;300;undefined;null;true;focus;yes;550590;Chrome;112.0;Windows;10;undefined;undefined;1536 x 864;1536 x 864
H045;20;Vrouwelijk;Rechts;2;125;left;no;350;leftarrow;472;true;focus;yes;551829;Chrome;112.0;Windows;10;undefined;undefined;1536 x 864;1536 x 864
H045;20;Vrouwelijk;Rechts;2;126;right;yes;350;rightarrow;473;false;focus;yes;553074;Chrome;112.0;Windows;10;undefined;undefined;1536 x 864;1536 x 864
H045;20;Vrouwelijk;Rechts;2;127;left;no;300;leftarrow;650;true;focus;yes;554502;Chrome;112.0;Windows;10;undefined;undefined;1536 x 864;1536 x 864
H045;20;Vrouwelijk;Rechts;2;128;left;no;300;leftarrow;510;true;focus;yes;555791;Chrome;112.0;Windows;10;undefined;undefined;1536 x 864;1536 x 864
H045;20;Vrouwelijk;Rechts;3;1;left;no;300;leftarrow;406;true;focus;yes;576885;Chrome;112.0;Windows;10;undefined;undefined;1536 x 864;1536 x 864
H045;20;Vrouwelijk;Rechts;3;2;right;no;300;rightarrow;360;true;focus;yes;578020;Chrome;112.0;Windows;10;undefined;undefined;1536 x 864;1536 x 864
H045;20;Vrouwelijk;Rechts;3;3;right;no;300;rightarrow;346;true;focus;yes;579133;Chrome;112.0;Windows;10;undefined;undefined;1536 x 864;1536 x 864
H045;20;Vrouwelijk;Rechts;3;4;left;no;300;leftarrow;504;true;focus;yes;580424;Chrome;112.0;Windows;10;undefined;undefined;1536 x 864;1536 x 864
H045;20;Vrouwelijk;Rechts;3;5;left;no;300;leftarrow;376;true;focus;yes;581583;Chrome;112.0;Windows;10;undefined;undefined;1536 x 864;1536 x 864
H045;20;Vrouwelijk;Rechts;3;6;right;no;300;rightarrow;423;true;focus;yes;582774;Chrome;112.0;Windows;10;undefined;undefined;1536 x 864;1536 x 864
H045;20;Vrouwelijk;Rechts;3;7;left;yes;300;leftarrow;475;false;focus;yes;584017;Chrome;112.0;Windows;10;undefined;undefined;1536 x 864;1536 x 864
H045;20;Vrouwelijk;Rechts;3;8;right;yes;250;undefined;null;true;focus;yes;586042;Chrome;112.0;Windows;10;undefined;undefined;1536 x 864;1536 x 864
H045;20;Vrouwelijk;Rechts;3;9;right;yes;300;rightarrow;448;false;focus;yes;587261;Chrome;112.0;Windows;10;undefined;undefined;1536 x 864;1536 x 864
H045;20;Vrouwelijk;Rechts;3;10;left;yes;250;undefined;null;true;focus;yes;589279;Chrome;112.0;Windows;10;undefined;undefined;1536 x 864;1536 x 864
H045;20;Vrouwelijk;Rechts;3;11;left;no;300;leftarrow;540;true;focus;yes;590600;Chrome;112.0;Windows;10;undefined;undefined;1536 x 864;1536 x 864
H045;20;Vrouwelijk;Rechts;3;12;right;no;300;rightarrow;312;true;focus;yes;591678;Chrome;112.0;Windows;10;undefined;undefined;1536 x 864;1536 x 864
H045;20;Vrouwelijk;Rechts;3;13;right;no;300;rightarrow;326;true;focus;yes;592776;Chrome;112.0;Windows;10;undefined;undefined;1536 x 864;1536 x 864
H045;20;Vrouwelijk;Rechts;3;14;right;no;300;leftarrow;384;false;focus;yes;593921;Chrome;112.0;Windows;10;undefined;undefined;1536 x 864;1536 x 864
H045;20;Vrouwelijk;Rechts;3;15;left;no;300;leftarrow;511;true;focus;yes;595217;Chrome;112.0;Windows;10;undefined;undefined;1536 x 864;1536 x 864
H045;20;Vrouwelijk;Rechts;3;16;left;no;300;leftarrow;434;true;focus;yes;596424;Chrome;112.0;Windows;10;undefined;undefined;1536 x 864;1536 x 864
H045;20;Vrouwelijk;Rechts;3;17;right;yes;300;rightarrow;361;false;focus;yes;597562;Chrome;112.0;Windows;10;undefined;undefined;1536 x 864;1536 x 864
H045;20;Vrouwelijk;Rechts;3;18;right;no;250;rightarrow;468;true;focus;yes;598804;Chrome;112.0;Windows;10;undefined;undefined;1536 x 864;1536 x 864
H045;20;Vrouwelijk;Rechts;3;19;left;no;250;leftarrow;602;true;focus;yes;600175;Chrome;112.0;Windows;10;undefined;undefined;1536 x 864;1536 x 864
H045;20;Vrouwelijk;Rechts;3;20;right;no;250;rightarrow;440;true;focus;yes;601382;Chrome;112.0;Windows;10;undefined;undefined;1536 x 864;1536 x 864
H045;20;Vrouwelijk;Rechts;3;21;left;yes;250;leftarrow;327;false;focus;yes;602473;Chrome;112.0;Windows;10;undefined;undefined;1536 x 864;1536 x 864
H045;20;Vrouwelijk;Rechts;3;22;left;no;200;leftarrow;586;true;focus;yes;603829;Chrome;112.0;Windows;10;undefined;undefined;1536 x 864;1536 x 864
H045;20;Vrouwelijk;Rechts;3;23;right;no;200;rightarrow;481;true;focus;yes;605077;Chrome;112.0;Windows;10;undefined;undefined;1536 x 864;1536 x 864
H045;20;Vrouwelijk;Rechts;3;24;left;no;200;leftarrow;412;true;focus;yes;606260;Chrome;112.0;Windows;10;undefined;undefined;1536 x 864;1536 x 864
H045;20;Vrouwelijk;Rechts;3;25;left;yes;200;undefined;null;true;focus;yes;608287;Chrome;112.0;Windows;10;undefined;undefined;1536 x 864;1536 x 864
H045;20;Vrouwelijk;Rechts;3;26;right;yes;250;rightarrow;365;false;focus;yes;609422;Chrome;112.0;Windows;10;undefined;undefined;1536 x 864;1536 x 864
H045;20;Vrouwelijk;Rechts;3;27;left;no;200;leftarrow;437;true;focus;yes;610635;Chrome;112.0;Windows;10;undefined;undefined;1536 x 864;1536 x 864
H045;20;Vrouwelijk;Rechts;3;28;left;no;200;leftarrow;546;true;focus;yes;611948;Chrome;112.0;Windows;10;undefined;undefined;1536 x 864;1536 x 864
H045;20;Vrouwelijk;Rechts;3;29;right;no;200;rightarrow;429;true;focus;yes;613141;Chrome;112.0;Windows;10;undefined;undefined;1536 x 864;1536 x 864
H045;20;Vrouwelijk;Rechts;3;30;right;no;200;rightarrow;373;true;focus;yes;614288;Chrome;112.0;Windows;10;undefined;undefined;1536 x 864;1536 x 864
H045;20;Vrouwelijk;Rechts;3;31;right;no;200;rightarrow;339;true;focus;yes;615400;Chrome;112.0;Windows;10;undefined;undefined;1536 x 864;1536 x 864
H045;20;Vrouwelijk;Rechts;3;32;left;no;200;leftarrow;381;true;focus;yes;616548;Chrome;112.0;Windows;10;undefined;undefined;1536 x 864;1536 x 864
H045;20;Vrouwelijk;Rechts;3;33;right;no;200;rightarrow;363;true;focus;yes;617695;Chrome;112.0;Windows;10;undefined;undefined;1536 x 864;1536 x 864
H045;20;Vrouwelijk;Rechts;3;34;right;yes;200;rightarrow;361;false;focus;yes;618824;Chrome;112.0;Windows;10;undefined;undefined;1536 x 864;1536 x 864
H045;20;Vrouwelijk;Rechts;3;35;left;no;150;leftarrow;348;true;focus;yes;619930;Chrome;112.0;Windows;10;undefined;undefined;1536 x 864;1536 x 864
H045;20;Vrouwelijk;Rechts;3;36;right;no;150;rightarrow;423;true;focus;yes;621135;Chrome;112.0;Windows;10;undefined;undefined;1536 x 864;1536 x 864
H045;20;Vrouwelijk;Rechts;3;37;left;yes;150;undefined;null;true;focus;yes;623156;Chrome;112.0;Windows;10;undefined;undefined;1536 x 864;1536 x 864
H045;20;Vrouwelijk;Rechts;3;38;left;no;200;leftarrow;591;true;focus;yes;624532;Chrome;112.0;Windows;10;undefined;undefined;1536 x 864;1536 x 864
H045;20;Vrouwelijk;Rechts;3;39;right;no;200;rightarrow;343;true;focus;yes;625656;Chrome;112.0;Windows;10;undefined;undefined;1536 x 864;1536 x 864
H045;20;Vrouwelijk;Rechts;3;40;left;no;200;leftarrow;319;true;focus;yes;626759;Chrome;112.0;Windows;10;undefined;undefined;1536 x 864;1536 x 864
H045;20;Vrouwelijk;Rechts;3;41;right;no;200;rightarrow;378;true;focus;yes;627904;Chrome;112.0;Windows;10;undefined;undefined;1536 x 864;1536 x 864
H045;20;Vrouwelijk;Rechts;3;42;left;no;200;leftarrow;282;true;focus;yes;628953;Chrome;112.0;Windows;10;undefined;undefined;1536 x 864;1536 x 864
H045;20;Vrouwelijk;Rechts;3;43;right;no;200;rightarrow;335;true;focus;yes;630066;Chrome;112.0;Windows;10;undefined;undefined;1536 x 864;1536 x 864
H045;20;Vrouwelijk;Rechts;3;44;left;no;200;leftarrow;315;true;focus;yes;631164;Chrome;112.0;Windows;10;undefined;undefined;1536 x 864;1536 x 864
H045;20;Vrouwelijk;Rechts;3;45;right;yes;200;rightarrow;291;false;focus;yes;632221;Chrome;112.0;Windows;10;undefined;undefined;1536 x 864;1536 x 864
H045;20;Vrouwelijk;Rechts;3;46;left;no;150;leftarrow;510;true;focus;yes;633503;Chrome;112.0;Windows;10;undefined;undefined;1536 x 864;1536 x 864
H045;20;Vrouwelijk;Rechts;3;47;left;yes;150;undefined;null;true;focus;yes;635528;Chrome;112.0;Windows;10;undefined;undefined;1536 x 864;1536 x 864
H045;20;Vrouwelijk;Rechts;3;48;right;no;200;rightarrow;381;true;focus;yes;636683;Chrome;112.0;Windows;10;undefined;undefined;1536 x 864;1536 x 864
H045;20;Vrouwelijk;Rechts;3;49;left;yes;200;leftarrow;340;false;focus;yes;637791;Chrome;112.0;Windows;10;undefined;undefined;1536 x 864;1536 x 864
H045;20;Vrouwelijk;Rechts;3;50;right;no;150;rightarrow;441;true;focus;yes;639016;Chrome;112.0;Windows;10;undefined;undefined;1536 x 864;1536 x 864
H045;20;Vrouwelijk;Rechts;3;51;left;no;150;leftarrow;556;true;focus;yes;640341;Chrome;112.0;Windows;10;undefined;undefined;1536 x 864;1536 x 864
H045;20;Vrouwelijk;Rechts;3;52;left;no;150;leftarrow;314;true;focus;yes;641422;Chrome;112.0;Windows;10;undefined;undefined;1536 x 864;1536 x 864
H045;20;Vrouwelijk;Rechts;3;53;right;no;150;rightarrow;537;true;focus;yes;642742;Chrome;112.0;Windows;10;undefined;undefined;1536 x 864;1536 x 864
H045;20;Vrouwelijk;Rechts;3;54;left;no;150;leftarrow;475;true;focus;yes;643993;Chrome;112.0;Windows;10;undefined;undefined;1536 x 864;1536 x 864
H045;20;Vrouwelijk;Rechts;3;55;right;no;150;rightarrow;443;true;focus;yes;645203;Chrome;112.0;Windows;10;undefined;undefined;1536 x 864;1536 x 864
H045;20;Vrouwelijk;Rechts;3;56;right;yes;150;rightarrow;444;false;focus;yes;646426;Chrome;112.0;Windows;10;undefined;undefined;1536 x 864;1536 x 864
H045;20;Vrouwelijk;Rechts;3;57;right;no;100;rightarrow;561;true;focus;yes;647755;Chrome;112.0;Windows;10;undefined;undefined;1536 x 864;1536 x 864
H045;20;Vrouwelijk;Rechts;3;58;left;no;100;leftarrow;513;true;focus;yes;649043;Chrome;112.0;Windows;10;undefined;undefined;1536 x 864;1536 x 864
H045;20;Vrouwelijk;Rechts;3;59;right;no;100;rightarrow;433;true;focus;yes;650246;Chrome;112.0;Windows;10;undefined;undefined;1536 x 864;1536 x 864
H045;20;Vrouwelijk;Rechts;3;60;left;no;100;leftarrow;337;true;focus;yes;651354;Chrome;112.0;Windows;10;undefined;undefined;1536 x 864;1536 x 864
H045;20;Vrouwelijk;Rechts;3;61;left;yes;100;undefined;null;true;focus;yes;653387;Chrome;112.0;Windows;10;undefined;undefined;1536 x 864;1536 x 864
H045;20;Vrouwelijk;Rechts;3;62;right;no;150;rightarrow;591;true;focus;yes;654759;Chrome;112.0;Windows;10;undefined;undefined;1536 x 864;1536 x 864
H045;20;Vrouwelijk;Rechts;3;63;left;no;150;leftarrow;372;true;focus;yes;655904;Chrome;112.0;Windows;10;undefined;undefined;1536 x 864;1536 x 864
H045;20;Vrouwelijk;Rechts;3;64;right;yes;150;rightarrow;373;false;focus;yes;657047;Chrome;112.0;Windows;10;undefined;undefined;1536 x 864;1536 x 864
H045;20;Vrouwelijk;Rechts;3;65;right;no;100;rightarrow;593;true;focus;yes;658418;Chrome;112.0;Windows;10;undefined;undefined;1536 x 864;1536 x 864
H045;20;Vrouwelijk;Rechts;3;66;right;no;100;rightarrow;430;true;focus;yes;659624;Chrome;112.0;Windows;10;undefined;undefined;1536 x 864;1536 x 864
H045;20;Vrouwelijk;Rechts;3;67;left;no;100;leftarrow;370;true;focus;yes;660765;Chrome;112.0;Windows;10;undefined;undefined;1536 x 864;1536 x 864
H045;20;Vrouwelijk;Rechts;3;68;right;yes;100;undefined;null;true;focus;yes;662792;Chrome;112.0;Windows;10;undefined;undefined;1536 x 864;1536 x 864
H045;20;Vrouwelijk;Rechts;3;69;left;yes;150;undefined;null;true;focus;yes;664838;Chrome;112.0;Windows;10;undefined;undefined;1536 x 864;1536 x 864
H045;20;Vrouwelijk;Rechts;3;70;left;no;200;leftarrow;435;true;focus;yes;666043;Chrome;112.0;Windows;10;undefined;undefined;1536 x 864;1536 x 864
H045;20;Vrouwelijk;Rechts;3;71;right;no;200;rightarrow;380;true;focus;yes;667191;Chrome;112.0;Windows;10;undefined;undefined;1536 x 864;1536 x 864
H045;20;Vrouwelijk;Rechts;3;72;left;no;200;leftarrow;393;true;focus;yes;668354;Chrome;112.0;Windows;10;undefined;undefined;1536 x 864;1536 x 864
H045;20;Vrouwelijk;Rechts;3;73;right;no;200;rightarrow;415;true;focus;yes;669537;Chrome;112.0;Windows;10;undefined;undefined;1536 x 864;1536 x 864
H045;20;Vrouwelijk;Rechts;3;74;right;no;200;rightarrow;444;true;focus;yes;670750;Chrome;112.0;Windows;10;undefined;undefined;1536 x 864;1536 x 864
H045;20;Vrouwelijk;Rechts;3;75;left;yes;200;leftarrow;326;false;focus;yes;671847;Chrome;112.0;Windows;10;undefined;undefined;1536 x 864;1536 x 864
H045;20;Vrouwelijk;Rechts;3;76;left;no;150;leftarrow;404;true;focus;yes;673025;Chrome;112.0;Windows;10;undefined;undefined;1536 x 864;1536 x 864
H045;20;Vrouwelijk;Rechts;3;77;right;yes;150;undefined;null;true;focus;yes;675045;Chrome;112.0;Windows;10;undefined;undefined;1536 x 864;1536 x 864
H045;20;Vrouwelijk;Rechts;3;78;right;no;200;rightarrow;414;true;focus;yes;676245;Chrome;112.0;Windows;10;undefined;undefined;1536 x 864;1536 x 864
H045;20;Vrouwelijk;Rechts;3;79;left;no;200;leftarrow;499;true;focus;yes;677505;Chrome;112.0;Windows;10;undefined;undefined;1536 x 864;1536 x 864
H045;20;Vrouwelijk;Rechts;3;80;left;no;200;leftarrow;324;true;focus;yes;678598;Chrome;112.0;Windows;10;undefined;undefined;1536 x 864;1536 x 864
H045;20;Vrouwelijk;Rechts;3;81;right;yes;200;rightarrow;486;false;focus;yes;679855;Chrome;112.0;Windows;10;undefined;undefined;1536 x 864;1536 x 864
H045;20;Vrouwelijk;Rechts;3;82;left;yes;150;undefined;null;true;focus;yes;681884;Chrome;112.0;Windows;10;undefined;undefined;1536 x 864;1536 x 864
H045;20;Vrouwelijk;Rechts;3;83;left;no;200;leftarrow;497;true;focus;yes;683158;Chrome;112.0;Windows;10;undefined;undefined;1536 x 864;1536 x 864
H045;20;Vrouwelijk;Rechts;3;84;left;no;200;leftarrow;344;true;focus;yes;684282;Chrome;112.0;Windows;10;undefined;undefined;1536 x 864;1536 x 864
H045;20;Vrouwelijk;Rechts;3;85;right;no;200;rightarrow;452;true;focus;yes;685495;Chrome;112.0;Windows;10;undefined;undefined;1536 x 864;1536 x 864
H045;20;Vrouwelijk;Rechts;3;86;left;no;200;leftarrow;370;true;focus;yes;686633;Chrome;112.0;Windows;10;undefined;undefined;1536 x 864;1536 x 864
H045;20;Vrouwelijk;Rechts;3;87;right;no;200;rightarrow;275;true;focus;yes;687681;Chrome;112.0;Windows;10;undefined;undefined;1536 x 864;1536 x 864
H045;20;Vrouwelijk;Rechts;3;88;right;no;200;rightarrow;390;true;focus;yes;688835;Chrome;112.0;Windows;10;undefined;undefined;1536 x 864;1536 x 864
H045;20;Vrouwelijk;Rechts;3;89;left;yes;200;undefined;null;true;focus;yes;690880;Chrome;112.0;Windows;10;undefined;undefined;1536 x 864;1536 x 864
H045;20;Vrouwelijk;Rechts;3;90;left;no;250;leftarrow;468;true;focus;yes;692129;Chrome;112.0;Windows;10;undefined;undefined;1536 x 864;1536 x 864
H045;20;Vrouwelijk;Rechts;3;91;right;yes;250;undefined;null;true;focus;yes;694176;Chrome;112.0;Windows;10;undefined;undefined;1536 x 864;1536 x 864
H045;20;Vrouwelijk;Rechts;3;92;right;no;300;rightarrow;497;true;focus;yes;695456;Chrome;112.0;Windows;10;undefined;undefined;1536 x 864;1536 x 864
H045;20;Vrouwelijk;Rechts;3;93;left;no;300;leftarrow;381;true;focus;yes;696604;Chrome;112.0;Windows;10;undefined;undefined;1536 x 864;1536 x 864
H045;20;Vrouwelijk;Rechts;3;94;right;no;300;rightarrow;388;true;focus;yes;697761;Chrome;112.0;Windows;10;undefined;undefined;1536 x 864;1536 x 864
H045;20;Vrouwelijk;Rechts;3;95;left;no;300;leftarrow;507;true;focus;yes;699036;Chrome;112.0;Windows;10;undefined;undefined;1536 x 864;1536 x 864
H045;20;Vrouwelijk;Rechts;3;96;right;no;300;rightarrow;448;true;focus;yes;700260;Chrome;112.0;Windows;10;undefined;undefined;1536 x 864;1536 x 864
H045;20;Vrouwelijk;Rechts;3;97;left;yes;300;leftarrow;478;false;focus;yes;701508;Chrome;112.0;Windows;10;undefined;undefined;1536 x 864;1536 x 864
H045;20;Vrouwelijk;Rechts;3;98;left;no;250;leftarrow;537;true;focus;yes;702823;Chrome;112.0;Windows;10;undefined;undefined;1536 x 864;1536 x 864
H045;20;Vrouwelijk;Rechts;3;99;right;yes;250;undefined;null;true;focus;yes;704856;Chrome;112.0;Windows;10;undefined;undefined;1536 x 864;1536 x 864
H045;20;Vrouwelijk;Rechts;3;100;right;no;300;rightarrow;1015;true;focus;yes;706640;Chrome;112.0;Windows;10;undefined;undefined;1536 x 864;1536 x 864
H045;20;Vrouwelijk;Rechts;3;101;left;no;300;leftarrow;329;true;focus;yes;707741;Chrome;112.0;Windows;10;undefined;undefined;1536 x 864;1536 x 864
H045;20;Vrouwelijk;Rechts;3;102;left;no;300;leftarrow;417;true;focus;yes;708940;Chrome;112.0;Windows;10;undefined;undefined;1536 x 864;1536 x 864
H045;20;Vrouwelijk;Rechts;3;103;right;no;300;rightarrow;388;true;focus;yes;710096;Chrome;112.0;Windows;10;undefined;undefined;1536 x 864;1536 x 864
H045;20;Vrouwelijk;Rechts;3;104;right;no;300;rightarrow;439;true;focus;yes;711308;Chrome;112.0;Windows;10;undefined;undefined;1536 x 864;1536 x 864
H045;20;Vrouwelijk;Rechts;3;105;right;no;300;rightarrow;366;true;focus;yes;712456;Chrome;112.0;Windows;10;undefined;undefined;1536 x 864;1536 x 864
H045;20;Vrouwelijk;Rechts;3;106;right;no;300;rightarrow;525;true;focus;yes;713758;Chrome;112.0;Windows;10;undefined;undefined;1536 x 864;1536 x 864
H045;20;Vrouwelijk;Rechts;3;107;left;no;300;leftarrow;588;true;focus;yes;715112;Chrome;112.0;Windows;10;undefined;undefined;1536 x 864;1536 x 864
H045;20;Vrouwelijk;Rechts;3;108;left;no;300;leftarrow;500;true;focus;yes;716383;Chrome;112.0;Windows;10;undefined;undefined;1536 x 864;1536 x 864
H045;20;Vrouwelijk;Rechts;3;109;left;no;300;leftarrow;353;true;focus;yes;717498;Chrome;112.0;Windows;10;undefined;undefined;1536 x 864;1536 x 864
H045;20;Vrouwelijk;Rechts;3;110;right;no;300;rightarrow;365;true;focus;yes;718630;Chrome;112.0;Windows;10;undefined;undefined;1536 x 864;1536 x 864
H045;20;Vrouwelijk;Rechts;3;111;left;yes;300;undefined;null;true;focus;yes;720654;Chrome;112.0;Windows;10;undefined;undefined;1536 x 864;1536 x 864
H045;20;Vrouwelijk;Rechts;3;112;right;yes;350;rightarrow;421;false;focus;yes;721850;Chrome;112.0;Windows;10;undefined;undefined;1536 x 864;1536 x 864
H045;20;Vrouwelijk;Rechts;3;113;right;no;300;rightarrow;347;true;focus;yes;722976;Chrome;112.0;Windows;10;undefined;undefined;1536 x 864;1536 x 864
H045;20;Vrouwelijk;Rechts;3;114;right;yes;300;rightarrow;275;false;focus;yes;724019;Chrome;112.0;Windows;10;undefined;undefined;1536 x 864;1536 x 864
H045;20;Vrouwelijk;Rechts;3;115;left;no;250;leftarrow;364;true;focus;yes;725142;Chrome;112.0;Windows;10;undefined;undefined;1536 x 864;1536 x 864
H045;20;Vrouwelijk;Rechts;3;116;right;no;250;rightarrow;380;true;focus;yes;726292;Chrome;112.0;Windows;10;undefined;undefined;1536 x 864;1536 x 864
H045;20;Vrouwelijk;Rechts;3;117;right;no;250;rightarrow;447;true;focus;yes;727502;Chrome;112.0;Windows;10;undefined;undefined;1536 x 864;1536 x 864
H045;20;Vrouwelijk;Rechts;3;118;left;no;250;leftarrow;384;true;focus;yes;728668;Chrome;112.0;Windows;10;undefined;undefined;1536 x 864;1536 x 864
H045;20;Vrouwelijk;Rechts;3;119;left;yes;250;leftarrow;400;false;focus;yes;729851;Chrome;112.0;Windows;10;undefined;undefined;1536 x 864;1536 x 864
H045;20;Vrouwelijk;Rechts;3;120;left;no;200;leftarrow;628;true;focus;yes;731244;Chrome;112.0;Windows;10;undefined;undefined;1536 x 864;1536 x 864
H045;20;Vrouwelijk;Rechts;3;121;right;no;200;rightarrow;378;true;focus;yes;732398;Chrome;112.0;Windows;10;undefined;undefined;1536 x 864;1536 x 864
H045;20;Vrouwelijk;Rechts;3;122;left;no;200;leftarrow;519;true;focus;yes;733692;Chrome;112.0;Windows;10;undefined;undefined;1536 x 864;1536 x 864
H045;20;Vrouwelijk;Rechts;3;123;left;no;200;leftarrow;355;true;focus;yes;734831;Chrome;112.0;Windows;10;undefined;undefined;1536 x 864;1536 x 864
H045;20;Vrouwelijk;Rechts;3;124;left;no;200;leftarrow;433;true;focus;yes;736032;Chrome;112.0;Windows;10;undefined;undefined;1536 x 864;1536 x 864
H045;20;Vrouwelijk;Rechts;3;125;right;no;200;rightarrow;520;true;focus;yes;737320;Chrome;112.0;Windows;10;undefined;undefined;1536 x 864;1536 x 864
H045;20;Vrouwelijk;Rechts;3;126;right;yes;200;rightarrow;344;false;focus;yes;738447;Chrome;112.0;Windows;10;undefined;undefined;1536 x 864;1536 x 864
H045;20;Vrouwelijk;Rechts;3;127;left;yes;150;undefined;null;true;focus;yes;740472;Chrome;112.0;Windows;10;undefined;undefined;1536 x 864;1536 x 864
H045;20;Vrouwelijk;Rechts;3;128;right;no;200;rightarrow;556;true;focus;yes;741795;Chrome;112.0;Windows;10;undefined;undefined;1536 x 864;1536 x 864
H045;20;Vrouwelijk;Rechts;4;1;right;yes;200;rightarrow;435;false;focus;yes;762115;Chrome;112.0;Windows;10;undefined;undefined;1536 x 864;1536 x 864
H045;20;Vrouwelijk;Rechts;4;2;right;no;150;rightarrow;413;true;focus;yes;763307;Chrome;112.0;Windows;10;undefined;undefined;1536 x 864;1536 x 864
H045;20;Vrouwelijk;Rechts;4;3;left;no;150;leftarrow;407;true;focus;yes;764481;Chrome;112.0;Windows;10;undefined;undefined;1536 x 864;1536 x 864
H045;20;Vrouwelijk;Rechts;4;4;left;no;150;leftarrow;368;true;focus;yes;765619;Chrome;112.0;Windows;10;undefined;undefined;1536 x 864;1536 x 864
H045;20;Vrouwelijk;Rechts;4;5;left;yes;150;leftarrow;357;false;focus;yes;766739;Chrome;112.0;Windows;10;undefined;undefined;1536 x 864;1536 x 864
H045;20;Vrouwelijk;Rechts;4;6;right;no;100;rightarrow;471;true;focus;yes;767993;Chrome;112.0;Windows;10;undefined;undefined;1536 x 864;1536 x 864
H045;20;Vrouwelijk;Rechts;4;7;right;no;100;rightarrow;438;true;focus;yes;769211;Chrome;112.0;Windows;10;undefined;undefined;1536 x 864;1536 x 864
H045;20;Vrouwelijk;Rechts;4;8;left;no;100;leftarrow;613;true;focus;yes;770594;Chrome;112.0;Windows;10;undefined;undefined;1536 x 864;1536 x 864
H045;20;Vrouwelijk;Rechts;4;9;right;no;100;rightarrow;436;true;focus;yes;771802;Chrome;112.0;Windows;10;undefined;undefined;1536 x 864;1536 x 864
H045;20;Vrouwelijk;Rechts;4;10;left;no;100;leftarrow;415;true;focus;yes;772987;Chrome;112.0;Windows;10;undefined;undefined;1536 x 864;1536 x 864
H045;20;Vrouwelijk;Rechts;4;11;right;no;100;rightarrow;446;true;focus;yes;774204;Chrome;112.0;Windows;10;undefined;undefined;1536 x 864;1536 x 864
H045;20;Vrouwelijk;Rechts;4;12;left;no;100;leftarrow;432;true;focus;yes;775410;Chrome;112.0;Windows;10;undefined;undefined;1536 x 864;1536 x 864
H045;20;Vrouwelijk;Rechts;4;13;left;yes;100;undefined;null;true;focus;yes;777433;Chrome;112.0;Windows;10;undefined;undefined;1536 x 864;1536 x 864
H045;20;Vrouwelijk;Rechts;4;14;right;no;150;rightarrow;476;true;focus;yes;778689;Chrome;112.0;Windows;10;undefined;undefined;1536 x 864;1536 x 864
H045;20;Vrouwelijk;Rechts;4;15;left;no;150;leftarrow;374;true;focus;yes;779831;Chrome;112.0;Windows;10;undefined;undefined;1536 x 864;1536 x 864
H045;20;Vrouwelijk;Rechts;4;16;right;yes;150;undefined;null;true;focus;yes;781862;Chrome;112.0;Windows;10;undefined;undefined;1536 x 864;1536 x 864
H045;20;Vrouwelijk;Rechts;4;17;left;no;200;leftarrow;428;true;focus;yes;783057;Chrome;112.0;Windows;10;undefined;undefined;1536 x 864;1536 x 864
H045;20;Vrouwelijk;Rechts;4;18;left;yes;200;leftarrow;424;false;focus;yes;784243;Chrome;112.0;Windows;10;undefined;undefined;1536 x 864;1536 x 864
H045;20;Vrouwelijk;Rechts;4;19;right;no;150;rightarrow;448;true;focus;yes;785709;Chrome;112.0;Windows;10;undefined;undefined;1536 x 864;1536 x 864
H045;20;Vrouwelijk;Rechts;4;20;right;yes;150;undefined;null;true;focus;yes;787739;Chrome;112.0;Windows;10;undefined;undefined;1536 x 864;1536 x 864
H045;20;Vrouwelijk;Rechts;4;21;left;no;200;leftarrow;427;true;focus;yes;788954;Chrome;112.0;Windows;10;undefined;undefined;1536 x 864;1536 x 864
H045;20;Vrouwelijk;Rechts;4;22;left;no;200;leftarrow;582;true;focus;yes;790315;Chrome;112.0;Windows;10;undefined;undefined;1536 x 864;1536 x 864
H045;20;Vrouwelijk;Rechts;4;23;right;no;200;rightarrow;539;true;focus;yes;791627;Chrome;112.0;Windows;10;undefined;undefined;1536 x 864;1536 x 864
H045;20;Vrouwelijk;Rechts;4;24;right;no;200;rightarrow;390;true;focus;yes;792785;Chrome;112.0;Windows;10;undefined;undefined;1536 x 864;1536 x 864
H045;20;Vrouwelijk;Rechts;4;25;right;no;200;rightarrow;347;true;focus;yes;793902;Chrome;112.0;Windows;10;undefined;undefined;1536 x 864;1536 x 864
H045;20;Vrouwelijk;Rechts;4;26;right;no;200;rightarrow;349;true;focus;yes;795025;Chrome;112.0;Windows;10;undefined;undefined;1536 x 864;1536 x 864
H045;20;Vrouwelijk;Rechts;4;27;left;no;200;leftarrow;436;true;focus;yes;796227;Chrome;112.0;Windows;10;undefined;undefined;1536 x 864;1536 x 864
H045;20;Vrouwelijk;Rechts;4;28;left;yes;200;leftarrow;356;false;focus;yes;797361;Chrome;112.0;Windows;10;undefined;undefined;1536 x 864;1536 x 864
H045;20;Vrouwelijk;Rechts;4;29;left;no;150;leftarrow;436;true;focus;yes;798579;Chrome;112.0;Windows;10;undefined;undefined;1536 x 864;1536 x 864
H045;20;Vrouwelijk;Rechts;4;30;left;no;150;leftarrow;386;true;focus;yes;799742;Chrome;112.0;Windows;10;undefined;undefined;1536 x 864;1536 x 864
H045;20;Vrouwelijk;Rechts;4;31;right;yes;150;undefined;null;true;focus;yes;801771;Chrome;112.0;Windows;10;undefined;undefined;1536 x 864;1536 x 864
H045;20;Vrouwelijk;Rechts;4;32;right;no;200;rightarrow;351;true;focus;yes;802887;Chrome;112.0;Windows;10;undefined;undefined;1536 x 864;1536 x 864
H045;20;Vrouwelijk;Rechts;4;33;left;no;200;leftarrow;388;true;focus;yes;804043;Chrome;112.0;Windows;10;undefined;undefined;1536 x 864;1536 x 864
H045;20;Vrouwelijk;Rechts;4;34;right;no;200;rightarrow;465;true;focus;yes;805285;Chrome;112.0;Windows;10;undefined;undefined;1536 x 864;1536 x 864
H045;20;Vrouwelijk;Rechts;4;35;right;yes;200;rightarrow;366;false;focus;yes;806423;Chrome;112.0;Windows;10;undefined;undefined;1536 x 864;1536 x 864
H045;20;Vrouwelijk;Rechts;4;36;right;no;150;rightarrow;436;true;focus;yes;807629;Chrome;112.0;Windows;10;undefined;undefined;1536 x 864;1536 x 864
H045;20;Vrouwelijk;Rechts;4;37;left;yes;150;rightarrow;293;false;focus;yes;808689;Chrome;112.0;Windows;10;undefined;undefined;1536 x 864;1536 x 864
H045;20;Vrouwelijk;Rechts;4;38;right;no;100;rightarrow;545;true;focus;yes;810003;Chrome;112.0;Windows;10;undefined;undefined;1536 x 864;1536 x 864
H045;20;Vrouwelijk;Rechts;4;39;left;no;100;leftarrow;392;true;focus;yes;811159;Chrome;112.0;Windows;10;undefined;undefined;1536 x 864;1536 x 864
H045;20;Vrouwelijk;Rechts;4;40;left;no;100;leftarrow;509;true;focus;yes;812431;Chrome;112.0;Windows;10;undefined;undefined;1536 x 864;1536 x 864
H045;20;Vrouwelijk;Rechts;4;41;left;no;100;leftarrow;423;true;focus;yes;813631;Chrome;112.0;Windows;10;undefined;undefined;1536 x 864;1536 x 864
H045;20;Vrouwelijk;Rechts;4;42;right;no;100;rightarrow;437;true;focus;yes;814844;Chrome;112.0;Windows;10;undefined;undefined;1536 x 864;1536 x 864
H045;20;Vrouwelijk;Rechts;4;43;left;yes;100;undefined;null;true;focus;yes;816882;Chrome;112.0;Windows;10;undefined;undefined;1536 x 864;1536 x 864
H045;20;Vrouwelijk;Rechts;4;44;right;yes;150;undefined;null;true;focus;yes;818902;Chrome;112.0;Windows;10;undefined;undefined;1536 x 864;1536 x 864
H045;20;Vrouwelijk;Rechts;4;45;right;no;200;rightarrow;459;true;focus;yes;820126;Chrome;112.0;Windows;10;undefined;undefined;1536 x 864;1536 x 864
H045;20;Vrouwelijk;Rechts;4;46;left;no;200;leftarrow;485;true;focus;yes;821379;Chrome;112.0;Windows;10;undefined;undefined;1536 x 864;1536 x 864
H045;20;Vrouwelijk;Rechts;4;47;left;no;200;leftarrow;425;true;focus;yes;822572;Chrome;112.0;Windows;10;undefined;undefined;1536 x 864;1536 x 864
H045;20;Vrouwelijk;Rechts;4;48;right;no;200;rightarrow;497;true;focus;yes;823850;Chrome;112.0;Windows;10;undefined;undefined;1536 x 864;1536 x 864
H045;20;Vrouwelijk;Rechts;4;49;left;no;200;leftarrow;560;true;focus;yes;825179;Chrome;112.0;Windows;10;undefined;undefined;1536 x 864;1536 x 864
H045;20;Vrouwelijk;Rechts;4;50;right;no;200;rightarrow;478;true;focus;yes;826436;Chrome;112.0;Windows;10;undefined;undefined;1536 x 864;1536 x 864
H045;20;Vrouwelijk;Rechts;4;51;left;no;200;leftarrow;524;true;focus;yes;827740;Chrome;112.0;Windows;10;undefined;undefined;1536 x 864;1536 x 864
H045;20;Vrouwelijk;Rechts;4;52;right;no;200;rightarrow;675;true;focus;yes;829188;Chrome;112.0;Windows;10;undefined;undefined;1536 x 864;1536 x 864
H045;20;Vrouwelijk;Rechts;4;53;left;yes;200;undefined;null;true;focus;yes;831218;Chrome;112.0;Windows;10;undefined;undefined;1536 x 864;1536 x 864
H045;20;Vrouwelijk;Rechts;4;54;left;no;250;leftarrow;497;true;focus;yes;832479;Chrome;112.0;Windows;10;undefined;undefined;1536 x 864;1536 x 864
H045;20;Vrouwelijk;Rechts;4;55;right;yes;250;undefined;null;true;focus;yes;834521;Chrome;112.0;Windows;10;undefined;undefined;1536 x 864;1536 x 864
H045;20;Vrouwelijk;Rechts;4;56;right;no;300;rightarrow;412;true;focus;yes;835711;Chrome;112.0;Windows;10;undefined;undefined;1536 x 864;1536 x 864
H045;20;Vrouwelijk;Rechts;4;57;right;no;300;rightarrow;388;true;focus;yes;836866;Chrome;112.0;Windows;10;undefined;undefined;1536 x 864;1536 x 864
H045;20;Vrouwelijk;Rechts;4;58;right;yes;300;rightarrow;334;false;focus;yes;837970;Chrome;112.0;Windows;10;undefined;undefined;1536 x 864;1536 x 864
H045;20;Vrouwelijk;Rechts;4;59;right;no;250;rightarrow;812;true;focus;yes;839549;Chrome;112.0;Windows;10;undefined;undefined;1536 x 864;1536 x 864
H045;20;Vrouwelijk;Rechts;4;60;right;no;250;rightarrow;433;true;focus;yes;840740;Chrome;112.0;Windows;10;undefined;undefined;1536 x 864;1536 x 864
H045;20;Vrouwelijk;Rechts;4;61;left;no;250;leftarrow;396;true;focus;yes;841913;Chrome;112.0;Windows;10;undefined;undefined;1536 x 864;1536 x 864
H045;20;Vrouwelijk;Rechts;4;62;left;no;250;leftarrow;337;true;focus;yes;843028;Chrome;112.0;Windows;10;undefined;undefined;1536 x 864;1536 x 864
H045;20;Vrouwelijk;Rechts;4;63;left;no;250;leftarrow;474;true;focus;yes;844281;Chrome;112.0;Windows;10;undefined;undefined;1536 x 864;1536 x 864
H045;20;Vrouwelijk;Rechts;4;64;left;yes;250;undefined;null;true;focus;yes;846317;Chrome;112.0;Windows;10;undefined;undefined;1536 x 864;1536 x 864
H045;20;Vrouwelijk;Rechts;4;65;left;no;300;leftarrow;363;true;focus;yes;847461;Chrome;112.0;Windows;10;undefined;undefined;1536 x 864;1536 x 864
H045;20;Vrouwelijk;Rechts;4;66;right;yes;300;rightarrow;416;false;focus;yes;848646;Chrome;112.0;Windows;10;undefined;undefined;1536 x 864;1536 x 864
H045;20;Vrouwelijk;Rechts;4;67;left;no;250;leftarrow;482;true;focus;yes;849902;Chrome;112.0;Windows;10;undefined;undefined;1536 x 864;1536 x 864
H045;20;Vrouwelijk;Rechts;4;68;left;no;250;leftarrow;515;true;focus;yes;851185;Chrome;112.0;Windows;10;undefined;undefined;1536 x 864;1536 x 864
H045;20;Vrouwelijk;Rechts;4;69;right;no;250;rightarrow;596;true;focus;yes;852556;Chrome;112.0;Windows;10;undefined;undefined;1536 x 864;1536 x 864
H045;20;Vrouwelijk;Rechts;4;70;left;yes;250;leftarrow;394;false;focus;yes;853731;Chrome;112.0;Windows;10;undefined;undefined;1536 x 864;1536 x 864
H045;20;Vrouwelijk;Rechts;4;71;right;no;200;rightarrow;538;true;focus;yes;855035;Chrome;112.0;Windows;10;undefined;undefined;1536 x 864;1536 x 864
H045;20;Vrouwelijk;Rechts;4;72;right;no;200;rightarrow;638;true;focus;yes;856456;Chrome;112.0;Windows;10;undefined;undefined;1536 x 864;1536 x 864
H045;20;Vrouwelijk;Rechts;4;73;left;yes;200;undefined;null;true;focus;yes;858494;Chrome;112.0;Windows;10;undefined;undefined;1536 x 864;1536 x 864
H045;20;Vrouwelijk;Rechts;4;74;left;no;250;leftarrow;368;true;focus;yes;859647;Chrome;112.0;Windows;10;undefined;undefined;1536 x 864;1536 x 864
H045;20;Vrouwelijk;Rechts;4;75;right;no;250;rightarrow;507;true;focus;yes;860929;Chrome;112.0;Windows;10;undefined;undefined;1536 x 864;1536 x 864
H045;20;Vrouwelijk;Rechts;4;76;left;no;250;leftarrow;623;true;focus;yes;862328;Chrome;112.0;Windows;10;undefined;undefined;1536 x 864;1536 x 864
H045;20;Vrouwelijk;Rechts;4;77;left;no;250;leftarrow;634;true;focus;yes;863729;Chrome;112.0;Windows;10;undefined;undefined;1536 x 864;1536 x 864
H045;20;Vrouwelijk;Rechts;4;78;right;no;250;rightarrow;546;true;focus;yes;865048;Chrome;112.0;Windows;10;undefined;undefined;1536 x 864;1536 x 864
H045;20;Vrouwelijk;Rechts;4;79;right;yes;250;rightarrow;450;false;focus;yes;866265;Chrome;112.0;Windows;10;undefined;undefined;1536 x 864;1536 x 864
H045;20;Vrouwelijk;Rechts;4;80;right;no;200;rightarrow;472;true;focus;yes;867509;Chrome;112.0;Windows;10;undefined;undefined;1536 x 864;1536 x 864
H045;20;Vrouwelijk;Rechts;4;81;left;no;200;leftarrow;757;true;focus;yes;869049;Chrome;112.0;Windows;10;undefined;undefined;1536 x 864;1536 x 864
H045;20;Vrouwelijk;Rechts;4;82;left;yes;200;leftarrow;404;false;focus;yes;870226;Chrome;112.0;Windows;10;undefined;undefined;1536 x 864;1536 x 864
H045;20;Vrouwelijk;Rechts;4;83;right;no;150;rightarrow;613;true;focus;yes;871604;Chrome;112.0;Windows;10;undefined;undefined;1536 x 864;1536 x 864
H045;20;Vrouwelijk;Rechts;4;84;right;no;150;rightarrow;420;true;focus;yes;872787;Chrome;112.0;Windows;10;undefined;undefined;1536 x 864;1536 x 864
H045;20;Vrouwelijk;Rechts;4;85;left;no;150;leftarrow;496;true;focus;yes;874050;Chrome;112.0;Windows;10;undefined;undefined;1536 x 864;1536 x 864
H045;20;Vrouwelijk;Rechts;4;86;right;no;150;rightarrow;520;true;focus;yes;875353;Chrome;112.0;Windows;10;undefined;undefined;1536 x 864;1536 x 864
H045;20;Vrouwelijk;Rechts;4;87;right;yes;150;undefined;null;true;focus;yes;877379;Chrome;112.0;Windows;10;undefined;undefined;1536 x 864;1536 x 864
H045;20;Vrouwelijk;Rechts;4;88;left;no;200;leftarrow;399;true;focus;yes;878557;Chrome;112.0;Windows;10;undefined;undefined;1536 x 864;1536 x 864
H045;20;Vrouwelijk;Rechts;4;89;right;no;200;rightarrow;500;true;focus;yes;879828;Chrome;112.0;Windows;10;undefined;undefined;1536 x 864;1536 x 864
H045;20;Vrouwelijk;Rechts;4;90;left;no;200;leftarrow;415;true;focus;yes;881008;Chrome;112.0;Windows;10;undefined;undefined;1536 x 864;1536 x 864
H045;20;Vrouwelijk;Rechts;4;91;left;no;200;leftarrow;446;true;focus;yes;882236;Chrome;112.0;Windows;10;undefined;undefined;1536 x 864;1536 x 864
H045;20;Vrouwelijk;Rechts;4;92;right;no;200;rightarrow;491;true;focus;yes;883494;Chrome;112.0;Windows;10;undefined;undefined;1536 x 864;1536 x 864
H045;20;Vrouwelijk;Rechts;4;93;left;no;200;leftarrow;390;true;focus;yes;884653;Chrome;112.0;Windows;10;undefined;undefined;1536 x 864;1536 x 864
H045;20;Vrouwelijk;Rechts;4;94;right;no;200;rightarrow;377;true;focus;yes;885813;Chrome;112.0;Windows;10;undefined;undefined;1536 x 864;1536 x 864
H045;20;Vrouwelijk;Rechts;4;95;left;yes;200;undefined;null;true;focus;yes;887846;Chrome;112.0;Windows;10;undefined;undefined;1536 x 864;1536 x 864
H045;20;Vrouwelijk;Rechts;4;96;right;yes;250;rightarrow;402;false;focus;yes;889032;Chrome;112.0;Windows;10;undefined;undefined;1536 x 864;1536 x 864
H045;20;Vrouwelijk;Rechts;4;97;left;no;200;leftarrow;528;true;focus;yes;890348;Chrome;112.0;Windows;10;undefined;undefined;1536 x 864;1536 x 864
H045;20;Vrouwelijk;Rechts;4;98;right;no;200;rightarrow;554;true;focus;yes;891669;Chrome;112.0;Windows;10;undefined;undefined;1536 x 864;1536 x 864
H045;20;Vrouwelijk;Rechts;4;99;left;no;200;leftarrow;415;true;focus;yes;892852;Chrome;112.0;Windows;10;undefined;undefined;1536 x 864;1536 x 864
H045;20;Vrouwelijk;Rechts;4;100;right;yes;200;rightarrow;378;false;focus;yes;893995;Chrome;112.0;Windows;10;undefined;undefined;1536 x 864;1536 x 864
H045;20;Vrouwelijk;Rechts;4;101;left;yes;150;undefined;null;true;focus;yes;896018;Chrome;112.0;Windows;10;undefined;undefined;1536 x 864;1536 x 864
H045;20;Vrouwelijk;Rechts;4;102;right;no;200;rightarrow;460;true;focus;yes;897250;Chrome;112.0;Windows;10;undefined;undefined;1536 x 864;1536 x 864
H045;20;Vrouwelijk;Rechts;4;103;right;no;200;rightarrow;443;true;focus;yes;898467;Chrome;112.0;Windows;10;undefined;undefined;1536 x 864;1536 x 864
H045;20;Vrouwelijk;Rechts;4;104;left;no;200;leftarrow;683;true;focus;yes;899920;Chrome;112.0;Windows;10;undefined;undefined;1536 x 864;1536 x 864
H045;20;Vrouwelijk;Rechts;4;105;left;yes;200;undefined;null;true;focus;yes;901947;Chrome;112.0;Windows;10;undefined;undefined;1536 x 864;1536 x 864
H045;20;Vrouwelijk;Rechts;4;106;right;no;250;rightarrow;425;true;focus;yes;903145;Chrome;112.0;Windows;10;undefined;undefined;1536 x 864;1536 x 864
H045;20;Vrouwelijk;Rechts;4;107;right;no;250;rightarrow;439;true;focus;yes;904357;Chrome;112.0;Windows;10;undefined;undefined;1536 x 864;1536 x 864
H045;20;Vrouwelijk;Rechts;4;108;right;yes;250;undefined;null;true;focus;yes;906401;Chrome;112.0;Windows;10;undefined;undefined;1536 x 864;1536 x 864
H045;20;Vrouwelijk;Rechts;4;109;left;no;300;leftarrow;418;true;focus;yes;907592;Chrome;112.0;Windows;10;undefined;undefined;1536 x 864;1536 x 864
H045;20;Vrouwelijk;Rechts;4;110;left;no;300;leftarrow;369;true;focus;yes;908742;Chrome;112.0;Windows;10;undefined;undefined;1536 x 864;1536 x 864
H045;20;Vrouwelijk;Rechts;4;111;right;no;300;rightarrow;375;true;focus;yes;909898;Chrome;112.0;Windows;10;undefined;undefined;1536 x 864;1536 x 864
H045;20;Vrouwelijk;Rechts;4;112;left;no;300;leftarrow;380;true;focus;yes;911059;Chrome;112.0;Windows;10;undefined;undefined;1536 x 864;1536 x 864
H045;20;Vrouwelijk;Rechts;4;113;left;no;300;leftarrow;418;true;focus;yes;912257;Chrome;112.0;Windows;10;undefined;undefined;1536 x 864;1536 x 864
H045;20;Vrouwelijk;Rechts;4;114;left;no;300;leftarrow;412;true;focus;yes;913444;Chrome;112.0;Windows;10;undefined;undefined;1536 x 864;1536 x 864
H045;20;Vrouwelijk;Rechts;4;115;right;yes;300;rightarrow;388;false;focus;yes;914601;Chrome;112.0;Windows;10;undefined;undefined;1536 x 864;1536 x 864
H045;20;Vrouwelijk;Rechts;4;116;right;no;250;rightarrow;418;true;focus;yes;915795;Chrome;112.0;Windows;10;undefined;undefined;1536 x 864;1536 x 864
H045;20;Vrouwelijk;Rechts;4;117;right;no;250;rightarrow;511;true;focus;yes;917087;Chrome;112.0;Windows;10;undefined;undefined;1536 x 864;1536 x 864
H045;20;Vrouwelijk;Rechts;4;118;left;no;250;leftarrow;450;true;focus;yes;918300;Chrome;112.0;Windows;10;undefined;undefined;1536 x 864;1536 x 864
H045;20;Vrouwelijk;Rechts;4;119;left;yes;250;undefined;null;true;focus;yes;920321;Chrome;112.0;Windows;10;undefined;undefined;1536 x 864;1536 x 864
H045;20;Vrouwelijk;Rechts;4;120;right;no;300;rightarrow;407;true;focus;yes;921501;Chrome;112.0;Windows;10;undefined;undefined;1536 x 864;1536 x 864
H045;20;Vrouwelijk;Rechts;4;121;right;no;300;rightarrow;387;true;focus;yes;922668;Chrome;112.0;Windows;10;undefined;undefined;1536 x 864;1536 x 864
H045;20;Vrouwelijk;Rechts;4;122;left;no;300;leftarrow;489;true;focus;yes;923935;Chrome;112.0;Windows;10;undefined;undefined;1536 x 864;1536 x 864
H045;20;Vrouwelijk;Rechts;4;123;left;yes;300;leftarrow;446;false;focus;yes;925154;Chrome;112.0;Windows;10;undefined;undefined;1536 x 864;1536 x 864
H045;20;Vrouwelijk;Rechts;4;124;left;no;250;leftarrow;635;true;focus;yes;926562;Chrome;112.0;Windows;10;undefined;undefined;1536 x 864;1536 x 864
H045;20;Vrouwelijk;Rechts;4;125;left;no;250;leftarrow;505;true;focus;yes;927835;Chrome;112.0;Windows;10;undefined;undefined;1536 x 864;1536 x 864
H045;20;Vrouwelijk;Rechts;4;126;right;no;250;rightarrow;636;true;focus;yes;929238;Chrome;112.0;Windows;10;undefined;undefined;1536 x 864;1536 x 864
H045;20;Vrouwelijk;Rechts;4;127;right;no;250;rightarrow;457;true;focus;yes;930469;Chrome;112.0;Windows;10;undefined;undefined;1536 x 864;1536 x 864
H045;20;Vrouwelijk;Rechts;4;128;right;yes;250;rightarrow;431;false;focus;yes;931667;Chrome;112.0;Windows;10;undefined;undefined;1536 x 864;1536 x 864
H045;20;Vrouwelijk;Rechts;5;1;left;no;200;leftarrow;455;true;focus;yes;950759;Chrome;112.0;Windows;10;undefined;undefined;1536 x 864;1536 x 864
H045;20;Vrouwelijk;Rechts;5;2;right;no;200;rightarrow;392;true;focus;yes;951917;Chrome;112.0;Windows;10;undefined;undefined;1536 x 864;1536 x 864
H045;20;Vrouwelijk;Rechts;5;3;left;no;200;rightarrow;299;false;focus;yes;952986;Chrome;112.0;Windows;10;undefined;undefined;1536 x 864;1536 x 864
H045;20;Vrouwelijk;Rechts;5;4;right;no;200;rightarrow;458;true;focus;yes;954219;Chrome;112.0;Windows;10;undefined;undefined;1536 x 864;1536 x 864
H045;20;Vrouwelijk;Rechts;5;5;right;no;200;rightarrow;439;true;focus;yes;955431;Chrome;112.0;Windows;10;undefined;undefined;1536 x 864;1536 x 864
H045;20;Vrouwelijk;Rechts;5;6;right;yes;200;rightarrow;546;false;focus;yes;956751;Chrome;112.0;Windows;10;undefined;undefined;1536 x 864;1536 x 864
H045;20;Vrouwelijk;Rechts;5;7;left;no;150;leftarrow;411;true;focus;yes;957933;Chrome;112.0;Windows;10;undefined;undefined;1536 x 864;1536 x 864
H045;20;Vrouwelijk;Rechts;5;8;left;yes;150;undefined;null;true;focus;yes;959967;Chrome;112.0;Windows;10;undefined;undefined;1536 x 864;1536 x 864
H045;20;Vrouwelijk;Rechts;5;9;right;yes;200;undefined;null;true;focus;yes;961994;Chrome;112.0;Windows;10;undefined;undefined;1536 x 864;1536 x 864
H045;20;Vrouwelijk;Rechts;5;10;left;yes;250;leftarrow;401;false;focus;yes;963168;Chrome;112.0;Windows;10;undefined;undefined;1536 x 864;1536 x 864
H045;20;Vrouwelijk;Rechts;5;11;left;no;200;leftarrow;514;true;focus;yes;964453;Chrome;112.0;Windows;10;undefined;undefined;1536 x 864;1536 x 864
H045;20;Vrouwelijk;Rechts;5;12;right;no;200;rightarrow;511;true;focus;yes;965739;Chrome;112.0;Windows;10;undefined;undefined;1536 x 864;1536 x 864
H045;20;Vrouwelijk;Rechts;5;13;left;no;200;leftarrow;388;true;focus;yes;966891;Chrome;112.0;Windows;10;undefined;undefined;1536 x 864;1536 x 864
H045;20;Vrouwelijk;Rechts;5;14;right;no;200;rightarrow;510;true;focus;yes;968171;Chrome;112.0;Windows;10;undefined;undefined;1536 x 864;1536 x 864
H045;20;Vrouwelijk;Rechts;5;15;right;no;200;rightarrow;438;true;focus;yes;969394;Chrome;112.0;Windows;10;undefined;undefined;1536 x 864;1536 x 864
H045;20;Vrouwelijk;Rechts;5;16;left;no;200;leftarrow;507;true;focus;yes;970670;Chrome;112.0;Windows;10;undefined;undefined;1536 x 864;1536 x 864
H045;20;Vrouwelijk;Rechts;5;17;right;no;200;rightarrow;532;true;focus;yes;971985;Chrome;112.0;Windows;10;undefined;undefined;1536 x 864;1536 x 864
H045;20;Vrouwelijk;Rechts;5;18;left;no;200;leftarrow;386;true;focus;yes;973152;Chrome;112.0;Windows;10;undefined;undefined;1536 x 864;1536 x 864
H045;20;Vrouwelijk;Rechts;5;19;left;no;200;leftarrow;346;true;focus;yes;974266;Chrome;112.0;Windows;10;undefined;undefined;1536 x 864;1536 x 864
H045;20;Vrouwelijk;Rechts;5;20;left;no;200;leftarrow;341;true;focus;yes;975379;Chrome;112.0;Windows;10;undefined;undefined;1536 x 864;1536 x 864
H045;20;Vrouwelijk;Rechts;5;21;right;yes;200;leftarrow;340;false;focus;yes;976501;Chrome;112.0;Windows;10;undefined;undefined;1536 x 864;1536 x 864
H045;20;Vrouwelijk;Rechts;5;22;right;no;150;rightarrow;547;true;focus;yes;977829;Chrome;112.0;Windows;10;undefined;undefined;1536 x 864;1536 x 864
H045;20;Vrouwelijk;Rechts;5;23;left;yes;150;undefined;null;true;focus;yes;979862;Chrome;112.0;Windows;10;undefined;undefined;1536 x 864;1536 x 864
H045;20;Vrouwelijk;Rechts;5;24;right;no;200;rightarrow;618;true;focus;yes;981257;Chrome;112.0;Windows;10;undefined;undefined;1536 x 864;1536 x 864
H045;20;Vrouwelijk;Rechts;5;25;right;no;200;rightarrow;399;true;focus;yes;982425;Chrome;112.0;Windows;10;undefined;undefined;1536 x 864;1536 x 864
H045;20;Vrouwelijk;Rechts;5;26;right;no;200;rightarrow;404;true;focus;yes;983597;Chrome;112.0;Windows;10;undefined;undefined;1536 x 864;1536 x 864
H045;20;Vrouwelijk;Rechts;5;27;left;yes;200;undefined;null;true;focus;yes;985640;Chrome;112.0;Windows;10;undefined;undefined;1536 x 864;1536 x 864
H045;20;Vrouwelijk;Rechts;5;28;right;no;250;rightarrow;423;true;focus;yes;986843;Chrome;112.0;Windows;10;undefined;undefined;1536 x 864;1536 x 864
H045;20;Vrouwelijk;Rechts;5;29;left;no;250;leftarrow;748;true;focus;yes;988359;Chrome;112.0;Windows;10;undefined;undefined;1536 x 864;1536 x 864
H045;20;Vrouwelijk;Rechts;5;30;right;yes;250;rightarrow;419;false;focus;yes;989560;Chrome;112.0;Windows;10;undefined;undefined;1536 x 864;1536 x 864
H045;20;Vrouwelijk;Rechts;5;31;left;no;200;leftarrow;482;true;focus;yes;990812;Chrome;112.0;Windows;10;undefined;undefined;1536 x 864;1536 x 864
H045;20;Vrouwelijk;Rechts;5;32;left;no;200;leftarrow;428;true;focus;yes;992011;Chrome;112.0;Windows;10;undefined;undefined;1536 x 864;1536 x 864
H045;20;Vrouwelijk;Rechts;5;33;right;no;200;rightarrow;468;true;focus;yes;993265;Chrome;112.0;Windows;10;undefined;undefined;1536 x 864;1536 x 864
H045;20;Vrouwelijk;Rechts;5;34;right;yes;200;undefined;null;true;focus;yes;995295;Chrome;112.0;Windows;10;undefined;undefined;1536 x 864;1536 x 864
H045;20;Vrouwelijk;Rechts;5;35;right;no;250;rightarrow;505;true;focus;yes;996573;Chrome;112.0;Windows;10;undefined;undefined;1536 x 864;1536 x 864
H045;20;Vrouwelijk;Rechts;5;36;right;no;250;rightarrow;343;true;focus;yes;997688;Chrome;112.0;Windows;10;undefined;undefined;1536 x 864;1536 x 864
H045;20;Vrouwelijk;Rechts;5;37;left;no;250;leftarrow;484;true;focus;yes;998944;Chrome;112.0;Windows;10;undefined;undefined;1536 x 864;1536 x 864
H045;20;Vrouwelijk;Rechts;5;38;left;no;250;leftarrow;471;true;focus;yes;1000183;Chrome;112.0;Windows;10;undefined;undefined;1536 x 864;1536 x 864
H045;20;Vrouwelijk;Rechts;5;39;left;no;250;leftarrow;384;true;focus;yes;1001334;Chrome;112.0;Windows;10;undefined;undefined;1536 x 864;1536 x 864
H045;20;Vrouwelijk;Rechts;5;40;left;yes;250;rightarrow;367;false;focus;yes;1002469;Chrome;112.0;Windows;10;undefined;undefined;1536 x 864;1536 x 864
H045;20;Vrouwelijk;Rechts;5;41;right;no;200;rightarrow;479;true;focus;yes;1003721;Chrome;112.0;Windows;10;undefined;undefined;1536 x 864;1536 x 864
H045;20;Vrouwelijk;Rechts;5;42;left;yes;200;undefined;null;true;focus;yes;1005749;Chrome;112.0;Windows;10;undefined;undefined;1536 x 864;1536 x 864
H045;20;Vrouwelijk;Rechts;5;43;right;yes;250;rightarrow;535;false;focus;yes;1007054;Chrome;112.0;Windows;10;undefined;undefined;1536 x 864;1536 x 864
H045;20;Vrouwelijk;Rechts;5;44;right;no;200;rightarrow;569;true;focus;yes;1008392;Chrome;112.0;Windows;10;undefined;undefined;1536 x 864;1536 x 864
H045;20;Vrouwelijk;Rechts;5;45;left;no;200;leftarrow;608;true;focus;yes;1009768;Chrome;112.0;Windows;10;undefined;undefined;1536 x 864;1536 x 864
H045;20;Vrouwelijk;Rechts;5;46;left;no;200;leftarrow;567;true;focus;yes;1011103;Chrome;112.0;Windows;10;undefined;undefined;1536 x 864;1536 x 864
H045;20;Vrouwelijk;Rechts;5;47;left;no;200;leftarrow;486;true;focus;yes;1012361;Chrome;112.0;Windows;10;undefined;undefined;1536 x 864;1536 x 864
H045;20;Vrouwelijk;Rechts;5;48;right;no;200;rightarrow;545;true;focus;yes;1013671;Chrome;112.0;Windows;10;undefined;undefined;1536 x 864;1536 x 864
H045;20;Vrouwelijk;Rechts;5;49;right;yes;200;rightarrow;393;false;focus;yes;1014848;Chrome;112.0;Windows;10;undefined;undefined;1536 x 864;1536 x 864
H045;20;Vrouwelijk;Rechts;5;50;right;no;150;rightarrow;508;true;focus;yes;1016123;Chrome;112.0;Windows;10;undefined;undefined;1536 x 864;1536 x 864
H045;20;Vrouwelijk;Rechts;5;51;left;yes;150;undefined;null;true;focus;yes;1018155;Chrome;112.0;Windows;10;undefined;undefined;1536 x 864;1536 x 864
H045;20;Vrouwelijk;Rechts;5;52;right;no;200;rightarrow;477;true;focus;yes;1019395;Chrome;112.0;Windows;10;undefined;undefined;1536 x 864;1536 x 864
H045;20;Vrouwelijk;Rechts;5;53;right;no;200;rightarrow;486;true;focus;yes;1020657;Chrome;112.0;Windows;10;undefined;undefined;1536 x 864;1536 x 864
H045;20;Vrouwelijk;Rechts;5;54;left;no;200;leftarrow;456;true;focus;yes;1021887;Chrome;112.0;Windows;10;undefined;undefined;1536 x 864;1536 x 864
H045;20;Vrouwelijk;Rechts;5;55;left;no;200;leftarrow;503;true;focus;yes;1023175;Chrome;112.0;Windows;10;undefined;undefined;1536 x 864;1536 x 864
H045;20;Vrouwelijk;Rechts;5;56;left;no;200;leftarrow;489;true;focus;yes;1024443;Chrome;112.0;Windows;10;undefined;undefined;1536 x 864;1536 x 864
H045;20;Vrouwelijk;Rechts;5;57;right;no;200;rightarrow;444;true;focus;yes;1025655;Chrome;112.0;Windows;10;undefined;undefined;1536 x 864;1536 x 864
H045;20;Vrouwelijk;Rechts;5;58;right;no;200;rightarrow;397;true;focus;yes;1026843;Chrome;112.0;Windows;10;undefined;undefined;1536 x 864;1536 x 864
H045;20;Vrouwelijk;Rechts;5;59;left;no;200;leftarrow;514;true;focus;yes;1028137;Chrome;112.0;Windows;10;undefined;undefined;1536 x 864;1536 x 864
H045;20;Vrouwelijk;Rechts;5;60;right;yes;200;undefined;null;true;focus;yes;1030164;Chrome;112.0;Windows;10;undefined;undefined;1536 x 864;1536 x 864
H045;20;Vrouwelijk;Rechts;5;61;right;no;250;rightarrow;527;true;focus;yes;1031455;Chrome;112.0;Windows;10;undefined;undefined;1536 x 864;1536 x 864
H045;20;Vrouwelijk;Rechts;5;62;left;no;250;leftarrow;502;true;focus;yes;1032733;Chrome;112.0;Windows;10;undefined;undefined;1536 x 864;1536 x 864
H045;20;Vrouwelijk;Rechts;5;63;left;no;250;leftarrow;533;true;focus;yes;1034032;Chrome;112.0;Windows;10;undefined;undefined;1536 x 864;1536 x 864
H045;20;Vrouwelijk;Rechts;5;64;left;yes;250;undefined;null;true;focus;yes;1036070;Chrome;112.0;Windows;10;undefined;undefined;1536 x 864;1536 x 864
H045;20;Vrouwelijk;Rechts;5;65;right;no;300;rightarrow;522;true;focus;yes;1037375;Chrome;112.0;Windows;10;undefined;undefined;1536 x 864;1536 x 864
H045;20;Vrouwelijk;Rechts;5;66;left;no;300;leftarrow;466;true;focus;yes;1038612;Chrome;112.0;Windows;10;undefined;undefined;1536 x 864;1536 x 864
H045;20;Vrouwelijk;Rechts;5;67;left;yes;300;undefined;null;true;focus;yes;1040640;Chrome;112.0;Windows;10;undefined;undefined;1536 x 864;1536 x 864
H045;20;Vrouwelijk;Rechts;5;68;left;no;350;leftarrow;528;true;focus;yes;1041943;Chrome;112.0;Windows;10;undefined;undefined;1536 x 864;1536 x 864
H045;20;Vrouwelijk;Rechts;5;69;right;yes;350;rightarrow;385;false;focus;yes;1043097;Chrome;112.0;Windows;10;undefined;undefined;1536 x 864;1536 x 864
H045;20;Vrouwelijk;Rechts;5;70;left;no;300;leftarrow;374;true;focus;yes;1044253;Chrome;112.0;Windows;10;undefined;undefined;1536 x 864;1536 x 864
H045;20;Vrouwelijk;Rechts;5;71;right;no;300;rightarrow;413;true;focus;yes;1045433;Chrome;112.0;Windows;10;undefined;undefined;1536 x 864;1536 x 864
H045;20;Vrouwelijk;Rechts;5;72;right;no;300;rightarrow;384;true;focus;yes;1046581;Chrome;112.0;Windows;10;undefined;undefined;1536 x 864;1536 x 864
H045;20;Vrouwelijk;Rechts;5;73;left;no;300;leftarrow;418;true;focus;yes;1047781;Chrome;112.0;Windows;10;undefined;undefined;1536 x 864;1536 x 864
H045;20;Vrouwelijk;Rechts;5;74;right;no;300;rightarrow;483;true;focus;yes;1049032;Chrome;112.0;Windows;10;undefined;undefined;1536 x 864;1536 x 864
H045;20;Vrouwelijk;Rechts;5;75;right;yes;300;rightarrow;408;false;focus;yes;1050217;Chrome;112.0;Windows;10;undefined;undefined;1536 x 864;1536 x 864
H045;20;Vrouwelijk;Rechts;5;76;right;no;250;rightarrow;504;true;focus;yes;1051498;Chrome;112.0;Windows;10;undefined;undefined;1536 x 864;1536 x 864
H045;20;Vrouwelijk;Rechts;5;77;right;no;250;rightarrow;369;true;focus;yes;1052633;Chrome;112.0;Windows;10;undefined;undefined;1536 x 864;1536 x 864
H045;20;Vrouwelijk;Rechts;5;78;left;no;250;leftarrow;510;true;focus;yes;1053920;Chrome;112.0;Windows;10;undefined;undefined;1536 x 864;1536 x 864
H045;20;Vrouwelijk;Rechts;5;79;left;yes;250;leftarrow;433;false;focus;yes;1055122;Chrome;112.0;Windows;10;undefined;undefined;1536 x 864;1536 x 864
H045;20;Vrouwelijk;Rechts;5;80;left;no;200;leftarrow;448;true;focus;yes;1056345;Chrome;112.0;Windows;10;undefined;undefined;1536 x 864;1536 x 864
H045;20;Vrouwelijk;Rechts;5;81;right;no;200;rightarrow;582;true;focus;yes;1057710;Chrome;112.0;Windows;10;undefined;undefined;1536 x 864;1536 x 864
H045;20;Vrouwelijk;Rechts;5;82;right;yes;200;undefined;null;true;focus;yes;1059744;Chrome;112.0;Windows;10;undefined;undefined;1536 x 864;1536 x 864
H045;20;Vrouwelijk;Rechts;5;83;left;yes;250;undefined;null;true;focus;yes;1061767;Chrome;112.0;Windows;10;undefined;undefined;1536 x 864;1536 x 864
H045;20;Vrouwelijk;Rechts;5;84;right;no;300;rightarrow;437;true;focus;yes;1062972;Chrome;112.0;Windows;10;undefined;undefined;1536 x 864;1536 x 864
H045;20;Vrouwelijk;Rechts;5;85;right;no;300;rightarrow;549;true;focus;yes;1064306;Chrome;112.0;Windows;10;undefined;undefined;1536 x 864;1536 x 864
H045;20;Vrouwelijk;Rechts;5;86;left;no;300;leftarrow;503;true;focus;yes;1065576;Chrome;112.0;Windows;10;undefined;undefined;1536 x 864;1536 x 864
H045;20;Vrouwelijk;Rechts;5;87;left;no;300;leftarrow;356;true;focus;yes;1066700;Chrome;112.0;Windows;10;undefined;undefined;1536 x 864;1536 x 864
H045;20;Vrouwelijk;Rechts;5;88;left;no;300;leftarrow;341;true;focus;yes;1067808;Chrome;112.0;Windows;10;undefined;undefined;1536 x 864;1536 x 864
H045;20;Vrouwelijk;Rechts;5;89;right;no;300;rightarrow;457;true;focus;yes;1069032;Chrome;112.0;Windows;10;undefined;undefined;1536 x 864;1536 x 864
H045;20;Vrouwelijk;Rechts;5;90;right;no;300;rightarrow;369;true;focus;yes;1070169;Chrome;112.0;Windows;10;undefined;undefined;1536 x 864;1536 x 864
H045;20;Vrouwelijk;Rechts;5;91;left;no;300;leftarrow;494;true;focus;yes;1071438;Chrome;112.0;Windows;10;undefined;undefined;1536 x 864;1536 x 864
H045;20;Vrouwelijk;Rechts;5;92;left;yes;300;leftarrow;405;false;focus;yes;1072610;Chrome;112.0;Windows;10;undefined;undefined;1536 x 864;1536 x 864
H045;20;Vrouwelijk;Rechts;5;93;left;no;250;leftarrow;405;true;focus;yes;1073795;Chrome;112.0;Windows;10;undefined;undefined;1536 x 864;1536 x 864
H045;20;Vrouwelijk;Rechts;5;94;right;yes;250;rightarrow;397;false;focus;yes;1074975;Chrome;112.0;Windows;10;undefined;undefined;1536 x 864;1536 x 864
H045;20;Vrouwelijk;Rechts;5;95;left;no;200;leftarrow;465;true;focus;yes;1076204;Chrome;112.0;Windows;10;undefined;undefined;1536 x 864;1536 x 864
H045;20;Vrouwelijk;Rechts;5;96;right;no;200;rightarrow;381;true;focus;yes;1077359;Chrome;112.0;Windows;10;undefined;undefined;1536 x 864;1536 x 864
H045;20;Vrouwelijk;Rechts;5;97;right;no;200;rightarrow;451;true;focus;yes;1078578;Chrome;112.0;Windows;10;undefined;undefined;1536 x 864;1536 x 864
H045;20;Vrouwelijk;Rechts;5;98;left;no;200;leftarrow;359;true;focus;yes;1079707;Chrome;112.0;Windows;10;undefined;undefined;1536 x 864;1536 x 864
H045;20;Vrouwelijk;Rechts;5;99;left;no;200;leftarrow;573;true;focus;yes;1081056;Chrome;112.0;Windows;10;undefined;undefined;1536 x 864;1536 x 864
H045;20;Vrouwelijk;Rechts;5;100;right;no;200;rightarrow;431;true;focus;yes;1082256;Chrome;112.0;Windows;10;undefined;undefined;1536 x 864;1536 x 864
H045;20;Vrouwelijk;Rechts;5;101;right;yes;200;rightarrow;362;false;focus;yes;1083378;Chrome;112.0;Windows;10;undefined;undefined;1536 x 864;1536 x 864
H045;20;Vrouwelijk;Rechts;5;102;right;no;150;rightarrow;414;true;focus;yes;1084557;Chrome;112.0;Windows;10;undefined;undefined;1536 x 864;1536 x 864
H045;20;Vrouwelijk;Rechts;5;103;left;yes;150;leftarrow;367;false;focus;yes;1085688;Chrome;112.0;Windows;10;undefined;undefined;1536 x 864;1536 x 864
H045;20;Vrouwelijk;Rechts;5;104;left;no;100;leftarrow;571;true;focus;yes;1087026;Chrome;112.0;Windows;10;undefined;undefined;1536 x 864;1536 x 864
H045;20;Vrouwelijk;Rechts;5;105;left;yes;100;undefined;null;true;focus;yes;1089057;Chrome;112.0;Windows;10;undefined;undefined;1536 x 864;1536 x 864
H045;20;Vrouwelijk;Rechts;5;106;right;no;150;rightarrow;415;true;focus;yes;1090241;Chrome;112.0;Windows;10;undefined;undefined;1536 x 864;1536 x 864
H045;20;Vrouwelijk;Rechts;5;107;right;no;150;rightarrow;378;true;focus;yes;1091393;Chrome;112.0;Windows;10;undefined;undefined;1536 x 864;1536 x 864
H045;20;Vrouwelijk;Rechts;5;108;right;yes;150;undefined;null;true;focus;yes;1093413;Chrome;112.0;Windows;10;undefined;undefined;1536 x 864;1536 x 864
H045;20;Vrouwelijk;Rechts;5;109;left;no;200;leftarrow;491;true;focus;yes;1094682;Chrome;112.0;Windows;10;undefined;undefined;1536 x 864;1536 x 864
H045;20;Vrouwelijk;Rechts;5;110;right;no;200;rightarrow;346;true;focus;yes;1095796;Chrome;112.0;Windows;10;undefined;undefined;1536 x 864;1536 x 864
H045;20;Vrouwelijk;Rechts;5;111;left;no;200;leftarrow;417;true;focus;yes;1096996;Chrome;112.0;Windows;10;undefined;undefined;1536 x 864;1536 x 864
H045;20;Vrouwelijk;Rechts;5;112;left;no;200;leftarrow;343;true;focus;yes;1098108;Chrome;112.0;Windows;10;undefined;undefined;1536 x 864;1536 x 864
H045;20;Vrouwelijk;Rechts;5;113;right;no;200;rightarrow;382;true;focus;yes;1099259;Chrome;112.0;Windows;10;undefined;undefined;1536 x 864;1536 x 864
H045;20;Vrouwelijk;Rechts;5;114;left;no;200;leftarrow;378;true;focus;yes;1100400;Chrome;112.0;Windows;10;undefined;undefined;1536 x 864;1536 x 864
H045;20;Vrouwelijk;Rechts;5;115;right;no;200;rightarrow;433;true;focus;yes;1101608;Chrome;112.0;Windows;10;undefined;undefined;1536 x 864;1536 x 864
H045;20;Vrouwelijk;Rechts;5;116;left;no;200;leftarrow;433;true;focus;yes;1102817;Chrome;112.0;Windows;10;undefined;undefined;1536 x 864;1536 x 864
H045;20;Vrouwelijk;Rechts;5;117;right;no;200;rightarrow;464;true;focus;yes;1104060;Chrome;112.0;Windows;10;undefined;undefined;1536 x 864;1536 x 864
H045;20;Vrouwelijk;Rechts;5;118;right;yes;200;undefined;null;true;focus;yes;1106089;Chrome;112.0;Windows;10;undefined;undefined;1536 x 864;1536 x 864
H045;20;Vrouwelijk;Rechts;5;119;left;yes;250;leftarrow;352;false;focus;yes;1107213;Chrome;112.0;Windows;10;undefined;undefined;1536 x 864;1536 x 864
H045;20;Vrouwelijk;Rechts;5;120;left;no;200;leftarrow;374;true;focus;yes;1108371;Chrome;112.0;Windows;10;undefined;undefined;1536 x 864;1536 x 864
H045;20;Vrouwelijk;Rechts;5;121;right;no;200;rightarrow;367;true;focus;yes;1109511;Chrome;112.0;Windows;10;undefined;undefined;1536 x 864;1536 x 864
H045;20;Vrouwelijk;Rechts;5;122;right;no;200;rightarrow;411;true;focus;yes;1110701;Chrome;112.0;Windows;10;undefined;undefined;1536 x 864;1536 x 864
H045;20;Vrouwelijk;Rechts;5;123;right;yes;200;rightarrow;501;false;focus;yes;1111980;Chrome;112.0;Windows;10;undefined;undefined;1536 x 864;1536 x 864
H045;20;Vrouwelijk;Rechts;5;124;left;no;150;leftarrow;509;true;focus;yes;1113252;Chrome;112.0;Windows;10;undefined;undefined;1536 x 864;1536 x 864
H045;20;Vrouwelijk;Rechts;5;125;left;no;150;leftarrow;375;true;focus;yes;1114403;Chrome;112.0;Windows;10;undefined;undefined;1536 x 864;1536 x 864
H045;20;Vrouwelijk;Rechts;5;126;right;no;150;rightarrow;564;true;focus;yes;1115739;Chrome;112.0;Windows;10;undefined;undefined;1536 x 864;1536 x 864
H045;20;Vrouwelijk;Rechts;5;127;left;no;150;leftarrow;498;true;focus;yes;1117006;Chrome;112.0;Windows;10;undefined;undefined;1536 x 864;1536 x 864
H045;20;Vrouwelijk;Rechts;5;128;left;yes;150;undefined;null;true;focus;yes;1119034;Chrome;112.0;Windows;10;undefined;undefined;1536 x 864;1536 x 864
H045;20;Vrouwelijk;Rechts;6;1;right;no;200;rightarrow;601;true;focus;yes;1138413;Chrome;112.0;Windows;10;undefined;undefined;1536 x 864;1536 x 864
H045;20;Vrouwelijk;Rechts;6;2;left;no;200;leftarrow;412;true;focus;yes;1139588;Chrome;112.0;Windows;10;undefined;undefined;1536 x 864;1536 x 864
H045;20;Vrouwelijk;Rechts;6;3;left;no;200;leftarrow;357;true;focus;yes;1140709;Chrome;112.0;Windows;10;undefined;undefined;1536 x 864;1536 x 864
H045;20;Vrouwelijk;Rechts;6;4;right;no;200;rightarrow;390;true;focus;yes;1141881;Chrome;112.0;Windows;10;undefined;undefined;1536 x 864;1536 x 864
H045;20;Vrouwelijk;Rechts;6;5;left;yes;200;leftarrow;355;false;focus;yes;1143001;Chrome;112.0;Windows;10;undefined;undefined;1536 x 864;1536 x 864
H045;20;Vrouwelijk;Rechts;6;6;left;no;150;leftarrow;469;true;focus;yes;1144259;Chrome;112.0;Windows;10;undefined;undefined;1536 x 864;1536 x 864
H045;20;Vrouwelijk;Rechts;6;7;right;no;150;rightarrow;473;true;focus;yes;1145500;Chrome;112.0;Windows;10;undefined;undefined;1536 x 864;1536 x 864
H045;20;Vrouwelijk;Rechts;6;8;right;yes;150;undefined;null;true;focus;yes;1147539;Chrome;112.0;Windows;10;undefined;undefined;1536 x 864;1536 x 864
H045;20;Vrouwelijk;Rechts;6;9;left;no;200;leftarrow;420;true;focus;yes;1148739;Chrome;112.0;Windows;10;undefined;undefined;1536 x 864;1536 x 864
H045;20;Vrouwelijk;Rechts;6;10;right;no;200;rightarrow;504;true;focus;yes;1150027;Chrome;112.0;Windows;10;undefined;undefined;1536 x 864;1536 x 864
H045;20;Vrouwelijk;Rechts;6;11;right;yes;200;undefined;null;true;focus;yes;1152058;Chrome;112.0;Windows;10;undefined;undefined;1536 x 864;1536 x 864
H045;20;Vrouwelijk;Rechts;6;12;left;yes;250;leftarrow;398;false;focus;yes;1153240;Chrome;112.0;Windows;10;undefined;undefined;1536 x 864;1536 x 864
H045;20;Vrouwelijk;Rechts;6;13;right;no;200;rightarrow;623;true;focus;yes;1154639;Chrome;112.0;Windows;10;undefined;undefined;1536 x 864;1536 x 864
H045;20;Vrouwelijk;Rechts;6;14;right;no;200;rightarrow;467;true;focus;yes;1155872;Chrome;112.0;Windows;10;undefined;undefined;1536 x 864;1536 x 864
H045;20;Vrouwelijk;Rechts;6;15;left;no;200;leftarrow;425;true;focus;yes;1157068;Chrome;112.0;Windows;10;undefined;undefined;1536 x 864;1536 x 864
H045;20;Vrouwelijk;Rechts;6;16;left;no;200;leftarrow;413;true;focus;yes;1158267;Chrome;112.0;Windows;10;undefined;undefined;1536 x 864;1536 x 864
H045;20;Vrouwelijk;Rechts;6;17;left;no;200;leftarrow;467;true;focus;yes;1159503;Chrome;112.0;Windows;10;undefined;undefined;1536 x 864;1536 x 864
H045;20;Vrouwelijk;Rechts;6;18;right;yes;200;rightarrow;503;false;focus;yes;1160782;Chrome;112.0;Windows;10;undefined;undefined;1536 x 864;1536 x 864
H045;20;Vrouwelijk;Rechts;6;19;left;no;150;leftarrow;457;true;focus;yes;1162011;Chrome;112.0;Windows;10;undefined;undefined;1536 x 864;1536 x 864
H045;20;Vrouwelijk;Rechts;6;20;right;no;150;rightarrow;539;true;focus;yes;1163322;Chrome;112.0;Windows;10;undefined;undefined;1536 x 864;1536 x 864
H045;20;Vrouwelijk;Rechts;6;21;left;no;150;leftarrow;454;true;focus;yes;1164547;Chrome;112.0;Windows;10;undefined;undefined;1536 x 864;1536 x 864
H045;20;Vrouwelijk;Rechts;6;22;right;no;150;rightarrow;467;true;focus;yes;1165798;Chrome;112.0;Windows;10;undefined;undefined;1536 x 864;1536 x 864
H045;20;Vrouwelijk;Rechts;6;23;right;no;150;rightarrow;537;true;focus;yes;1167107;Chrome;112.0;Windows;10;undefined;undefined;1536 x 864;1536 x 864
H045;20;Vrouwelijk;Rechts;6;24;left;yes;150;undefined;null;true;focus;yes;1169146;Chrome;112.0;Windows;10;undefined;undefined;1536 x 864;1536 x 864
H045;20;Vrouwelijk;Rechts;6;25;right;no;200;rightarrow;487;true;focus;yes;1170412;Chrome;112.0;Windows;10;undefined;undefined;1536 x 864;1536 x 864
H045;20;Vrouwelijk;Rechts;6;26;right;no;200;rightarrow;481;true;focus;yes;1171665;Chrome;112.0;Windows;10;undefined;undefined;1536 x 864;1536 x 864
H045;20;Vrouwelijk;Rechts;6;27;left;no;200;leftarrow;449;true;focus;yes;1172897;Chrome;112.0;Windows;10;undefined;undefined;1536 x 864;1536 x 864
