participantID,age,gender,handedness,block_i,trial_i,stim,signal,SSD,response,rt,correct,focus,Fullscreen,time_elapsed,browser_name,browser_version,os_name,os_version,tablet,mobile,screen_resolution,window_resolution
S015,24,Mannelijk,Rechts,0,1,right,no,200,rightarrow,445,true,focus,yes,147199,Chrome,111.0,Windows,10,undefined,undefined,1536 x 864,1536 x 864
S015,24,Mannelijk,Rechts,0,2,right,no,200,rightarrow,435,true,focus,yes,149168,Chrome,111.0,Windows,10,undefined,undefined,1536 x 864,1536 x 864
S015,24,Mannelijk,Rechts,0,3,left,no,200,leftarrow,327,true,focus,yes,151011,Chrome,111.0,Windows,10,undefined,undefined,1536 x 864,1536 x 864
S015,24,Mannelijk,Rechts,0,4,right,no,200,rightarrow,415,true,focus,yes,152960,Chrome,111.0,Windows,10,undefined,undefined,1536 x 864,1536 x 864
S015,24,Mannelijk,Rechts,0,5,left,no,200,leftarrow,399,true,focus,yes,154882,Chrome,111.0,Windows,10,undefined,undefined,1536 x 864,1536 x 864
S015,24,Mannelijk,Rechts,0,6,right,yes,200,rightarrow,368,false,focus,yes,156769,Chrome,111.0,Windows,10,undefined,undefined,1536 x 864,1536 x 864
S015,24,Mannelijk,Rechts,0,7,left,yes,150,leftarrow,362,false,focus,yes,158654,Chrome,111.0,Windows,10,undefined,undefined,1536 x 864,1536 x 864
S015,24,Mannelijk,Rechts,0,8,left,no,100,leftarrow,595,true,focus,yes,160760,Chrome,111.0,Windows,10,undefined,undefined,1536 x 864,1536 x 864
S015,24,Mannelijk,Rechts,1,1,left,no,100,leftarrow,426,true,focus,yes,180839,Chrome,111.0,Windows,10,undefined,undefined,1536 x 864,1536 x 864
S015,24,Mannelijk,Rechts,1,2,right,no,100,rightarrow,398,true,focus,yes,181999,Chrome,111.0,Windows,10,undefined,undefined,1536 x 864,1536 x 864
S015,24,Mannelijk,Rechts,1,3,left,no,100,leftarrow,351,true,focus,yes,183122,Chrome,111.0,Windows,10,undefined,undefined,1536 x 864,1536 x 864
S015,24,Mannelijk,Rechts,1,4,right,no,100,rightarrow,402,true,focus,yes,184307,Chrome,111.0,Windows,10,undefined,undefined,1536 x 864,1536 x 864
S015,24,Mannelijk,Rechts,1,5,right,yes,100,undefined,null,true,focus,yes,186335,Chrome,111.0,Windows,10,undefined,undefined,1536 x 864,1536 x 864
S015,24,Mannelijk,Rechts,1,6,left,no,150,leftarrow,644,true,focus,yes,187751,Chrome,111.0,Windows,10,undefined,undefined,1536 x 864,1536 x 864
S015,24,Mannelijk,Rechts,1,7,left,yes,150,leftarrow,374,false,focus,yes,188902,Chrome,111.0,Windows,10,undefined,undefined,1536 x 864,1536 x 864
S015,24,Mannelijk,Rechts,1,8,right,no,100,rightarrow,554,true,focus,yes,190225,Chrome,111.0,Windows,10,undefined,undefined,1536 x 864,1536 x 864
S015,24,Mannelijk,Rechts,1,9,right,yes,100,undefined,null,true,focus,yes,192247,Chrome,111.0,Windows,10,undefined,undefined,1536 x 864,1536 x 864
S015,24,Mannelijk,Rechts,1,10,left,no,150,leftarrow,473,true,focus,yes,193500,Chrome,111.0,Windows,10,undefined,undefined,1536 x 864,1536 x 864
S015,24,Mannelijk,Rechts,1,11,left,yes,150,undefined,null,true,focus,yes,195539,Chrome,111.0,Windows,10,undefined,undefined,1536 x 864,1536 x 864
S015,24,Mannelijk,Rechts,1,12,left,no,200,leftarrow,391,true,focus,yes,196710,Chrome,111.0,Windows,10,undefined,undefined,1536 x 864,1536 x 864
S015,24,Mannelijk,Rechts,1,13,left,no,200,leftarrow,313,true,focus,yes,197789,Chrome,111.0,Windows,10,undefined,undefined,1536 x 864,1536 x 864
S015,24,Mannelijk,Rechts,1,14,right,no,200,rightarrow,393,true,focus,yes,198972,Chrome,111.0,Windows,10,undefined,undefined,1536 x 864,1536 x 864
S015,24,Mannelijk,Rechts,1,15,right,no,200,rightarrow,491,true,focus,yes,200241,Chrome,111.0,Windows,10,undefined,undefined,1536 x 864,1536 x 864
S015,24,Mannelijk,Rechts,1,16,right,no,200,rightarrow,527,true,focus,yes,201543,Chrome,111.0,Windows,10,undefined,undefined,1536 x 864,1536 x 864
S015,24,Mannelijk,Rechts,1,17,left,no,200,leftarrow,416,true,focus,yes,202733,Chrome,111.0,Windows,10,undefined,undefined,1536 x 864,1536 x 864
S015,24,Mannelijk,Rechts,1,18,left,no,200,leftarrow,478,true,focus,yes,203992,Chrome,111.0,Windows,10,undefined,undefined,1536 x 864,1536 x 864
S015,24,Mannelijk,Rechts,1,19,right,no,200,rightarrow,421,true,focus,yes,205180,Chrome,111.0,Windows,10,undefined,undefined,1536 x 864,1536 x 864
S015,24,Mannelijk,Rechts,1,20,left,no,200,leftarrow,359,true,focus,yes,206304,Chrome,111.0,Windows,10,undefined,undefined,1536 x 864,1536 x 864
S015,24,Mannelijk,Rechts,1,21,right,no,200,rightarrow,309,true,focus,yes,207387,Chrome,111.0,Windows,10,undefined,undefined,1536 x 864,1536 x 864
S015,24,Mannelijk,Rechts,1,22,right,no,200,rightarrow,406,true,focus,yes,208560,Chrome,111.0,Windows,10,undefined,undefined,1536 x 864,1536 x 864
S015,24,Mannelijk,Rechts,1,23,right,yes,200,rightarrow,311,false,focus,yes,209638,Chrome,111.0,Windows,10,undefined,undefined,1536 x 864,1536 x 864
S015,24,Mannelijk,Rechts,1,24,left,yes,150,leftarrow,371,false,focus,yes,210781,Chrome,111.0,Windows,10,undefined,undefined,1536 x 864,1536 x 864
S015,24,Mannelijk,Rechts,1,25,left,no,100,leftarrow,371,true,focus,yes,211930,Chrome,111.0,Windows,10,undefined,undefined,1536 x 864,1536 x 864
S015,24,Mannelijk,Rechts,1,26,left,no,100,leftarrow,401,true,focus,yes,213101,Chrome,111.0,Windows,10,undefined,undefined,1536 x 864,1536 x 864
S015,24,Mannelijk,Rechts,1,27,left,yes,100,undefined,null,true,focus,yes,215123,Chrome,111.0,Windows,10,undefined,undefined,1536 x 864,1536 x 864
S015,24,Mannelijk,Rechts,1,28,right,no,150,rightarrow,336,true,focus,yes,216242,Chrome,111.0,Windows,10,undefined,undefined,1536 x 864,1536 x 864
S015,24,Mannelijk,Rechts,1,29,right,no,150,rightarrow,310,true,focus,yes,217326,Chrome,111.0,Windows,10,undefined,undefined,1536 x 864,1536 x 864
S015,24,Mannelijk,Rechts,1,30,right,no,150,leftarrow,341,false,focus,yes,218442,Chrome,111.0,Windows,10,undefined,undefined,1536 x 864,1536 x 864
S015,24,Mannelijk,Rechts,1,31,left,no,150,leftarrow,438,true,focus,yes,219652,Chrome,111.0,Windows,10,undefined,undefined,1536 x 864,1536 x 864
S015,24,Mannelijk,Rechts,1,32,right,yes,150,undefined,null,true,focus,yes,221685,Chrome,111.0,Windows,10,undefined,undefined,1536 x 864,1536 x 864
S015,24,Mannelijk,Rechts,1,33,right,no,200,rightarrow,323,true,focus,yes,222776,Chrome,111.0,Windows,10,undefined,undefined,1536 x 864,1536 x 864
S015,24,Mannelijk,Rechts,1,34,left,no,200,leftarrow,406,true,focus,yes,223959,Chrome,111.0,Windows,10,undefined,undefined,1536 x 864,1536 x 864
S015,24,Mannelijk,Rechts,1,35,left,no,200,leftarrow,329,true,focus,yes,225073,Chrome,111.0,Windows,10,undefined,undefined,1536 x 864,1536 x 864
S015,24,Mannelijk,Rechts,1,36,left,no,200,leftarrow,322,true,focus,yes,226174,Chrome,111.0,Windows,10,undefined,undefined,1536 x 864,1536 x 864
S015,24,Mannelijk,Rechts,1,37,right,yes,200,rightarrow,453,false,focus,yes,227401,Chrome,111.0,Windows,10,undefined,undefined,1536 x 864,1536 x 864
S015,24,Mannelijk,Rechts,1,38,left,yes,150,undefined,null,true,focus,yes,229443,Chrome,111.0,Windows,10,undefined,undefined,1536 x 864,1536 x 864
S015,24,Mannelijk,Rechts,1,39,right,no,200,rightarrow,246,true,focus,yes,230457,Chrome,111.0,Windows,10,undefined,undefined,1536 x 864,1536 x 864
S015,24,Mannelijk,Rechts,1,40,right,no,200,rightarrow,302,true,focus,yes,231520,Chrome,111.0,Windows,10,undefined,undefined,1536 x 864,1536 x 864
S015,24,Mannelijk,Rechts,1,41,left,no,200,leftarrow,402,true,focus,yes,232689,Chrome,111.0,Windows,10,undefined,undefined,1536 x 864,1536 x 864
S015,24,Mannelijk,Rechts,1,42,right,no,200,rightarrow,396,true,focus,yes,233852,Chrome,111.0,Windows,10,undefined,undefined,1536 x 864,1536 x 864
S015,24,Mannelijk,Rechts,1,43,right,no,200,rightarrow,475,true,focus,yes,235090,Chrome,111.0,Windows,10,undefined,undefined,1536 x 864,1536 x 864
S015,24,Mannelijk,Rechts,1,44,left,no,200,leftarrow,352,true,focus,yes,236223,Chrome,111.0,Windows,10,undefined,undefined,1536 x 864,1536 x 864
S015,24,Mannelijk,Rechts,1,45,left,no,200,leftarrow,403,true,focus,yes,237390,Chrome,111.0,Windows,10,undefined,undefined,1536 x 864,1536 x 864
S015,24,Mannelijk,Rechts,1,46,right,no,200,rightarrow,426,true,focus,yes,238592,Chrome,111.0,Windows,10,undefined,undefined,1536 x 864,1536 x 864
S015,24,Mannelijk,Rechts,1,47,left,yes,200,leftarrow,355,false,focus,yes,239715,Chrome,111.0,Windows,10,undefined,undefined,1536 x 864,1536 x 864
S015,24,Mannelijk,Rechts,1,48,right,yes,150,undefined,null,true,focus,yes,241730,Chrome,111.0,Windows,10,undefined,undefined,1536 x 864,1536 x 864
S015,24,Mannelijk,Rechts,1,49,left,yes,200,leftarrow,311,false,focus,yes,242819,Chrome,111.0,Windows,10,undefined,undefined,1536 x 864,1536 x 864
S015,24,Mannelijk,Rechts,1,50,left,no,150,leftarrow,556,true,focus,yes,244152,Chrome,111.0,Windows,10,undefined,undefined,1536 x 864,1536 x 864
S015,24,Mannelijk,Rechts,1,51,right,no,150,rightarrow,338,true,focus,yes,245262,Chrome,111.0,Windows,10,undefined,undefined,1536 x 864,1536 x 864
S015,24,Mannelijk,Rechts,1,52,right,yes,150,rightarrow,399,false,focus,yes,246437,Chrome,111.0,Windows,10,undefined,undefined,1536 x 864,1536 x 864
S015,24,Mannelijk,Rechts,1,53,right,no,100,rightarrow,862,true,focus,yes,248072,Chrome,111.0,Windows,10,undefined,undefined,1536 x 864,1536 x 864
S015,24,Mannelijk,Rechts,1,54,right,no,100,rightarrow,519,true,focus,yes,249354,Chrome,111.0,Windows,10,undefined,undefined,1536 x 864,1536 x 864
S015,24,Mannelijk,Rechts,1,55,left,no,100,leftarrow,411,true,focus,yes,250542,Chrome,111.0,Windows,10,undefined,undefined,1536 x 864,1536 x 864
S015,24,Mannelijk,Rechts,1,56,left,no,100,leftarrow,344,true,focus,yes,251658,Chrome,111.0,Windows,10,undefined,undefined,1536 x 864,1536 x 864
S015,24,Mannelijk,Rechts,1,57,left,yes,100,leftarrow,341,false,focus,yes,252779,Chrome,111.0,Windows,10,undefined,undefined,1536 x 864,1536 x 864
S015,24,Mannelijk,Rechts,1,58,right,yes,50,undefined,null,true,focus,yes,254813,Chrome,111.0,Windows,10,undefined,undefined,1536 x 864,1536 x 864
S015,24,Mannelijk,Rechts,1,59,left,no,100,leftarrow,262,true,focus,yes,255846,Chrome,111.0,Windows,10,undefined,undefined,1536 x 864,1536 x 864
S015,24,Mannelijk,Rechts,1,60,right,no,100,rightarrow,428,true,focus,yes,257044,Chrome,111.0,Windows,10,undefined,undefined,1536 x 864,1536 x 864
S015,24,Mannelijk,Rechts,1,61,left,no,100,leftarrow,386,true,focus,yes,258203,Chrome,111.0,Windows,10,undefined,undefined,1536 x 864,1536 x 864
S015,24,Mannelijk,Rechts,1,62,right,no,100,rightarrow,441,true,focus,yes,259401,Chrome,111.0,Windows,10,undefined,undefined,1536 x 864,1536 x 864
S015,24,Mannelijk,Rechts,1,63,right,no,100,rightarrow,439,true,focus,yes,260611,Chrome,111.0,Windows,10,undefined,undefined,1536 x 864,1536 x 864
S015,24,Mannelijk,Rechts,1,64,left,no,100,leftarrow,377,true,focus,yes,261749,Chrome,111.0,Windows,10,undefined,undefined,1536 x 864,1536 x 864
S015,24,Mannelijk,Rechts,1,65,right,no,100,rightarrow,421,true,focus,yes,262932,Chrome,111.0,Windows,10,undefined,undefined,1536 x 864,1536 x 864
S015,24,Mannelijk,Rechts,1,66,left,yes,100,leftarrow,376,false,focus,yes,264077,Chrome,111.0,Windows,10,undefined,undefined,1536 x 864,1536 x 864
S015,24,Mannelijk,Rechts,1,67,right,no,50,rightarrow,554,true,focus,yes,265404,Chrome,111.0,Windows,10,undefined,undefined,1536 x 864,1536 x 864
S015,24,Mannelijk,Rechts,1,68,right,yes,50,rightarrow,296,false,focus,yes,266475,Chrome,111.0,Windows,10,undefined,undefined,1536 x 864,1536 x 864
S015,24,Mannelijk,Rechts,1,69,left,no,50,leftarrow,402,true,focus,yes,267649,Chrome,111.0,Windows,10,undefined,undefined,1536 x 864,1536 x 864
S015,24,Mannelijk,Rechts,1,70,left,no,50,leftarrow,815,true,focus,yes,269230,Chrome,111.0,Windows,10,undefined,undefined,1536 x 864,1536 x 864
S015,24,Mannelijk,Rechts,1,71,left,no,50,leftarrow,396,true,focus,yes,270398,Chrome,111.0,Windows,10,undefined,undefined,1536 x 864,1536 x 864
S015,24,Mannelijk,Rechts,1,72,right,no,50,rightarrow,454,true,focus,yes,271617,Chrome,111.0,Windows,10,undefined,undefined,1536 x 864,1536 x 864
S015,24,Mannelijk,Rechts,1,73,right,no,50,rightarrow,370,true,focus,yes,272762,Chrome,111.0,Windows,10,undefined,undefined,1536 x 864,1536 x 864
S015,24,Mannelijk,Rechts,1,74,left,no,50,leftarrow,477,true,focus,yes,274004,Chrome,111.0,Windows,10,undefined,undefined,1536 x 864,1536 x 864
S015,24,Mannelijk,Rechts,1,75,right,no,50,rightarrow,525,true,focus,yes,275298,Chrome,111.0,Windows,10,undefined,undefined,1536 x 864,1536 x 864
S015,24,Mannelijk,Rechts,1,76,left,no,50,leftarrow,317,true,focus,yes,276387,Chrome,111.0,Windows,10,undefined,undefined,1536 x 864,1536 x 864
S015,24,Mannelijk,Rechts,1,77,right,no,50,rightarrow,288,true,focus,yes,277449,Chrome,111.0,Windows,10,undefined,undefined,1536 x 864,1536 x 864
S015,24,Mannelijk,Rechts,1,78,right,yes,50,undefined,null,true,focus,yes,279483,Chrome,111.0,Windows,10,undefined,undefined,1536 x 864,1536 x 864
S015,24,Mannelijk,Rechts,1,79,left,yes,100,leftarrow,289,false,focus,yes,280544,Chrome,111.0,Windows,10,undefined,undefined,1536 x 864,1536 x 864
S015,24,Mannelijk,Rechts,1,80,left,no,50,leftarrow,349,true,focus,yes,281666,Chrome,111.0,Windows,10,undefined,undefined,1536 x 864,1536 x 864
S015,24,Mannelijk,Rechts,1,81,left,yes,50,undefined,null,true,focus,yes,283702,Chrome,111.0,Windows,10,undefined,undefined,1536 x 864,1536 x 864
S015,24,Mannelijk,Rechts,1,82,right,no,100,rightarrow,335,true,focus,yes,284804,Chrome,111.0,Windows,10,undefined,undefined,1536 x 864,1536 x 864
S015,24,Mannelijk,Rechts,1,83,left,no,100,leftarrow,401,true,focus,yes,285969,Chrome,111.0,Windows,10,undefined,undefined,1536 x 864,1536 x 864
S015,24,Mannelijk,Rechts,1,84,left,no,100,leftarrow,381,true,focus,yes,287124,Chrome,111.0,Windows,10,undefined,undefined,1536 x 864,1536 x 864
S015,24,Mannelijk,Rechts,1,85,right,no,100,rightarrow,382,true,focus,yes,288274,Chrome,111.0,Windows,10,undefined,undefined,1536 x 864,1536 x 864
S015,24,Mannelijk,Rechts,1,86,right,no,100,rightarrow,330,true,focus,yes,289365,Chrome,111.0,Windows,10,undefined,undefined,1536 x 864,1536 x 864
S015,24,Mannelijk,Rechts,1,87,right,yes,100,rightarrow,335,false,focus,yes,290458,Chrome,111.0,Windows,10,undefined,undefined,1536 x 864,1536 x 864
S015,24,Mannelijk,Rechts,1,88,left,no,50,leftarrow,370,true,focus,yes,291593,Chrome,111.0,Windows,10,undefined,undefined,1536 x 864,1536 x 864
S015,24,Mannelijk,Rechts,1,89,right,no,50,rightarrow,426,true,focus,yes,292779,Chrome,111.0,Windows,10,undefined,undefined,1536 x 864,1536 x 864
S015,24,Mannelijk,Rechts,1,90,right,no,50,rightarrow,350,true,focus,yes,293910,Chrome,111.0,Windows,10,undefined,undefined,1536 x 864,1536 x 864
S015,24,Mannelijk,Rechts,1,91,left,yes,50,undefined,null,true,focus,yes,295948,Chrome,111.0,Windows,10,undefined,undefined,1536 x 864,1536 x 864
S015,24,Mannelijk,Rechts,1,92,right,no,100,rightarrow,363,true,focus,yes,297083,Chrome,111.0,Windows,10,undefined,undefined,1536 x 864,1536 x 864
S015,24,Mannelijk,Rechts,1,93,right,yes,100,undefined,null,true,focus,yes,299109,Chrome,111.0,Windows,10,undefined,undefined,1536 x 864,1536 x 864
S015,24,Mannelijk,Rechts,1,94,left,no,150,leftarrow,332,true,focus,yes,300217,Chrome,111.0,Windows,10,undefined,undefined,1536 x 864,1536 x 864
S015,24,Mannelijk,Rechts,1,95,left,no,150,leftarrow,351,true,focus,yes,301345,Chrome,111.0,Windows,10,undefined,undefined,1536 x 864,1536 x 864
S015,24,Mannelijk,Rechts,1,96,left,no,150,leftarrow,402,true,focus,yes,302512,Chrome,111.0,Windows,10,undefined,undefined,1536 x 864,1536 x 864
S015,24,Mannelijk,Rechts,1,97,right,yes,150,rightarrow,394,false,focus,yes,303679,Chrome,111.0,Windows,10,undefined,undefined,1536 x 864,1536 x 864
S015,24,Mannelijk,Rechts,1,98,left,no,100,leftarrow,673,true,focus,yes,305120,Chrome,111.0,Windows,10,undefined,undefined,1536 x 864,1536 x 864
S015,24,Mannelijk,Rechts,1,99,right,no,100,rightarrow,420,true,focus,yes,306318,Chrome,111.0,Windows,10,undefined,undefined,1536 x 864,1536 x 864
S015,24,Mannelijk,Rechts,1,100,left,no,100,leftarrow,409,true,focus,yes,307497,Chrome,111.0,Windows,10,undefined,undefined,1536 x 864,1536 x 864
S015,24,Mannelijk,Rechts,1,101,right,no,100,rightarrow,541,true,focus,yes,308802,Chrome,111.0,Windows,10,undefined,undefined,1536 x 864,1536 x 864
S015,24,Mannelijk,Rechts,1,102,left,yes,100,undefined,null,true,focus,yes,310849,Chrome,111.0,Windows,10,undefined,undefined,1536 x 864,1536 x 864
S015,24,Mannelijk,Rechts,1,103,left,no,150,leftarrow,420,true,focus,yes,312045,Chrome,111.0,Windows,10,undefined,undefined,1536 x 864,1536 x 864
S015,24,Mannelijk,Rechts,1,104,right,no,150,rightarrow,581,true,focus,yes,313411,Chrome,111.0,Windows,10,undefined,undefined,1536 x 864,1536 x 864
S015,24,Mannelijk,Rechts,1,105,left,no,150,leftarrow,378,true,focus,yes,314572,Chrome,111.0,Windows,10,undefined,undefined,1536 x 864,1536 x 864
S015,24,Mannelijk,Rechts,1,106,left,yes,150,leftarrow,546,false,focus,yes,315885,Chrome,111.0,Windows,10,undefined,undefined,1536 x 864,1536 x 864
S015,24,Mannelijk,Rechts,1,107,right,no,100,rightarrow,344,true,focus,yes,317006,Chrome,111.0,Windows,10,undefined,undefined,1536 x 864,1536 x 864
S015,24,Mannelijk,Rechts,1,108,right,no,100,rightarrow,434,true,focus,yes,318204,Chrome,111.0,Windows,10,undefined,undefined,1536 x 864,1536 x 864
S015,24,Mannelijk,Rechts,1,109,right,no,100,rightarrow,378,true,focus,yes,319345,Chrome,111.0,Windows,10,undefined,undefined,1536 x 864,1536 x 864
S015,24,Mannelijk,Rechts,1,110,right,yes,100,undefined,null,true,focus,yes,321379,Chrome,111.0,Windows,10,undefined,undefined,1536 x 864,1536 x 864
S015,24,Mannelijk,Rechts,1,111,left,no,150,leftarrow,446,true,focus,yes,322592,Chrome,111.0,Windows,10,undefined,undefined,1536 x 864,1536 x 864
S015,24,Mannelijk,Rechts,1,112,left,no,150,leftarrow,477,true,focus,yes,323840,Chrome,111.0,Windows,10,undefined,undefined,1536 x 864,1536 x 864
S015,24,Mannelijk,Rechts,1,113,left,no,150,leftarrow,409,true,focus,yes,325013,Chrome,111.0,Windows,10,undefined,undefined,1536 x 864,1536 x 864
S015,24,Mannelijk,Rechts,1,114,left,no,150,leftarrow,405,true,focus,yes,326189,Chrome,111.0,Windows,10,undefined,undefined,1536 x 864,1536 x 864
S015,24,Mannelijk,Rechts,1,115,right,yes,150,undefined,null,true,focus,yes,328214,Chrome,111.0,Windows,10,undefined,undefined,1536 x 864,1536 x 864
S015,24,Mannelijk,Rechts,1,116,right,no,200,rightarrow,406,true,focus,yes,329396,Chrome,111.0,Windows,10,undefined,undefined,1536 x 864,1536 x 864
S015,24,Mannelijk,Rechts,1,117,right,no,200,rightarrow,286,true,focus,yes,330454,Chrome,111.0,Windows,10,undefined,undefined,1536 x 864,1536 x 864
S015,24,Mannelijk,Rechts,1,118,right,no,200,rightarrow,433,true,focus,yes,331649,Chrome,111.0,Windows,10,undefined,undefined,1536 x 864,1536 x 864
S015,24,Mannelijk,Rechts,1,119,left,no,200,leftarrow,505,true,focus,yes,332918,Chrome,111.0,Windows,10,undefined,undefined,1536 x 864,1536 x 864
S015,24,Mannelijk,Rechts,1,120,left,yes,200,leftarrow,355,false,focus,yes,334040,Chrome,111.0,Windows,10,undefined,undefined,1536 x 864,1536 x 864
S015,24,Mannelijk,Rechts,1,121,right,no,150,rightarrow,449,true,focus,yes,335265,Chrome,111.0,Windows,10,undefined,undefined,1536 x 864,1536 x 864
S015,24,Mannelijk,Rechts,1,122,right,no,150,rightarrow,285,true,focus,yes,336309,Chrome,111.0,Windows,10,undefined,undefined,1536 x 864,1536 x 864
S015,24,Mannelijk,Rechts,1,123,left,no,150,leftarrow,393,true,focus,yes,337482,Chrome,111.0,Windows,10,undefined,undefined,1536 x 864,1536 x 864
S015,24,Mannelijk,Rechts,1,124,right,yes,150,undefined,null,true,focus,yes,339510,Chrome,111.0,Windows,10,undefined,undefined,1536 x 864,1536 x 864
S015,24,Mannelijk,Rechts,1,125,left,no,200,leftarrow,396,true,focus,yes,340682,Chrome,111.0,Windows,10,undefined,undefined,1536 x 864,1536 x 864
S015,24,Mannelijk,Rechts,1,126,left,yes,200,leftarrow,431,false,focus,yes,341899,Chrome,111.0,Windows,10,undefined,undefined,1536 x 864,1536 x 864
S015,24,Mannelijk,Rechts,1,127,right,no,150,leftarrow,558,false,focus,yes,343226,Chrome,111.0,Windows,10,undefined,undefined,1536 x 864,1536 x 864
S015,24,Mannelijk,Rechts,1,128,left,no,150,leftarrow,469,true,focus,yes,344459,Chrome,111.0,Windows,10,undefined,undefined,1536 x 864,1536 x 864
S015,24,Mannelijk,Rechts,2,1,left,no,150,leftarrow,842,true,focus,yes,365032,Chrome,111.0,Windows,10,undefined,undefined,1536 x 864,1536 x 864
S015,24,Mannelijk,Rechts,2,2,left,no,150,leftarrow,569,true,focus,yes,366370,Chrome,111.0,Windows,10,undefined,undefined,1536 x 864,1536 x 864
S015,24,Mannelijk,Rechts,2,3,right,no,150,rightarrow,380,true,focus,yes,367512,Chrome,111.0,Windows,10,undefined,undefined,1536 x 864,1536 x 864
S015,24,Mannelijk,Rechts,2,4,right,yes,150,rightarrow,-74,false,focus,yes,368207,Chrome,111.0,Windows,10,undefined,undefined,1536 x 864,1536 x 864
S015,24,Mannelijk,Rechts,2,5,left,no,100,leftarrow,405,true,focus,yes,369370,Chrome,111.0,Windows,10,undefined,undefined,1536 x 864,1536 x 864
S015,24,Mannelijk,Rechts,2,6,left,yes,100,undefined,null,true,focus,yes,371395,Chrome,111.0,Windows,10,undefined,undefined,1536 x 864,1536 x 864
S015,24,Mannelijk,Rechts,2,7,right,no,150,rightarrow,380,true,focus,yes,372551,Chrome,111.0,Windows,10,undefined,undefined,1536 x 864,1536 x 864
S015,24,Mannelijk,Rechts,2,8,right,no,150,rightarrow,365,true,focus,yes,373693,Chrome,111.0,Windows,10,undefined,undefined,1536 x 864,1536 x 864
S015,24,Mannelijk,Rechts,2,9,right,yes,150,rightarrow,355,false,focus,yes,374814,Chrome,111.0,Windows,10,undefined,undefined,1536 x 864,1536 x 864
S015,24,Mannelijk,Rechts,2,10,right,no,100,rightarrow,570,true,focus,yes,376160,Chrome,111.0,Windows,10,undefined,undefined,1536 x 864,1536 x 864
S015,24,Mannelijk,Rechts,2,11,left,no,100,leftarrow,344,true,focus,yes,377282,Chrome,111.0,Windows,10,undefined,undefined,1536 x 864,1536 x 864
S015,24,Mannelijk,Rechts,2,12,left,no,100,leftarrow,315,true,focus,yes,378367,Chrome,111.0,Windows,10,undefined,undefined,1536 x 864,1536 x 864
S015,24,Mannelijk,Rechts,2,13,right,no,100,rightarrow,408,true,focus,yes,379537,Chrome,111.0,Windows,10,undefined,undefined,1536 x 864,1536 x 864
S015,24,Mannelijk,Rechts,2,14,left,yes,100,leftarrow,378,false,focus,yes,380688,Chrome,111.0,Windows,10,undefined,undefined,1536 x 864,1536 x 864
S015,24,Mannelijk,Rechts,2,15,left,no,50,leftarrow,585,true,focus,yes,382044,Chrome,111.0,Windows,10,undefined,undefined,1536 x 864,1536 x 864
S015,24,Mannelijk,Rechts,2,16,right,no,50,rightarrow,403,true,focus,yes,383227,Chrome,111.0,Windows,10,undefined,undefined,1536 x 864,1536 x 864
S015,24,Mannelijk,Rechts,2,17,right,yes,50,undefined,null,true,focus,yes,385258,Chrome,111.0,Windows,10,undefined,undefined,1536 x 864,1536 x 864
S015,24,Mannelijk,Rechts,2,18,right,no,100,rightarrow,432,true,focus,yes,386461,Chrome,111.0,Windows,10,undefined,undefined,1536 x 864,1536 x 864
S015,24,Mannelijk,Rechts,2,19,left,no,100,leftarrow,413,true,focus,yes,387657,Chrome,111.0,Windows,10,undefined,undefined,1536 x 864,1536 x 864
S015,24,Mannelijk,Rechts,2,20,left,no,100,leftarrow,473,true,focus,yes,388916,Chrome,111.0,Windows,10,undefined,undefined,1536 x 864,1536 x 864
S015,24,Mannelijk,Rechts,2,21,left,no,100,leftarrow,524,true,focus,yes,390209,Chrome,111.0,Windows,10,undefined,undefined,1536 x 864,1536 x 864
S015,24,Mannelijk,Rechts,2,22,right,no,100,rightarrow,554,true,focus,yes,391523,Chrome,111.0,Windows,10,undefined,undefined,1536 x 864,1536 x 864
S015,24,Mannelijk,Rechts,2,23,right,no,100,rightarrow,380,true,focus,yes,392678,Chrome,111.0,Windows,10,undefined,undefined,1536 x 864,1536 x 864
S015,24,Mannelijk,Rechts,2,24,left,yes,100,undefined,null,true,focus,yes,394716,Chrome,111.0,Windows,10,undefined,undefined,1536 x 864,1536 x 864
S015,24,Mannelijk,Rechts,2,25,right,yes,150,undefined,null,true,focus,yes,396760,Chrome,111.0,Windows,10,undefined,undefined,1536 x 864,1536 x 864
S015,24,Mannelijk,Rechts,2,26,left,no,200,leftarrow,395,true,focus,yes,397938,Chrome,111.0,Windows,10,undefined,undefined,1536 x 864,1536 x 864
S015,24,Mannelijk,Rechts,2,27,right,no,200,rightarrow,381,true,focus,yes,399097,Chrome,111.0,Windows,10,undefined,undefined,1536 x 864,1536 x 864
S015,24,Mannelijk,Rechts,2,28,right,no,200,rightarrow,460,true,focus,yes,400330,Chrome,111.0,Windows,10,undefined,undefined,1536 x 864,1536 x 864
S015,24,Mannelijk,Rechts,2,29,left,yes,200,undefined,null,true,focus,yes,402361,Chrome,111.0,Windows,10,undefined,undefined,1536 x 864,1536 x 864
S015,24,Mannelijk,Rechts,2,30,left,no,250,leftarrow,451,true,focus,yes,403581,Chrome,111.0,Windows,10,undefined,undefined,1536 x 864,1536 x 864
S015,24,Mannelijk,Rechts,2,31,left,no,250,leftarrow,382,true,focus,yes,404735,Chrome,111.0,Windows,10,undefined,undefined,1536 x 864,1536 x 864
S015,24,Mannelijk,Rechts,2,32,right,no,250,rightarrow,466,true,focus,yes,405976,Chrome,111.0,Windows,10,undefined,undefined,1536 x 864,1536 x 864
S015,24,Mannelijk,Rechts,2,33,right,no,250,rightarrow,481,true,focus,yes,407227,Chrome,111.0,Windows,10,undefined,undefined,1536 x 864,1536 x 864
S015,24,Mannelijk,Rechts,2,34,left,yes,250,leftarrow,427,false,focus,yes,408427,Chrome,111.0,Windows,10,undefined,undefined,1536 x 864,1536 x 864
S015,24,Mannelijk,Rechts,2,36,right,no,200,rightarrow,419,true,focus,yes,411117,Chrome,111.0,Windows,10,undefined,undefined,1536 x 864,1536 x 864
S015,24,Mannelijk,Rechts,2,35,left,no,200,leftarrow,731,true,focus,yes,409928,Chrome,111.0,Windows,10,undefined,undefined,1536 x 864,1536 x 864
S015,24,Mannelijk,Rechts,2,37,left,no,200,leftarrow,497,true,focus,yes,412392,Chrome,111.0,Windows,10,undefined,undefined,1536 x 864,1536 x 864
S015,24,Mannelijk,Rechts,2,38,right,yes,200,rightarrow,435,false,focus,yes,413603,Chrome,111.0,Windows,10,undefined,undefined,1536 x 864,1536 x 864
S015,24,Mannelijk,Rechts,2,39,left,no,150,leftarrow,335,true,focus,yes,414696,Chrome,111.0,Windows,10,undefined,undefined,1536 x 864,1536 x 864
S015,24,Mannelijk,Rechts,2,40,right,no,150,rightarrow,339,true,focus,yes,415800,Chrome,111.0,Windows,10,undefined,undefined,1536 x 864,1536 x 864
S015,24,Mannelijk,Rechts,2,41,left,no,150,leftarrow,374,true,focus,yes,416949,Chrome,111.0,Windows,10,undefined,undefined,1536 x 864,1536 x 864
S015,24,Mannelijk,Rechts,2,42,left,no,150,leftarrow,376,true,focus,yes,418101,Chrome,111.0,Windows,10,undefined,undefined,1536 x 864,1536 x 864
S015,24,Mannelijk,Rechts,2,43,right,no,150,rightarrow,393,true,focus,yes,419270,Chrome,111.0,Windows,10,undefined,undefined,1536 x 864,1536 x 864
S015,24,Mannelijk,Rechts,2,44,left,yes,150,leftarrow,380,false,focus,yes,420423,Chrome,111.0,Windows,10,undefined,undefined,1536 x 864,1536 x 864
S015,24,Mannelijk,Rechts,2,45,right,no,100,rightarrow,430,true,focus,yes,421619,Chrome,111.0,Windows,10,undefined,undefined,1536 x 864,1536 x 864
S015,24,Mannelijk,Rechts,2,46,right,yes,100,undefined,null,true,focus,yes,423647,Chrome,111.0,Windows,10,undefined,undefined,1536 x 864,1536 x 864
S015,24,Mannelijk,Rechts,2,47,right,no,150,rightarrow,444,true,focus,yes,424868,Chrome,111.0,Windows,10,undefined,undefined,1536 x 864,1536 x 864
S015,24,Mannelijk,Rechts,2,48,left,no,150,leftarrow,463,true,focus,yes,426109,Chrome,111.0,Windows,10,undefined,undefined,1536 x 864,1536 x 864
S015,24,Mannelijk,Rechts,2,49,left,no,150,leftarrow,373,true,focus,yes,427253,Chrome,111.0,Windows,10,undefined,undefined,1536 x 864,1536 x 864
S015,24,Mannelijk,Rechts,2,50,left,no,150,leftarrow,520,true,focus,yes,428549,Chrome,111.0,Windows,10,undefined,undefined,1536 x 864,1536 x 864
S015,24,Mannelijk,Rechts,2,51,left,no,150,leftarrow,530,true,focus,yes,429857,Chrome,111.0,Windows,10,undefined,undefined,1536 x 864,1536 x 864
S015,24,Mannelijk,Rechts,2,52,right,no,150,rightarrow,510,true,focus,yes,431145,Chrome,111.0,Windows,10,undefined,undefined,1536 x 864,1536 x 864
S015,24,Mannelijk,Rechts,2,53,right,no,150,rightarrow,359,true,focus,yes,432268,Chrome,111.0,Windows,10,undefined,undefined,1536 x 864,1536 x 864
S015,24,Mannelijk,Rechts,2,54,right,yes,150,rightarrow,346,false,focus,yes,433386,Chrome,111.0,Windows,10,undefined,undefined,1536 x 864,1536 x 864
S015,24,Mannelijk,Rechts,2,55,right,no,100,rightarrow,1051,true,focus,yes,435197,Chrome,111.0,Windows,10,undefined,undefined,1536 x 864,1536 x 864
S015,24,Mannelijk,Rechts,2,56,left,yes,100,leftarrow,373,false,focus,yes,436339,Chrome,111.0,Windows,10,undefined,undefined,1536 x 864,1536 x 864
S015,24,Mannelijk,Rechts,2,57,left,no,50,leftarrow,476,true,focus,yes,437578,Chrome,111.0,Windows,10,undefined,undefined,1536 x 864,1536 x 864
S015,24,Mannelijk,Rechts,2,58,right,yes,50,undefined,null,true,focus,yes,439593,Chrome,111.0,Windows,10,undefined,undefined,1536 x 864,1536 x 864
S015,24,Mannelijk,Rechts,2,59,right,no,100,rightarrow,334,true,focus,yes,440706,Chrome,111.0,Windows,10,undefined,undefined,1536 x 864,1536 x 864
S015,24,Mannelijk,Rechts,2,60,left,yes,100,undefined,null,true,focus,yes,442717,Chrome,111.0,Windows,10,undefined,undefined,1536 x 864,1536 x 864
S015,24,Mannelijk,Rechts,2,61,right,no,150,rightarrow,363,true,focus,yes,443855,Chrome,111.0,Windows,10,undefined,undefined,1536 x 864,1536 x 864
S015,24,Mannelijk,Rechts,2,62,right,no,150,rightarrow,624,true,focus,yes,445249,Chrome,111.0,Windows,10,undefined,undefined,1536 x 864,1536 x 864
S015,24,Mannelijk,Rechts,2,63,left,no,150,leftarrow,361,true,focus,yes,446383,Chrome,111.0,Windows,10,undefined,undefined,1536 x 864,1536 x 864
S015,24,Mannelijk,Rechts,2,64,left,no,150,leftarrow,372,true,focus,yes,447522,Chrome,111.0,Windows,10,undefined,undefined,1536 x 864,1536 x 864
S015,24,Mannelijk,Rechts,2,65,right,no,150,rightarrow,373,true,focus,yes,448656,Chrome,111.0,Windows,10,undefined,undefined,1536 x 864,1536 x 864
S015,24,Mannelijk,Rechts,2,66,left,no,150,leftarrow,428,true,focus,yes,449850,Chrome,111.0,Windows,10,undefined,undefined,1536 x 864,1536 x 864
S015,24,Mannelijk,Rechts,2,67,right,yes,150,undefined,null,true,focus,yes,451873,Chrome,111.0,Windows,10,undefined,undefined,1536 x 864,1536 x 864
S015,24,Mannelijk,Rechts,2,68,left,yes,200,leftarrow,285,false,focus,yes,452930,Chrome,111.0,Windows,10,undefined,undefined,1536 x 864,1536 x 864
S015,24,Mannelijk,Rechts,2,69,right,no,150,rightarrow,598,true,focus,yes,454302,Chrome,111.0,Windows,10,undefined,undefined,1536 x 864,1536 x 864
S015,24,Mannelijk,Rechts,2,70,left,no,150,leftarrow,919,true,focus,yes,455988,Chrome,111.0,Windows,10,undefined,undefined,1536 x 864,1536 x 864
S015,24,Mannelijk,Rechts,2,71,right,no,150,rightarrow,333,true,focus,yes,457079,Chrome,111.0,Windows,10,undefined,undefined,1536 x 864,1536 x 864
S015,24,Mannelijk,Rechts,2,72,left,no,150,leftarrow,385,true,focus,yes,458247,Chrome,111.0,Windows,10,undefined,undefined,1536 x 864,1536 x 864
S015,24,Mannelijk,Rechts,2,73,left,no,150,leftarrow,425,true,focus,yes,459436,Chrome,111.0,Windows,10,undefined,undefined,1536 x 864,1536 x 864
S015,24,Mannelijk,Rechts,2,74,left,yes,150,undefined,null,true,focus,yes,461480,Chrome,111.0,Windows,10,undefined,undefined,1536 x 864,1536 x 864
S015,24,Mannelijk,Rechts,2,75,right,no,200,rightarrow,348,true,focus,yes,462594,Chrome,111.0,Windows,10,undefined,undefined,1536 x 864,1536 x 864
S015,24,Mannelijk,Rechts,2,76,left,no,200,leftarrow,374,true,focus,yes,463738,Chrome,111.0,Windows,10,undefined,undefined,1536 x 864,1536 x 864
S015,24,Mannelijk,Rechts,2,77,right,no,200,rightarrow,435,true,focus,yes,464936,Chrome,111.0,Windows,10,undefined,undefined,1536 x 864,1536 x 864
S015,24,Mannelijk,Rechts,2,78,right,no,200,rightarrow,346,true,focus,yes,466051,Chrome,111.0,Windows,10,undefined,undefined,1536 x 864,1536 x 864
S015,24,Mannelijk,Rechts,2,79,right,yes,200,undefined,null,true,focus,yes,468064,Chrome,111.0,Windows,10,undefined,undefined,1536 x 864,1536 x 864
S015,24,Mannelijk,Rechts,2,80,left,no,250,leftarrow,326,true,focus,yes,469167,Chrome,111.0,Windows,10,undefined,undefined,1536 x 864,1536 x 864
S015,24,Mannelijk,Rechts,2,81,left,no,250,leftarrow,376,true,focus,yes,470316,Chrome,111.0,Windows,10,undefined,undefined,1536 x 864,1536 x 864
S015,24,Mannelijk,Rechts,2,82,right,no,250,rightarrow,423,true,focus,yes,471512,Chrome,111.0,Windows,10,undefined,undefined,1536 x 864,1536 x 864
S015,24,Mannelijk,Rechts,2,83,left,yes,250,leftarrow,342,false,focus,yes,472622,Chrome,111.0,Windows,10,undefined,undefined,1536 x 864,1536 x 864
S015,24,Mannelijk,Rechts,2,84,right,no,200,rightarrow,427,true,focus,yes,473822,Chrome,111.0,Windows,10,undefined,undefined,1536 x 864,1536 x 864
S015,24,Mannelijk,Rechts,2,85,right,no,200,rightarrow,332,true,focus,yes,474926,Chrome,111.0,Windows,10,undefined,undefined,1536 x 864,1536 x 864
S015,24,Mannelijk,Rechts,2,86,left,no,200,leftarrow,421,true,focus,yes,476123,Chrome,111.0,Windows,10,undefined,undefined,1536 x 864,1536 x 864
S015,24,Mannelijk,Rechts,2,87,right,yes,200,rightarrow,442,false,focus,yes,477347,Chrome,111.0,Windows,10,undefined,undefined,1536 x 864,1536 x 864
S015,24,Mannelijk,Rechts,2,88,left,no,150,leftarrow,522,true,focus,yes,478644,Chrome,111.0,Windows,10,undefined,undefined,1536 x 864,1536 x 864
S015,24,Mannelijk,Rechts,2,89,right,no,150,rightarrow,613,true,focus,yes,480031,Chrome,111.0,Windows,10,undefined,undefined,1536 x 864,1536 x 864
S015,24,Mannelijk,Rechts,2,90,right,no,150,rightarrow,460,true,focus,yes,481260,Chrome,111.0,Windows,10,undefined,undefined,1536 x 864,1536 x 864
S015,24,Mannelijk,Rechts,2,91,left,no,150,leftarrow,432,true,focus,yes,482462,Chrome,111.0,Windows,10,undefined,undefined,1536 x 864,1536 x 864
S015,24,Mannelijk,Rechts,2,92,left,yes,150,undefined,null,true,focus,yes,484484,Chrome,111.0,Windows,10,undefined,undefined,1536 x 864,1536 x 864
S015,24,Mannelijk,Rechts,2,93,left,no,200,leftarrow,461,true,focus,yes,485718,Chrome,111.0,Windows,10,undefined,undefined,1536 x 864,1536 x 864
S015,24,Mannelijk,Rechts,2,94,right,no,200,rightarrow,549,true,focus,yes,487037,Chrome,111.0,Windows,10,undefined,undefined,1536 x 864,1536 x 864
S015,24,Mannelijk,Rechts,2,95,right,yes,200,undefined,null,true,focus,yes,489065,Chrome,111.0,Windows,10,undefined,undefined,1536 x 864,1536 x 864
S015,24,Mannelijk,Rechts,2,96,left,no,250,leftarrow,298,true,focus,yes,490142,Chrome,111.0,Windows,10,undefined,undefined,1536 x 864,1536 x 864
S015,24,Mannelijk,Rechts,2,97,left,no,250,leftarrow,393,true,focus,yes,491300,Chrome,111.0,Windows,10,undefined,undefined,1536 x 864,1536 x 864
S015,24,Mannelijk,Rechts,2,98,right,no,250,rightarrow,890,true,focus,yes,492967,Chrome,111.0,Windows,10,undefined,undefined,1536 x 864,1536 x 864
S015,24,Mannelijk,Rechts,2,99,left,yes,250,leftarrow,447,false,focus,yes,494175,Chrome,111.0,Windows,10,undefined,undefined,1536 x 864,1536 x 864
S015,24,Mannelijk,Rechts,2,100,right,no,200,rightarrow,360,true,focus,yes,495308,Chrome,111.0,Windows,10,undefined,undefined,1536 x 864,1536 x 864
S015,24,Mannelijk,Rechts,2,101,right,no,200,rightarrow,370,true,focus,yes,496444,Chrome,111.0,Windows,10,undefined,undefined,1536 x 864,1536 x 864
S015,24,Mannelijk,Rechts,2,102,right,yes,200,rightarrow,340,false,focus,yes,497548,Chrome,111.0,Windows,10,undefined,undefined,1536 x 864,1536 x 864
S015,24,Mannelijk,Rechts,2,103,left,no,150,leftarrow,590,true,focus,yes,498901,Chrome,111.0,Windows,10,undefined,undefined,1536 x 864,1536 x 864
S015,24,Mannelijk,Rechts,2,104,left,no,150,leftarrow,380,true,focus,yes,500041,Chrome,111.0,Windows,10,undefined,undefined,1536 x 864,1536 x 864
S015,24,Mannelijk,Rechts,2,105,left,no,150,leftarrow,388,true,focus,yes,501201,Chrome,111.0,Windows,10,undefined,undefined,1536 x 864,1536 x 864
S015,24,Mannelijk,Rechts,2,106,right,no,150,rightarrow,468,true,focus,yes,502444,Chrome,111.0,Windows,10,undefined,undefined,1536 x 864,1536 x 864
S015,24,Mannelijk,Rechts,2,107,left,yes,150,undefined,null,true,focus,yes,504469,Chrome,111.0,Windows,10,undefined,undefined,1536 x 864,1536 x 864
S015,24,Mannelijk,Rechts,2,108,right,yes,200,rightarrow,354,false,focus,yes,505591,Chrome,111.0,Windows,10,undefined,undefined,1536 x 864,1536 x 864
S015,24,Mannelijk,Rechts,2,109,right,no,150,rightarrow,459,true,focus,yes,506806,Chrome,111.0,Windows,10,undefined,undefined,1536 x 864,1536 x 864
S015,24,Mannelijk,Rechts,2,110,left,no,150,leftarrow,371,true,focus,yes,507955,Chrome,111.0,Windows,10,undefined,undefined,1536 x 864,1536 x 864
S015,24,Mannelijk,Rechts,2,111,right,no,150,rightarrow,434,true,focus,yes,509162,Chrome,111.0,Windows,10,undefined,undefined,1536 x 864,1536 x 864
S015,24,Mannelijk,Rechts,2,112,left,no,150,leftarrow,443,true,focus,yes,510377,Chrome,111.0,Windows,10,undefined,undefined,1536 x 864,1536 x 864
S015,24,Mannelijk,Rechts,2,113,left,no,150,leftarrow,427,true,focus,yes,511575,Chrome,111.0,Windows,10,undefined,undefined,1536 x 864,1536 x 864
S015,24,Mannelijk,Rechts,2,114,right,no,150,rightarrow,541,true,focus,yes,512895,Chrome,111.0,Windows,10,undefined,undefined,1536 x 864,1536 x 864
S015,24,Mannelijk,Rechts,2,115,right,no,150,leftarrow,608,false,focus,yes,514268,Chrome,111.0,Windows,10,undefined,undefined,1536 x 864,1536 x 864
S015,24,Mannelijk,Rechts,2,116,right,yes,150,undefined,null,true,focus,yes,516293,Chrome,111.0,Windows,10,undefined,undefined,1536 x 864,1536 x 864
S015,24,Mannelijk,Rechts,2,117,left,no,200,leftarrow,367,true,focus,yes,517431,Chrome,111.0,Windows,10,undefined,undefined,1536 x 864,1536 x 864
S015,24,Mannelijk,Rechts,2,118,left,yes,200,leftarrow,396,false,focus,yes,518608,Chrome,111.0,Windows,10,undefined,undefined,1536 x 864,1536 x 864
S015,24,Mannelijk,Rechts,2,119,right,no,150,undefined,null,false,focus,yes,520626,Chrome,111.0,Windows,10,undefined,undefined,1536 x 864,1536 x 864
S015,24,Mannelijk,Rechts,2,120,left,no,150,leftarrow,386,true,focus,yes,521787,Chrome,111.0,Windows,10,undefined,undefined,1536 x 864,1536 x 864
S015,24,Mannelijk,Rechts,2,121,right,yes,150,rightarrow,353,false,focus,yes,522907,Chrome,111.0,Windows,10,undefined,undefined,1536 x 864,1536 x 864
S015,24,Mannelijk,Rechts,2,122,right,no,100,rightarrow,401,true,focus,yes,524087,Chrome,111.0,Windows,10,undefined,undefined,1536 x 864,1536 x 864
S015,24,Mannelijk,Rechts,2,123,left,no,100,leftarrow,409,true,focus,yes,525267,Chrome,111.0,Windows,10,undefined,undefined,1536 x 864,1536 x 864
S015,24,Mannelijk,Rechts,2,124,left,no,100,leftarrow,459,true,focus,yes,526501,Chrome,111.0,Windows,10,undefined,undefined,1536 x 864,1536 x 864
S015,24,Mannelijk,Rechts,2,125,right,no,100,rightarrow,385,true,focus,yes,527650,Chrome,111.0,Windows,10,undefined,undefined,1536 x 864,1536 x 864
S015,24,Mannelijk,Rechts,2,126,right,no,100,rightarrow,670,true,focus,yes,529084,Chrome,111.0,Windows,10,undefined,undefined,1536 x 864,1536 x 864
S015,24,Mannelijk,Rechts,2,127,left,yes,100,undefined,null,true,focus,yes,531117,Chrome,111.0,Windows,10,undefined,undefined,1536 x 864,1536 x 864
S015,24,Mannelijk,Rechts,2,128,left,no,150,leftarrow,328,true,focus,yes,532207,Chrome,111.0,Windows,10,undefined,undefined,1536 x 864,1536 x 864
S015,24,Mannelijk,Rechts,3,1,right,no,150,rightarrow,260,true,focus,yes,550778,Chrome,111.0,Windows,10,undefined,undefined,1536 x 864,1536 x 864
S015,24,Mannelijk,Rechts,3,2,left,no,150,rightarrow,203,false,focus,yes,551750,Chrome,111.0,Windows,10,undefined,undefined,1536 x 864,1536 x 864
S015,24,Mannelijk,Rechts,3,3,right,no,150,rightarrow,334,true,focus,yes,552854,Chrome,111.0,Windows,10,undefined,undefined,1536 x 864,1536 x 864
S015,24,Mannelijk,Rechts,3,4,right,yes,150,rightarrow,313,false,focus,yes,553938,Chrome,111.0,Windows,10,undefined,undefined,1536 x 864,1536 x 864
S015,24,Mannelijk,Rechts,3,5,left,no,100,leftarrow,246,true,focus,yes,554957,Chrome,111.0,Windows,10,undefined,undefined,1536 x 864,1536 x 864
S015,24,Mannelijk,Rechts,3,6,left,yes,100,leftarrow,301,false,focus,yes,556022,Chrome,111.0,Windows,10,undefined,undefined,1536 x 864,1536 x 864
S015,24,Mannelijk,Rechts,3,7,left,no,50,leftarrow,371,true,focus,yes,557168,Chrome,111.0,Windows,10,undefined,undefined,1536 x 864,1536 x 864
S015,24,Mannelijk,Rechts,3,8,right,no,50,rightarrow,320,true,focus,yes,558248,Chrome,111.0,Windows,10,undefined,undefined,1536 x 864,1536 x 864
S015,24,Mannelijk,Rechts,3,9,left,no,50,leftarrow,364,true,focus,yes,559389,Chrome,111.0,Windows,10,undefined,undefined,1536 x 864,1536 x 864
S015,24,Mannelijk,Rechts,3,10,left,yes,50,undefined,null,true,focus,yes,561421,Chrome,111.0,Windows,10,undefined,undefined,1536 x 864,1536 x 864
S015,24,Mannelijk,Rechts,3,11,right,no,100,rightarrow,284,true,focus,yes,562474,Chrome,111.0,Windows,10,undefined,undefined,1536 x 864,1536 x 864
S015,24,Mannelijk,Rechts,3,12,left,no,100,leftarrow,359,true,focus,yes,563611,Chrome,111.0,Windows,10,undefined,undefined,1536 x 864,1536 x 864
S015,24,Mannelijk,Rechts,3,13,right,no,100,rightarrow,457,true,focus,yes,564842,Chrome,111.0,Windows,10,undefined,undefined,1536 x 864,1536 x 864
S015,24,Mannelijk,Rechts,3,14,left,no,100,leftarrow,306,true,focus,yes,565921,Chrome,111.0,Windows,10,undefined,undefined,1536 x 864,1536 x 864
S015,24,Mannelijk,Rechts,3,15,right,no,100,rightarrow,558,true,focus,yes,567257,Chrome,111.0,Windows,10,undefined,undefined,1536 x 864,1536 x 864
S015,24,Mannelijk,Rechts,3,16,right,yes,100,undefined,null,true,focus,yes,569277,Chrome,111.0,Windows,10,undefined,undefined,1536 x 864,1536 x 864
S015,24,Mannelijk,Rechts,3,17,left,no,150,leftarrow,278,true,focus,yes,570341,Chrome,111.0,Windows,10,undefined,undefined,1536 x 864,1536 x 864
S015,24,Mannelijk,Rechts,3,18,right,yes,150,rightarrow,317,false,focus,yes,571432,Chrome,111.0,Windows,10,undefined,undefined,1536 x 864,1536 x 864
S015,24,Mannelijk,Rechts,3,19,left,no,100,leftarrow,279,true,focus,yes,572480,Chrome,111.0,Windows,10,undefined,undefined,1536 x 864,1536 x 864
S015,24,Mannelijk,Rechts,3,20,right,no,100,rightarrow,405,true,focus,yes,573649,Chrome,111.0,Windows,10,undefined,undefined,1536 x 864,1536 x 864
S015,24,Mannelijk,Rechts,3,21,left,yes,100,leftarrow,280,false,focus,yes,574696,Chrome,111.0,Windows,10,undefined,undefined,1536 x 864,1536 x 864
S015,24,Mannelijk,Rechts,3,22,right,no,50,rightarrow,248,true,focus,yes,575712,Chrome,111.0,Windows,10,undefined,undefined,1536 x 864,1536 x 864
S015,24,Mannelijk,Rechts,3,23,left,no,50,leftarrow,390,true,focus,yes,576875,Chrome,111.0,Windows,10,undefined,undefined,1536 x 864,1536 x 864
S015,24,Mannelijk,Rechts,3,24,right,no,50,rightarrow,363,true,focus,yes,578018,Chrome,111.0,Windows,10,undefined,undefined,1536 x 864,1536 x 864
S015,24,Mannelijk,Rechts,3,25,right,no,50,rightarrow,349,true,focus,yes,579130,Chrome,111.0,Windows,10,undefined,undefined,1536 x 864,1536 x 864
S015,24,Mannelijk,Rechts,3,26,right,no,50,rightarrow,266,true,focus,yes,580168,Chrome,111.0,Windows,10,undefined,undefined,1536 x 864,1536 x 864
S015,24,Mannelijk,Rechts,3,27,right,no,50,rightarrow,222,true,focus,yes,581163,Chrome,111.0,Windows,10,undefined,undefined,1536 x 864,1536 x 864
S015,24,Mannelijk,Rechts,3,28,left,no,50,leftarrow,377,true,focus,yes,582320,Chrome,111.0,Windows,10,undefined,undefined,1536 x 864,1536 x 864
S015,24,Mannelijk,Rechts,3,29,left,yes,50,undefined,null,true,focus,yes,584332,Chrome,111.0,Windows,10,undefined,undefined,1536 x 864,1536 x 864
S015,24,Mannelijk,Rechts,3,30,left,no,100,rightarrow,259,false,focus,yes,585361,Chrome,111.0,Windows,10,undefined,undefined,1536 x 864,1536 x 864
S015,24,Mannelijk,Rechts,3,31,left,no,100,leftarrow,377,true,focus,yes,586505,Chrome,111.0,Windows,10,undefined,undefined,1536 x 864,1536 x 864
S015,24,Mannelijk,Rechts,3,32,right,yes,100,undefined,null,true,focus,yes,588530,Chrome,111.0,Windows,10,undefined,undefined,1536 x 864,1536 x 864
S015,24,Mannelijk,Rechts,3,33,left,yes,150,rightarrow,53,false,focus,yes,589363,Chrome,111.0,Windows,10,undefined,undefined,1536 x 864,1536 x 864
S015,24,Mannelijk,Rechts,3,34,left,no,100,leftarrow,820,true,focus,yes,590962,Chrome,111.0,Windows,10,undefined,undefined,1536 x 864,1536 x 864
S015,24,Mannelijk,Rechts,3,35,right,no,100,rightarrow,388,true,focus,yes,592121,Chrome,111.0,Windows,10,undefined,undefined,1536 x 864,1536 x 864
S015,24,Mannelijk,Rechts,3,36,left,no,100,leftarrow,426,true,focus,yes,593316,Chrome,111.0,Windows,10,undefined,undefined,1536 x 864,1536 x 864
S015,24,Mannelijk,Rechts,3,37,left,no,100,leftarrow,335,true,focus,yes,594428,Chrome,111.0,Windows,10,undefined,undefined,1536 x 864,1536 x 864
S015,24,Mannelijk,Rechts,3,38,right,yes,100,rightarrow,477,false,focus,yes,595671,Chrome,111.0,Windows,10,undefined,undefined,1536 x 864,1536 x 864
S015,24,Mannelijk,Rechts,3,39,right,no,50,rightarrow,341,true,focus,yes,596783,Chrome,111.0,Windows,10,undefined,undefined,1536 x 864,1536 x 864
S015,24,Mannelijk,Rechts,3,40,right,no,50,rightarrow,475,true,focus,yes,598025,Chrome,111.0,Windows,10,undefined,undefined,1536 x 864,1536 x 864
S015,24,Mannelijk,Rechts,3,41,left,yes,50,undefined,null,true,focus,yes,600052,Chrome,111.0,Windows,10,undefined,undefined,1536 x 864,1536 x 864
S015,24,Mannelijk,Rechts,3,42,left,no,100,leftarrow,422,true,focus,yes,601244,Chrome,111.0,Windows,10,undefined,undefined,1536 x 864,1536 x 864
S015,24,Mannelijk,Rechts,3,43,left,no,100,leftarrow,305,true,focus,yes,602323,Chrome,111.0,Windows,10,undefined,undefined,1536 x 864,1536 x 864
S015,24,Mannelijk,Rechts,3,44,right,no,100,rightarrow,474,true,focus,yes,603572,Chrome,111.0,Windows,10,undefined,undefined,1536 x 864,1536 x 864
S015,24,Mannelijk,Rechts,3,45,left,no,100,leftarrow,377,true,focus,yes,604727,Chrome,111.0,Windows,10,undefined,undefined,1536 x 864,1536 x 864
S015,24,Mannelijk,Rechts,3,46,right,yes,100,rightarrow,299,false,focus,yes,605807,Chrome,111.0,Windows,10,undefined,undefined,1536 x 864,1536 x 864
S015,24,Mannelijk,Rechts,3,47,right,no,50,rightarrow,398,true,focus,yes,606973,Chrome,111.0,Windows,10,undefined,undefined,1536 x 864,1536 x 864
S015,24,Mannelijk,Rechts,3,48,right,no,50,rightarrow,282,true,focus,yes,608017,Chrome,111.0,Windows,10,undefined,undefined,1536 x 864,1536 x 864
S015,24,Mannelijk,Rechts,3,49,left,no,50,leftarrow,404,true,focus,yes,609200,Chrome,111.0,Windows,10,undefined,undefined,1536 x 864,1536 x 864
S015,24,Mannelijk,Rechts,3,50,left,no,50,leftarrow,439,true,focus,yes,610415,Chrome,111.0,Windows,10,undefined,undefined,1536 x 864,1536 x 864
S015,24,Mannelijk,Rechts,3,51,right,no,50,rightarrow,359,true,focus,yes,611544,Chrome,111.0,Windows,10,undefined,undefined,1536 x 864,1536 x 864
S015,24,Mannelijk,Rechts,3,52,right,no,50,rightarrow,444,true,focus,yes,612760,Chrome,111.0,Windows,10,undefined,undefined,1536 x 864,1536 x 864
S015,24,Mannelijk,Rechts,3,53,left,yes,50,undefined,null,true,focus,yes,614795,Chrome,111.0,Windows,10,undefined,undefined,1536 x 864,1536 x 864
S015,24,Mannelijk,Rechts,3,54,left,no,100,leftarrow,387,true,focus,yes,615950,Chrome,111.0,Windows,10,undefined,undefined,1536 x 864,1536 x 864
S015,24,Mannelijk,Rechts,3,55,right,yes,100,rightarrow,400,false,focus,yes,617118,Chrome,111.0,Windows,10,undefined,undefined,1536 x 864,1536 x 864
S015,24,Mannelijk,Rechts,3,56,right,no,50,rightarrow,415,true,focus,yes,618311,Chrome,111.0,Windows,10,undefined,undefined,1536 x 864,1536 x 864
S015,24,Mannelijk,Rechts,3,57,right,no,50,rightarrow,494,true,focus,yes,619579,Chrome,111.0,Windows,10,undefined,undefined,1536 x 864,1536 x 864
S015,24,Mannelijk,Rechts,3,58,left,no,50,leftarrow,307,true,focus,yes,620662,Chrome,111.0,Windows,10,undefined,undefined,1536 x 864,1536 x 864
S015,24,Mannelijk,Rechts,3,59,right,no,50,rightarrow,351,true,focus,yes,621786,Chrome,111.0,Windows,10,undefined,undefined,1536 x 864,1536 x 864
S015,24,Mannelijk,Rechts,3,60,left,no,50,leftarrow,363,true,focus,yes,622918,Chrome,111.0,Windows,10,undefined,undefined,1536 x 864,1536 x 864
S015,24,Mannelijk,Rechts,3,61,left,no,50,leftarrow,318,true,focus,yes,624008,Chrome,111.0,Windows,10,undefined,undefined,1536 x 864,1536 x 864
S015,24,Mannelijk,Rechts,3,62,right,yes,50,undefined,null,true,focus,yes,626034,Chrome,111.0,Windows,10,undefined,undefined,1536 x 864,1536 x 864
S015,24,Mannelijk,Rechts,3,63,right,no,100,rightarrow,286,true,focus,yes,627089,Chrome,111.0,Windows,10,undefined,undefined,1536 x 864,1536 x 864
S015,24,Mannelijk,Rechts,3,64,left,yes,100,leftarrow,335,false,focus,yes,628188,Chrome,111.0,Windows,10,undefined,undefined,1536 x 864,1536 x 864
S015,24,Mannelijk,Rechts,3,65,right,no,50,rightarrow,447,true,focus,yes,629396,Chrome,111.0,Windows,10,undefined,undefined,1536 x 864,1536 x 864
S015,24,Mannelijk,Rechts,3,66,right,no,50,rightarrow,379,true,focus,yes,630550,Chrome,111.0,Windows,10,undefined,undefined,1536 x 864,1536 x 864
S015,24,Mannelijk,Rechts,3,67,left,yes,50,undefined,null,true,focus,yes,632574,Chrome,111.0,Windows,10,undefined,undefined,1536 x 864,1536 x 864
S015,24,Mannelijk,Rechts,3,68,right,yes,100,rightarrow,388,false,focus,yes,633740,Chrome,111.0,Windows,10,undefined,undefined,1536 x 864,1536 x 864
S015,24,Mannelijk,Rechts,3,69,left,no,50,leftarrow,339,true,focus,yes,634850,Chrome,111.0,Windows,10,undefined,undefined,1536 x 864,1536 x 864
S015,24,Mannelijk,Rechts,3,70,left,no,50,leftarrow,392,true,focus,yes,636017,Chrome,111.0,Windows,10,undefined,undefined,1536 x 864,1536 x 864
S015,24,Mannelijk,Rechts,3,71,left,no,50,leftarrow,353,true,focus,yes,637142,Chrome,111.0,Windows,10,undefined,undefined,1536 x 864,1536 x 864
S015,24,Mannelijk,Rechts,3,72,right,no,50,rightarrow,318,true,focus,yes,638226,Chrome,111.0,Windows,10,undefined,undefined,1536 x 864,1536 x 864
S015,24,Mannelijk,Rechts,3,73,right,yes,50,undefined,null,true,focus,yes,640261,Chrome,111.0,Windows,10,undefined,undefined,1536 x 864,1536 x 864
S015,24,Mannelijk,Rechts,3,74,left,no,100,leftarrow,361,true,focus,yes,641389,Chrome,111.0,Windows,10,undefined,undefined,1536 x 864,1536 x 864
S015,24,Mannelijk,Rechts,3,75,left,yes,100,undefined,null,true,focus,yes,643421,Chrome,111.0,Windows,10,undefined,undefined,1536 x 864,1536 x 864
S015,24,Mannelijk,Rechts,3,76,left,no,150,leftarrow,345,true,focus,yes,644537,Chrome,111.0,Windows,10,undefined,undefined,1536 x 864,1536 x 864
S015,24,Mannelijk,Rechts,3,77,left,no,150,leftarrow,301,true,focus,yes,645616,Chrome,111.0,Windows,10,undefined,undefined,1536 x 864,1536 x 864
S015,24,Mannelijk,Rechts,3,78,right,no,150,rightarrow,501,true,focus,yes,646890,Chrome,111.0,Windows,10,undefined,undefined,1536 x 864,1536 x 864
S015,24,Mannelijk,Rechts,3,79,right,no,150,rightarrow,331,true,focus,yes,647994,Chrome,111.0,Windows,10,undefined,undefined,1536 x 864,1536 x 864
S015,24,Mannelijk,Rechts,3,80,right,no,150,rightarrow,361,true,focus,yes,649123,Chrome,111.0,Windows,10,undefined,undefined,1536 x 864,1536 x 864
S015,24,Mannelijk,Rechts,3,81,left,no,150,leftarrow,426,true,focus,yes,650325,Chrome,111.0,Windows,10,undefined,undefined,1536 x 864,1536 x 864
S015,24,Mannelijk,Rechts,3,82,left,no,150,leftarrow,365,true,focus,yes,651451,Chrome,111.0,Windows,10,undefined,undefined,1536 x 864,1536 x 864
S015,24,Mannelijk,Rechts,3,83,left,yes,150,leftarrow,332,false,focus,yes,652546,Chrome,111.0,Windows,10,undefined,undefined,1536 x 864,1536 x 864
S015,24,Mannelijk,Rechts,3,84,right,yes,100,rightarrow,354,false,focus,yes,653675,Chrome,111.0,Windows,10,undefined,undefined,1536 x 864,1536 x 864
S015,24,Mannelijk,Rechts,3,85,right,no,50,leftarrow,275,false,focus,yes,654715,Chrome,111.0,Windows,10,undefined,undefined,1536 x 864,1536 x 864
S015,24,Mannelijk,Rechts,3,86,right,no,50,rightarrow,699,true,focus,yes,656179,Chrome,111.0,Windows,10,undefined,undefined,1536 x 864,1536 x 864
S015,24,Mannelijk,Rechts,3,87,left,no,50,leftarrow,343,true,focus,yes,657287,Chrome,111.0,Windows,10,undefined,undefined,1536 x 864,1536 x 864
S015,24,Mannelijk,Rechts,3,88,right,no,50,rightarrow,357,true,focus,yes,658417,Chrome,111.0,Windows,10,undefined,undefined,1536 x 864,1536 x 864
S015,24,Mannelijk,Rechts,3,89,left,yes,50,leftarrow,307,false,focus,yes,659492,Chrome,111.0,Windows,10,undefined,undefined,1536 x 864,1536 x 864
S015,24,Mannelijk,Rechts,3,90,left,no,50,leftarrow,434,true,focus,yes,660699,Chrome,111.0,Windows,10,undefined,undefined,1536 x 864,1536 x 864
S015,24,Mannelijk,Rechts,3,91,right,no,50,rightarrow,400,true,focus,yes,661875,Chrome,111.0,Windows,10,undefined,undefined,1536 x 864,1536 x 864
S015,24,Mannelijk,Rechts,3,92,right,no,50,rightarrow,359,true,focus,yes,663009,Chrome,111.0,Windows,10,undefined,undefined,1536 x 864,1536 x 864
S015,24,Mannelijk,Rechts,3,93,right,no,50,rightarrow,326,true,focus,yes,664113,Chrome,111.0,Windows,10,undefined,undefined,1536 x 864,1536 x 864
S015,24,Mannelijk,Rechts,3,94,left,no,50,leftarrow,458,true,focus,yes,665340,Chrome,111.0,Windows,10,undefined,undefined,1536 x 864,1536 x 864
S015,24,Mannelijk,Rechts,3,95,left,no,50,leftarrow,503,true,focus,yes,666614,Chrome,111.0,Windows,10,undefined,undefined,1536 x 864,1536 x 864
S015,24,Mannelijk,Rechts,3,96,right,yes,50,undefined,null,true,focus,yes,668647,Chrome,111.0,Windows,10,undefined,undefined,1536 x 864,1536 x 864
S015,24,Mannelijk,Rechts,3,97,left,no,100,leftarrow,396,true,focus,yes,669812,Chrome,111.0,Windows,10,undefined,undefined,1536 x 864,1536 x 864
S015,24,Mannelijk,Rechts,3,98,left,no,100,leftarrow,417,true,focus,yes,670998,Chrome,111.0,Windows,10,undefined,undefined,1536 x 864,1536 x 864
S015,24,Mannelijk,Rechts,3,99,right,yes,100,undefined,null,true,focus,yes,673025,Chrome,111.0,Windows,10,undefined,undefined,1536 x 864,1536 x 864
S015,24,Mannelijk,Rechts,3,100,left,no,150,rightarrow,245,false,focus,yes,674043,Chrome,111.0,Windows,10,undefined,undefined,1536 x 864,1536 x 864
S015,24,Mannelijk,Rechts,3,101,right,no,150,rightarrow,373,true,focus,yes,675179,Chrome,111.0,Windows,10,undefined,undefined,1536 x 864,1536 x 864
S015,24,Mannelijk,Rechts,3,102,left,yes,150,leftarrow,335,false,focus,yes,676291,Chrome,111.0,Windows,10,undefined,undefined,1536 x 864,1536 x 864
S015,24,Mannelijk,Rechts,3,103,right,no,100,rightarrow,393,true,focus,yes,677458,Chrome,111.0,Windows,10,undefined,undefined,1536 x 864,1536 x 864
S015,24,Mannelijk,Rechts,3,104,right,no,100,rightarrow,302,true,focus,yes,678533,Chrome,111.0,Windows,10,undefined,undefined,1536 x 864,1536 x 864
S015,24,Mannelijk,Rechts,3,105,left,yes,100,leftarrow,378,false,focus,yes,679683,Chrome,111.0,Windows,10,undefined,undefined,1536 x 864,1536 x 864
S015,24,Mannelijk,Rechts,3,106,left,no,50,leftarrow,385,true,focus,yes,680847,Chrome,111.0,Windows,10,undefined,undefined,1536 x 864,1536 x 864
S015,24,Mannelijk,Rechts,3,107,left,no,50,leftarrow,331,true,focus,yes,681941,Chrome,111.0,Windows,10,undefined,undefined,1536 x 864,1536 x 864
S015,24,Mannelijk,Rechts,3,108,right,no,50,rightarrow,469,true,focus,yes,683186,Chrome,111.0,Windows,10,undefined,undefined,1536 x 864,1536 x 864
S015,24,Mannelijk,Rechts,3,109,right,no,50,rightarrow,402,true,focus,yes,684357,Chrome,111.0,Windows,10,undefined,undefined,1536 x 864,1536 x 864
S015,24,Mannelijk,Rechts,3,110,right,no,50,rightarrow,367,true,focus,yes,685499,Chrome,111.0,Windows,10,undefined,undefined,1536 x 864,1536 x 864
S015,24,Mannelijk,Rechts,3,111,right,yes,50,rightarrow,330,false,focus,yes,686598,Chrome,111.0,Windows,10,undefined,undefined,1536 x 864,1536 x 864
S015,24,Mannelijk,Rechts,3,112,left,no,50,leftarrow,462,true,focus,yes,687830,Chrome,111.0,Windows,10,undefined,undefined,1536 x 864,1536 x 864
S015,24,Mannelijk,Rechts,3,113,left,yes,50,undefined,null,true,focus,yes,689854,Chrome,111.0,Windows,10,undefined,undefined,1536 x 864,1536 x 864
S015,24,Mannelijk,Rechts,3,114,left,no,100,leftarrow,365,true,focus,yes,691000,Chrome,111.0,Windows,10,undefined,undefined,1536 x 864,1536 x 864
S015,24,Mannelijk,Rechts,3,115,left,no,100,leftarrow,436,true,focus,yes,692205,Chrome,111.0,Windows,10,undefined,undefined,1536 x 864,1536 x 864
S015,24,Mannelijk,Rechts,3,116,right,no,100,rightarrow,608,true,focus,yes,693590,Chrome,111.0,Windows,10,undefined,undefined,1536 x 864,1536 x 864
S015,24,Mannelijk,Rechts,3,117,left,no,100,leftarrow,374,true,focus,yes,694737,Chrome,111.0,Windows,10,undefined,undefined,1536 x 864,1536 x 864
S015,24,Mannelijk,Rechts,3,118,right,no,100,undefined,null,false,focus,yes,696767,Chrome,111.0,Windows,10,undefined,undefined,1536 x 864,1536 x 864
S015,24,Mannelijk,Rechts,3,119,right,yes,100,rightarrow,291,false,focus,yes,697828,Chrome,111.0,Windows,10,undefined,undefined,1536 x 864,1536 x 864
S015,24,Mannelijk,Rechts,3,120,right,no,50,rightarrow,476,true,focus,yes,699082,Chrome,111.0,Windows,10,undefined,undefined,1536 x 864,1536 x 864
S015,24,Mannelijk,Rechts,3,121,right,yes,50,undefined,null,true,focus,yes,701112,Chrome,111.0,Windows,10,undefined,undefined,1536 x 864,1536 x 864
S015,24,Mannelijk,Rechts,3,122,right,no,100,rightarrow,357,true,focus,yes,702248,Chrome,111.0,Windows,10,undefined,undefined,1536 x 864,1536 x 864
S015,24,Mannelijk,Rechts,3,123,right,no,100,rightarrow,322,true,focus,yes,703346,Chrome,111.0,Windows,10,undefined,undefined,1536 x 864,1536 x 864
S015,24,Mannelijk,Rechts,3,124,left,no,100,leftarrow,379,true,focus,yes,704495,Chrome,111.0,Windows,10,undefined,undefined,1536 x 864,1536 x 864
S015,24,Mannelijk,Rechts,3,125,left,no,100,leftarrow,346,true,focus,yes,705623,Chrome,111.0,Windows,10,undefined,undefined,1536 x 864,1536 x 864
S015,24,Mannelijk,Rechts,3,126,left,no,100,leftarrow,258,true,focus,yes,706645,Chrome,111.0,Windows,10,undefined,undefined,1536 x 864,1536 x 864
S015,24,Mannelijk,Rechts,3,127,left,yes,100,leftarrow,300,false,focus,yes,707709,Chrome,111.0,Windows,10,undefined,undefined,1536 x 864,1536 x 864
S015,24,Mannelijk,Rechts,3,128,right,no,50,leftarrow,257,false,focus,yes,708740,Chrome,111.0,Windows,10,undefined,undefined,1536 x 864,1536 x 864
S015,24,Mannelijk,Rechts,4,1,right,no,50,rightarrow,454,true,focus,no,728166,Chrome,111.0,Windows,10,undefined,undefined,1536 x 864,1536 x 714
S015,24,Mannelijk,Rechts,4,2,right,no,50,rightarrow,197,true,focus,no,729137,Chrome,111.0,Windows,10,undefined,undefined,1536 x 864,1536 x 714
S015,24,Mannelijk,Rechts,4,3,right,yes,50,rightarrow,182,false,focus,no,730085,Chrome,111.0,Windows,10,undefined,undefined,1536 x 864,1536 x 714
S015,24,Mannelijk,Rechts,4,4,left,no,50,leftarrow,304,true,focus,no,731155,Chrome,111.0,Windows,10,undefined,undefined,1536 x 864,1536 x 714
S015,24,Mannelijk,Rechts,4,5,left,no,50,leftarrow,281,true,focus,no,732206,Chrome,111.0,Windows,10,undefined,undefined,1536 x 864,1536 x 714
S015,24,Mannelijk,Rechts,4,6,left,yes,50,leftarrow,291,false,focus,no,733267,Chrome,111.0,Windows,10,undefined,undefined,1536 x 864,1536 x 714
S015,24,Mannelijk,Rechts,4,7,left,no,50,rightarrow,224,false,focus,no,734271,Chrome,111.0,Windows,10,undefined,undefined,1536 x 864,1536 x 714
S015,24,Mannelijk,Rechts,4,8,right,no,50,rightarrow,318,true,focus,no,735356,Chrome,111.0,Windows,10,undefined,undefined,1536 x 864,1536 x 714
S015,24,Mannelijk,Rechts,4,9,right,no,50,rightarrow,235,true,focus,no,736371,Chrome,111.0,Windows,10,undefined,undefined,1536 x 864,1536 x 714
S015,24,Mannelijk,Rechts,4,10,left,no,50,leftarrow,399,true,focus,no,737543,Chrome,111.0,Windows,10,undefined,undefined,1536 x 864,1536 x 714
S015,24,Mannelijk,Rechts,4,11,right,no,50,rightarrow,375,true,focus,no,738694,Chrome,111.0,Windows,10,undefined,undefined,1536 x 864,1536 x 714
S015,24,Mannelijk,Rechts,4,12,right,yes,50,undefined,null,true,focus,no,740728,Chrome,111.0,Windows,10,undefined,undefined,1536 x 864,1536 x 714
S015,24,Mannelijk,Rechts,4,13,left,no,100,leftarrow,279,true,focus,no,741780,Chrome,111.0,Windows,10,undefined,undefined,1536 x 864,1536 x 714
S015,24,Mannelijk,Rechts,4,14,left,no,100,leftarrow,350,true,focus,no,742895,Chrome,111.0,Windows,10,undefined,undefined,1536 x 864,1536 x 714
S015,24,Mannelijk,Rechts,4,15,left,yes,100,leftarrow,276,false,focus,no,743955,Chrome,111.0,Windows,10,undefined,undefined,1536 x 864,1536 x 714
S015,24,Mannelijk,Rechts,4,16,right,no,50,rightarrow,282,true,focus,no,745014,Chrome,111.0,Windows,10,undefined,undefined,1536 x 864,1536 x 714
S015,24,Mannelijk,Rechts,4,17,left,no,50,leftarrow,365,true,focus,no,746145,Chrome,111.0,Windows,10,undefined,undefined,1536 x 864,1536 x 714
S015,24,Mannelijk,Rechts,4,18,right,no,50,rightarrow,334,true,focus,no,747259,Chrome,111.0,Windows,10,undefined,undefined,1536 x 864,1536 x 714
S015,24,Mannelijk,Rechts,4,19,left,no,50,leftarrow,309,true,focus,no,748340,Chrome,111.0,Windows,10,undefined,undefined,1536 x 864,1536 x 714
S015,24,Mannelijk,Rechts,4,20,left,yes,50,undefined,null,true,focus,no,750390,Chrome,111.0,Windows,10,undefined,undefined,1536 x 864,1536 x 714
S015,24,Mannelijk,Rechts,4,21,right,no,100,rightarrow,325,true,focus,no,751486,Chrome,111.0,Windows,10,undefined,undefined,1536 x 864,1536 x 714
S015,24,Mannelijk,Rechts,4,22,right,yes,100,undefined,null,true,focus,no,753507,Chrome,111.0,Windows,10,undefined,undefined,1536 x 864,1536 x 714
S015,24,Mannelijk,Rechts,4,23,right,no,150,rightarrow,280,true,focus,no,754552,Chrome,111.0,Windows,10,undefined,undefined,1536 x 864,1536 x 714
S015,24,Mannelijk,Rechts,4,24,left,no,150,leftarrow,451,true,focus,no,755775,Chrome,111.0,Windows,10,undefined,undefined,1536 x 864,1536 x 714
S015,24,Mannelijk,Rechts,4,25,left,no,150,leftarrow,439,true,focus,no,756987,Chrome,111.0,Windows,10,undefined,undefined,1536 x 864,1536 x 714
S015,24,Mannelijk,Rechts,4,26,right,no,150,rightarrow,513,true,focus,no,758274,Chrome,111.0,Windows,10,undefined,undefined,1536 x 864,1536 x 714
S015,24,Mannelijk,Rechts,4,27,left,yes,150,undefined,null,true,focus,no,760314,Chrome,111.0,Windows,10,undefined,undefined,1536 x 864,1536 x 714
S015,24,Mannelijk,Rechts,4,28,right,no,200,leftarrow,277,false,focus,no,761361,Chrome,111.0,Windows,10,undefined,undefined,1536 x 864,1536 x 714
S015,24,Mannelijk,Rechts,4,29,left,no,200,leftarrow,492,true,focus,no,762618,Chrome,111.0,Windows,10,undefined,undefined,1536 x 864,1536 x 714
S015,24,Mannelijk,Rechts,4,30,right,yes,200,rightarrow,440,false,focus,no,763829,Chrome,111.0,Windows,10,undefined,undefined,1536 x 864,1536 x 714
S015,24,Mannelijk,Rechts,4,31,right,no,150,rightarrow,361,true,focus,no,764967,Chrome,111.0,Windows,10,undefined,undefined,1536 x 864,1536 x 714
S015,24,Mannelijk,Rechts,4,32,left,no,150,leftarrow,526,true,focus,no,766253,Chrome,111.0,Windows,10,undefined,undefined,1536 x 864,1536 x 714
S015,24,Mannelijk,Rechts,4,33,left,no,150,leftarrow,435,true,focus,no,767466,Chrome,111.0,Windows,10,undefined,undefined,1536 x 864,1536 x 714
S015,24,Mannelijk,Rechts,4,34,right,no,150,rightarrow,370,true,focus,no,768624,Chrome,111.0,Windows,10,undefined,undefined,1536 x 864,1536 x 714
S015,24,Mannelijk,Rechts,4,35,right,no,150,rightarrow,466,true,focus,no,769853,Chrome,111.0,Windows,10,undefined,undefined,1536 x 864,1536 x 714
S015,24,Mannelijk,Rechts,4,36,left,no,150,leftarrow,459,true,focus,no,771100,Chrome,111.0,Windows,10,undefined,undefined,1536 x 864,1536 x 714
S015,24,Mannelijk,Rechts,4,37,right,no,150,rightarrow,336,true,focus,no,772210,Chrome,111.0,Windows,10,undefined,undefined,1536 x 864,1536 x 714
S015,24,Mannelijk,Rechts,4,38,left,yes,150,leftarrow,347,false,focus,no,773328,Chrome,111.0,Windows,10,undefined,undefined,1536 x 864,1536 x 714
S015,24,Mannelijk,Rechts,4,39,left,no,100,leftarrow,539,true,focus,no,774635,Chrome,111.0,Windows,10,undefined,undefined,1536 x 864,1536 x 714
S015,24,Mannelijk,Rechts,4,40,right,yes,100,rightarrow,361,false,focus,no,775768,Chrome,111.0,Windows,10,undefined,undefined,1536 x 864,1536 x 714
S015,24,Mannelijk,Rechts,4,41,right,no,50,rightarrow,431,true,focus,no,776975,Chrome,111.0,Windows,10,undefined,undefined,1536 x 864,1536 x 714
S015,24,Mannelijk,Rechts,4,42,left,no,50,leftarrow,403,true,focus,no,778162,Chrome,111.0,Windows,10,undefined,undefined,1536 x 864,1536 x 714
S015,24,Mannelijk,Rechts,4,43,right,no,50,rightarrow,357,true,focus,no,779293,Chrome,111.0,Windows,10,undefined,undefined,1536 x 864,1536 x 714
S015,24,Mannelijk,Rechts,4,44,right,no,50,rightarrow,317,true,focus,no,780377,Chrome,111.0,Windows,10,undefined,undefined,1536 x 864,1536 x 714
S015,24,Mannelijk,Rechts,4,45,left,yes,50,undefined,null,true,focus,no,782402,Chrome,111.0,Windows,10,undefined,undefined,1536 x 864,1536 x 714
S015,24,Mannelijk,Rechts,4,46,left,no,100,leftarrow,279,true,focus,no,783455,Chrome,111.0,Windows,10,undefined,undefined,1536 x 864,1536 x 714
S015,24,Mannelijk,Rechts,4,47,right,yes,100,rightarrow,306,false,focus,no,784535,Chrome,111.0,Windows,10,undefined,undefined,1536 x 864,1536 x 714
S015,24,Mannelijk,Rechts,4,48,left,no,50,leftarrow,393,true,focus,no,785704,Chrome,111.0,Windows,10,undefined,undefined,1536 x 864,1536 x 714
S015,24,Mannelijk,Rechts,4,49,left,yes,50,undefined,null,true,focus,no,787731,Chrome,111.0,Windows,10,undefined,undefined,1536 x 864,1536 x 714
S015,24,Mannelijk,Rechts,4,50,right,no,100,rightarrow,271,true,focus,no,788786,Chrome,111.0,Windows,10,undefined,undefined,1536 x 864,1536 x 714
S015,24,Mannelijk,Rechts,4,51,right,no,100,rightarrow,362,true,focus,no,789920,Chrome,111.0,Windows,10,undefined,undefined,1536 x 864,1536 x 714
S015,24,Mannelijk,Rechts,4,52,left,no,100,leftarrow,461,true,focus,no,791153,Chrome,111.0,Windows,10,undefined,undefined,1536 x 864,1536 x 714
S015,24,Mannelijk,Rechts,4,53,right,no,100,rightarrow,433,true,focus,no,792345,Chrome,111.0,Windows,10,undefined,undefined,1536 x 864,1536 x 714
S015,24,Mannelijk,Rechts,4,54,right,yes,100,undefined,null,true,focus,no,794365,Chrome,111.0,Windows,10,undefined,undefined,1536 x 864,1536 x 714
S015,24,Mannelijk,Rechts,4,55,left,no,150,leftarrow,354,true,focus,no,795487,Chrome,111.0,Windows,10,undefined,undefined,1536 x 864,1536 x 714
S015,24,Mannelijk,Rechts,4,56,left,no,150,leftarrow,381,true,focus,no,796641,Chrome,111.0,Windows,10,undefined,undefined,1536 x 864,1536 x 714
S015,24,Mannelijk,Rechts,4,57,left,no,150,leftarrow,921,true,focus,no,798325,Chrome,111.0,Windows,10,undefined,undefined,1536 x 864,1536 x 714
S015,24,Mannelijk,Rechts,4,58,left,no,150,leftarrow,342,true,focus,no,799444,Chrome,111.0,Windows,10,undefined,undefined,1536 x 864,1536 x 714
S015,24,Mannelijk,Rechts,4,59,left,yes,150,leftarrow,373,false,focus,no,800593,Chrome,111.0,Windows,10,undefined,undefined,1536 x 864,1536 x 714
S015,24,Mannelijk,Rechts,4,60,right,no,100,rightarrow,360,true,focus,no,801719,Chrome,111.0,Windows,10,undefined,undefined,1536 x 864,1536 x 714
S015,24,Mannelijk,Rechts,4,61,right,yes,100,undefined,null,true,focus,no,803750,Chrome,111.0,Windows,10,undefined,undefined,1536 x 864,1536 x 714
S015,24,Mannelijk,Rechts,4,62,right,no,150,rightarrow,377,true,focus,no,804908,Chrome,111.0,Windows,10,undefined,undefined,1536 x 864,1536 x 714
S015,24,Mannelijk,Rechts,4,63,left,no,150,leftarrow,392,true,focus,no,806077,Chrome,111.0,Windows,10,undefined,undefined,1536 x 864,1536 x 714
S015,24,Mannelijk,Rechts,4,64,right,no,150,rightarrow,346,true,focus,no,807204,Chrome,111.0,Windows,10,undefined,undefined,1536 x 864,1536 x 714
S015,24,Mannelijk,Rechts,4,65,right,no,150,rightarrow,393,true,focus,no,808364,Chrome,111.0,Windows,10,undefined,undefined,1536 x 864,1536 x 714
S015,24,Mannelijk,Rechts,4,66,left,no,150,leftarrow,427,true,focus,no,809570,Chrome,111.0,Windows,10,undefined,undefined,1536 x 864,1536 x 714
S015,24,Mannelijk,Rechts,4,67,right,no,150,rightarrow,466,true,focus,no,810809,Chrome,111.0,Windows,10,undefined,undefined,1536 x 864,1536 x 714
S015,24,Mannelijk,Rechts,4,68,left,no,150,leftarrow,353,true,focus,no,811933,Chrome,111.0,Windows,10,undefined,undefined,1536 x 864,1536 x 714
S015,24,Mannelijk,Rechts,4,69,left,yes,150,rightarrow,243,false,focus,no,812956,Chrome,111.0,Windows,10,undefined,undefined,1536 x 864,1536 x 714
S015,24,Mannelijk,Rechts,4,70,right,yes,100,rightarrow,289,false,focus,no,814013,Chrome,111.0,Windows,10,undefined,undefined,1536 x 864,1536 x 714
S015,24,Mannelijk,Rechts,4,71,right,no,50,leftarrow,247,false,focus,no,815021,Chrome,111.0,Windows,10,undefined,undefined,1536 x 864,1536 x 714
S015,24,Mannelijk,Rechts,4,72,left,no,50,leftarrow,394,true,focus,no,816195,Chrome,111.0,Windows,10,undefined,undefined,1536 x 864,1536 x 714
S015,24,Mannelijk,Rechts,4,73,right,no,50,rightarrow,347,true,focus,no,817309,Chrome,111.0,Windows,10,undefined,undefined,1536 x 864,1536 x 714
S015,24,Mannelijk,Rechts,4,74,left,no,50,leftarrow,411,true,focus,no,818494,Chrome,111.0,Windows,10,undefined,undefined,1536 x 864,1536 x 714
S015,24,Mannelijk,Rechts,4,75,left,no,50,leftarrow,358,true,focus,no,819639,Chrome,111.0,Windows,10,undefined,undefined,1536 x 864,1536 x 714
S015,24,Mannelijk,Rechts,4,76,left,yes,50,undefined,null,true,focus,no,821666,Chrome,111.0,Windows,10,undefined,undefined,1536 x 864,1536 x 714
S015,24,Mannelijk,Rechts,4,77,right,no,100,rightarrow,350,true,focus,no,822800,Chrome,111.0,Windows,10,undefined,undefined,1536 x 864,1536 x 714
S015,24,Mannelijk,Rechts,4,78,right,yes,100,rightarrow,335,false,focus,no,823901,Chrome,111.0,Windows,10,undefined,undefined,1536 x 864,1536 x 714
S015,24,Mannelijk,Rechts,4,79,right,no,50,rightarrow,298,true,focus,no,824966,Chrome,111.0,Windows,10,undefined,undefined,1536 x 864,1536 x 714
S015,24,Mannelijk,Rechts,4,80,left,no,50,leftarrow,361,true,focus,no,826099,Chrome,111.0,Windows,10,undefined,undefined,1536 x 864,1536 x 714
S015,24,Mannelijk,Rechts,4,81,left,no,50,leftarrow,330,true,focus,no,827194,Chrome,111.0,Windows,10,undefined,undefined,1536 x 864,1536 x 714
S015,24,Mannelijk,Rechts,4,82,right,no,50,rightarrow,402,true,focus,no,828377,Chrome,111.0,Windows,10,undefined,undefined,1536 x 864,1536 x 714
S015,24,Mannelijk,Rechts,4,83,left,yes,50,undefined,null,true,focus,no,830405,Chrome,111.0,Windows,10,undefined,undefined,1536 x 864,1536 x 714
S015,24,Mannelijk,Rechts,4,84,left,no,100,leftarrow,324,true,focus,no,831491,Chrome,111.0,Windows,10,undefined,undefined,1536 x 864,1536 x 714
S015,24,Mannelijk,Rechts,4,85,left,no,100,leftarrow,346,true,focus,no,832604,Chrome,111.0,Windows,10,undefined,undefined,1536 x 864,1536 x 714
S015,24,Mannelijk,Rechts,4,86,right,yes,100,rightarrow,413,false,focus,no,833793,Chrome,111.0,Windows,10,undefined,undefined,1536 x 864,1536 x 714
S015,24,Mannelijk,Rechts,4,87,right,no,50,rightarrow,293,true,focus,no,834873,Chrome,111.0,Windows,10,undefined,undefined,1536 x 864,1536 x 714
S015,24,Mannelijk,Rechts,4,88,right,no,50,rightarrow,461,true,focus,no,836108,Chrome,111.0,Windows,10,undefined,undefined,1536 x 864,1536 x 714
S015,24,Mannelijk,Rechts,4,89,left,no,50,leftarrow,428,true,focus,no,837307,Chrome,111.0,Windows,10,undefined,undefined,1536 x 864,1536 x 714
S015,24,Mannelijk,Rechts,4,90,left,no,50,leftarrow,383,true,focus,no,838449,Chrome,111.0,Windows,10,undefined,undefined,1536 x 864,1536 x 714
S015,24,Mannelijk,Rechts,4,91,right,yes,50,undefined,null,true,focus,no,840488,Chrome,111.0,Windows,10,undefined,undefined,1536 x 864,1536 x 714
S015,24,Mannelijk,Rechts,4,92,left,yes,100,rightarrow,299,false,focus,no,841557,Chrome,111.0,Windows,10,undefined,undefined,1536 x 864,1536 x 714
S015,24,Mannelijk,Rechts,4,93,right,no,50,rightarrow,351,true,focus,no,842674,Chrome,111.0,Windows,10,undefined,undefined,1536 x 864,1536 x 714
S015,24,Mannelijk,Rechts,4,94,right,no,50,rightarrow,357,true,focus,no,843797,Chrome,111.0,Windows,10,undefined,undefined,1536 x 864,1536 x 714
S015,24,Mannelijk,Rechts,4,95,right,no,50,rightarrow,400,true,focus,no,844979,Chrome,111.0,Windows,10,undefined,undefined,1536 x 864,1536 x 714
S015,24,Mannelijk,Rechts,4,96,left,no,50,leftarrow,400,true,focus,no,846153,Chrome,111.0,Windows,10,undefined,undefined,1536 x 864,1536 x 714
S015,24,Mannelijk,Rechts,4,97,right,no,50,rightarrow,443,true,focus,no,847378,Chrome,111.0,Windows,10,undefined,undefined,1536 x 864,1536 x 714
S015,24,Mannelijk,Rechts,4,98,right,yes,50,undefined,null,true,focus,no,849413,Chrome,111.0,Windows,10,undefined,undefined,1536 x 864,1536 x 714
S015,24,Mannelijk,Rechts,4,99,left,yes,100,leftarrow,358,false,focus,no,850542,Chrome,111.0,Windows,10,undefined,undefined,1536 x 864,1536 x 714
S015,24,Mannelijk,Rechts,4,100,left,no,50,leftarrow,363,true,focus,no,851668,Chrome,111.0,Windows,10,undefined,undefined,1536 x 864,1536 x 714
S015,24,Mannelijk,Rechts,4,101,right,no,50,rightarrow,474,true,focus,no,852914,Chrome,111.0,Windows,10,undefined,undefined,1536 x 864,1536 x 714
S015,24,Mannelijk,Rechts,4,102,left,no,50,leftarrow,381,true,focus,no,854075,Chrome,111.0,Windows,10,undefined,undefined,1536 x 864,1536 x 714
S015,24,Mannelijk,Rechts,4,103,right,no,50,rightarrow,344,true,focus,no,855193,Chrome,111.0,Windows,10,undefined,undefined,1536 x 864,1536 x 714
S015,24,Mannelijk,Rechts,4,104,left,no,50,leftarrow,482,true,focus,no,856444,Chrome,111.0,Windows,10,undefined,undefined,1536 x 864,1536 x 714
S015,24,Mannelijk,Rechts,4,105,left,yes,50,undefined,null,true,focus,no,858478,Chrome,111.0,Windows,10,undefined,undefined,1536 x 864,1536 x 714
S015,24,Mannelijk,Rechts,4,106,left,no,100,leftarrow,297,true,focus,no,859537,Chrome,111.0,Windows,10,undefined,undefined,1536 x 864,1536 x 714
S015,24,Mannelijk,Rechts,4,107,right,no,100,rightarrow,377,true,focus,no,860687,Chrome,111.0,Windows,10,undefined,undefined,1536 x 864,1536 x 714
S015,24,Mannelijk,Rechts,4,108,right,yes,100,undefined,null,true,focus,no,862722,Chrome,111.0,Windows,10,undefined,undefined,1536 x 864,1536 x 714
S015,24,Mannelijk,Rechts,4,109,right,no,150,rightarrow,441,true,focus,no,863934,Chrome,111.0,Windows,10,undefined,undefined,1536 x 864,1536 x 714
S015,24,Mannelijk,Rechts,4,110,left,no,150,leftarrow,481,true,focus,no,865189,Chrome,111.0,Windows,10,undefined,undefined,1536 x 864,1536 x 714
S015,24,Mannelijk,Rechts,4,111,right,no,150,rightarrow,458,true,focus,no,866412,Chrome,111.0,Windows,10,undefined,undefined,1536 x 864,1536 x 714
S015,24,Mannelijk,Rechts,4,112,left,no,150,leftarrow,599,true,focus,no,867780,Chrome,111.0,Windows,10,undefined,undefined,1536 x 864,1536 x 714
S015,24,Mannelijk,Rechts,4,113,left,no,150,leftarrow,406,true,focus,no,868964,Chrome,111.0,Windows,10,undefined,undefined,1536 x 864,1536 x 714
S015,24,Mannelijk,Rechts,4,114,left,yes,150,leftarrow,340,false,focus,no,870087,Chrome,111.0,Windows,10,undefined,undefined,1536 x 864,1536 x 714
S015,24,Mannelijk,Rechts,4,115,left,no,100,leftarrow,401,true,focus,no,871268,Chrome,111.0,Windows,10,undefined,undefined,1536 x 864,1536 x 714
S015,24,Mannelijk,Rechts,4,116,right,yes,100,undefined,null,true,focus,no,873293,Chrome,111.0,Windows,10,undefined,undefined,1536 x 864,1536 x 714
S015,24,Mannelijk,Rechts,4,117,right,no,150,rightarrow,38,true,focus,no,874102,Chrome,111.0,Windows,10,undefined,undefined,1536 x 864,1536 x 714
S015,24,Mannelijk,Rechts,4,118,right,no,150,rightarrow,432,true,focus,no,875304,Chrome,111.0,Windows,10,undefined,undefined,1536 x 864,1536 x 714
S015,24,Mannelijk,Rechts,4,119,right,no,150,rightarrow,452,true,focus,no,876519,Chrome,111.0,Windows,10,undefined,undefined,1536 x 864,1536 x 714
S015,24,Mannelijk,Rechts,4,120,left,no,150,leftarrow,425,true,focus,no,877714,Chrome,111.0,Windows,10,undefined,undefined,1536 x 864,1536 x 714
S015,24,Mannelijk,Rechts,4,121,right,yes,150,rightarrow,434,false,focus,no,878929,Chrome,111.0,Windows,10,undefined,undefined,1536 x 864,1536 x 714
S015,24,Mannelijk,Rechts,4,122,left,no,100,leftarrow,366,true,focus,no,880074,Chrome,111.0,Windows,10,undefined,undefined,1536 x 864,1536 x 714
S015,24,Mannelijk,Rechts,4,123,right,no,100,rightarrow,441,true,focus,no,881294,Chrome,111.0,Windows,10,undefined,undefined,1536 x 864,1536 x 714
S015,24,Mannelijk,Rechts,4,124,left,no,100,leftarrow,391,true,focus,no,882462,Chrome,111.0,Windows,10,undefined,undefined,1536 x 864,1536 x 714
S015,24,Mannelijk,Rechts,4,125,right,no,100,rightarrow,455,true,focus,no,883688,Chrome,111.0,Windows,10,undefined,undefined,1536 x 864,1536 x 714
S015,24,Mannelijk,Rechts,4,126,left,yes,100,undefined,null,true,focus,no,885706,Chrome,111.0,Windows,10,undefined,undefined,1536 x 864,1536 x 714
S015,24,Mannelijk,Rechts,4,127,left,no,150,leftarrow,272,true,focus,no,886752,Chrome,111.0,Windows,10,undefined,undefined,1536 x 864,1536 x 714
S015,24,Mannelijk,Rechts,4,128,right,no,150,rightarrow,431,true,focus,no,887943,Chrome,111.0,Windows,10,undefined,undefined,1536 x 864,1536 x 714
S015,24,Mannelijk,Rechts,5,1,right,no,150,rightarrow,435,true,focus,no,911335,Chrome,111.0,Windows,10,undefined,undefined,1536 x 864,1536 x 714
S015,24,Mannelijk,Rechts,5,2,left,no,150,leftarrow,355,true,focus,no,912457,Chrome,111.0,Windows,10,undefined,undefined,1536 x 864,1536 x 714
S015,24,Mannelijk,Rechts,5,3,left,no,150,leftarrow,276,true,focus,no,913515,Chrome,111.0,Windows,10,undefined,undefined,1536 x 864,1536 x 714
S015,24,Mannelijk,Rechts,5,4,left,no,150,leftarrow,510,true,focus,no,914799,Chrome,111.0,Windows,10,undefined,undefined,1536 x 864,1536 x 714
S015,24,Mannelijk,Rechts,5,5,right,no,150,rightarrow,396,true,focus,no,915975,Chrome,111.0,Windows,10,undefined,undefined,1536 x 864,1536 x 714
S015,24,Mannelijk,Rechts,5,6,left,yes,150,leftarrow,394,false,focus,no,917140,Chrome,111.0,Windows,10,undefined,undefined,1536 x 864,1536 x 714
S015,24,Mannelijk,Rechts,5,7,right,no,100,rightarrow,234,true,focus,no,918139,Chrome,111.0,Windows,10,undefined,undefined,1536 x 864,1536 x 714
S015,24,Mannelijk,Rechts,5,8,right,yes,100,undefined,null,true,focus,no,920174,Chrome,111.0,Windows,10,undefined,undefined,1536 x 864,1536 x 714
S015,24,Mannelijk,Rechts,5,9,right,no,150,rightarrow,340,true,focus,no,921289,Chrome,111.0,Windows,10,undefined,undefined,1536 x 864,1536 x 714
S015,24,Mannelijk,Rechts,5,10,left,yes,150,leftarrow,460,false,focus,no,922523,Chrome,111.0,Windows,10,undefined,undefined,1536 x 864,1536 x 714
S015,24,Mannelijk,Rechts,5,11,right,no,100,rightarrow,326,true,focus,no,923622,Chrome,111.0,Windows,10,undefined,undefined,1536 x 864,1536 x 714
S015,24,Mannelijk,Rechts,5,12,left,no,100,leftarrow,492,true,focus,no,924897,Chrome,111.0,Windows,10,undefined,undefined,1536 x 864,1536 x 714
S015,24,Mannelijk,Rechts,5,13,right,no,100,rightarrow,468,true,focus,no,926136,Chrome,111.0,Windows,10,undefined,undefined,1536 x 864,1536 x 714
S015,24,Mannelijk,Rechts,5,14,left,no,100,leftarrow,379,true,focus,no,927282,Chrome,111.0,Windows,10,undefined,undefined,1536 x 864,1536 x 714
S015,24,Mannelijk,Rechts,5,15,left,no,100,leftarrow,342,true,focus,no,928399,Chrome,111.0,Windows,10,undefined,undefined,1536 x 864,1536 x 714
S015,24,Mannelijk,Rechts,5,16,right,yes,100,rightarrow,396,false,focus,no,929577,Chrome,111.0,Windows,10,undefined,undefined,1536 x 864,1536 x 714
S015,24,Mannelijk,Rechts,5,17,left,no,50,leftarrow,359,true,focus,no,930714,Chrome,111.0,Windows,10,undefined,undefined,1536 x 864,1536 x 714
S015,24,Mannelijk,Rechts,5,18,right,no,50,rightarrow,426,true,focus,no,931922,Chrome,111.0,Windows,10,undefined,undefined,1536 x 864,1536 x 714
S015,24,Mannelijk,Rechts,5,19,right,no,50,rightarrow,359,true,focus,no,933055,Chrome,111.0,Windows,10,undefined,undefined,1536 x 864,1536 x 714
S015,24,Mannelijk,Rechts,5,20,right,no,50,rightarrow,313,true,focus,no,934149,Chrome,111.0,Windows,10,undefined,undefined,1536 x 864,1536 x 714
S015,24,Mannelijk,Rechts,5,21,left,no,50,rightarrow,267,false,focus,no,935195,Chrome,111.0,Windows,10,undefined,undefined,1536 x 864,1536 x 714
S015,24,Mannelijk,Rechts,5,22,right,yes,50,rightarrow,447,false,focus,no,936422,Chrome,111.0,Windows,10,undefined,undefined,1536 x 864,1536 x 714
S015,24,Mannelijk,Rechts,5,23,left,yes,50,undefined,null,true,focus,no,938455,Chrome,111.0,Windows,10,undefined,undefined,1536 x 864,1536 x 714
S015,24,Mannelijk,Rechts,5,24,left,no,100,leftarrow,392,true,focus,no,939631,Chrome,111.0,Windows,10,undefined,undefined,1536 x 864,1536 x 714
S015,24,Mannelijk,Rechts,5,25,right,yes,100,undefined,null,true,focus,no,941666,Chrome,111.0,Windows,10,undefined,undefined,1536 x 864,1536 x 714
S015,24,Mannelijk,Rechts,5,26,left,yes,150,leftarrow,422,false,focus,no,942854,Chrome,111.0,Windows,10,undefined,undefined,1536 x 864,1536 x 714
S015,24,Mannelijk,Rechts,5,27,left,no,100,leftarrow,437,true,focus,no,944064,Chrome,111.0,Windows,10,undefined,undefined,1536 x 864,1536 x 714
S015,24,Mannelijk,Rechts,5,28,left,no,100,leftarrow,365,true,focus,no,945197,Chrome,111.0,Windows,10,undefined,undefined,1536 x 864,1536 x 714
S015,24,Mannelijk,Rechts,5,29,right,no,100,rightarrow,329,true,focus,no,946302,Chrome,111.0,Windows,10,undefined,undefined,1536 x 864,1536 x 714
S015,24,Mannelijk,Rechts,5,30,left,no,100,leftarrow,417,true,focus,no,947490,Chrome,111.0,Windows,10,undefined,undefined,1536 x 864,1536 x 714
S015,24,Mannelijk,Rechts,5,31,right,no,100,rightarrow,337,true,focus,no,948607,Chrome,111.0,Windows,10,undefined,undefined,1536 x 864,1536 x 714
S015,24,Mannelijk,Rechts,5,32,right,no,100,rightarrow,392,true,focus,no,949775,Chrome,111.0,Windows,10,undefined,undefined,1536 x 864,1536 x 714
S015,24,Mannelijk,Rechts,5,33,right,yes,100,undefined,null,true,focus,no,951790,Chrome,111.0,Windows,10,undefined,undefined,1536 x 864,1536 x 714
S015,24,Mannelijk,Rechts,5,34,left,yes,150,leftarrow,339,false,focus,no,952903,Chrome,111.0,Windows,10,undefined,undefined,1536 x 864,1536 x 714
S015,24,Mannelijk,Rechts,5,35,left,no,100,leftarrow,438,true,focus,no,954115,Chrome,111.0,Windows,10,undefined,undefined,1536 x 864,1536 x 714
S015,24,Mannelijk,Rechts,5,36,left,no,100,leftarrow,331,true,focus,no,955216,Chrome,111.0,Windows,10,undefined,undefined,1536 x 864,1536 x 714
S015,24,Mannelijk,Rechts,5,37,left,no,100,leftarrow,371,true,focus,no,956360,Chrome,111.0,Windows,10,undefined,undefined,1536 x 864,1536 x 714
S015,24,Mannelijk,Rechts,5,38,right,no,100,rightarrow,396,true,focus,no,957533,Chrome,111.0,Windows,10,undefined,undefined,1536 x 864,1536 x 714
S015,24,Mannelijk,Rechts,5,39,right,no,100,rightarrow,313,true,focus,no,958622,Chrome,111.0,Windows,10,undefined,undefined,1536 x 864,1536 x 714
S015,24,Mannelijk,Rechts,5,40,right,no,100,rightarrow,349,true,focus,no,959742,Chrome,111.0,Windows,10,undefined,undefined,1536 x 864,1536 x 714
S015,24,Mannelijk,Rechts,5,41,right,no,100,rightarrow,624,true,focus,no,961153,Chrome,111.0,Windows,10,undefined,undefined,1536 x 864,1536 x 714
S015,24,Mannelijk,Rechts,5,42,left,no,100,leftarrow,460,true,focus,no,962383,Chrome,111.0,Windows,10,undefined,undefined,1536 x 864,1536 x 714
S015,24,Mannelijk,Rechts,5,43,left,no,100,leftarrow,533,true,focus,no,963674,Chrome,111.0,Windows,10,undefined,undefined,1536 x 864,1536 x 714
S015,24,Mannelijk,Rechts,5,44,right,yes,100,rightarrow,373,false,focus,no,964820,Chrome,111.0,Windows,10,undefined,undefined,1536 x 864,1536 x 714
S015,24,Mannelijk,Rechts,5,45,right,no,50,rightarrow,499,true,focus,no,966103,Chrome,111.0,Windows,10,undefined,undefined,1536 x 864,1536 x 714
S015,24,Mannelijk,Rechts,5,46,right,no,50,rightarrow,386,true,focus,no,967264,Chrome,111.0,Windows,10,undefined,undefined,1536 x 864,1536 x 714
S015,24,Mannelijk,Rechts,5,47,left,no,50,leftarrow,414,true,focus,no,968447,Chrome,111.0,Windows,10,undefined,undefined,1536 x 864,1536 x 714
S015,24,Mannelijk,Rechts,5,48,left,yes,50,undefined,null,true,focus,no,970481,Chrome,111.0,Windows,10,undefined,undefined,1536 x 864,1536 x 714
S015,24,Mannelijk,Rechts,5,49,right,no,100,rightarrow,409,true,focus,no,971657,Chrome,111.0,Windows,10,undefined,undefined,1536 x 864,1536 x 714
S015,24,Mannelijk,Rechts,5,50,left,yes,100,undefined,null,true,focus,no,973683,Chrome,111.0,Windows,10,undefined,undefined,1536 x 864,1536 x 714
S015,24,Mannelijk,Rechts,5,51,left,no,150,leftarrow,366,true,focus,no,974826,Chrome,111.0,Windows,10,undefined,undefined,1536 x 864,1536 x 714
S015,24,Mannelijk,Rechts,5,52,left,no,150,leftarrow,423,true,focus,no,976022,Chrome,111.0,Windows,10,undefined,undefined,1536 x 864,1536 x 714
S015,24,Mannelijk,Rechts,5,53,right,yes,150,undefined,null,true,focus,no,978048,Chrome,111.0,Windows,10,undefined,undefined,1536 x 864,1536 x 714
S015,24,Mannelijk,Rechts,5,54,right,no,200,rightarrow,358,true,focus,no,979175,Chrome,111.0,Windows,10,undefined,undefined,1536 x 864,1536 x 714
S015,24,Mannelijk,Rechts,5,55,left,no,200,leftarrow,584,true,focus,no,980538,Chrome,111.0,Windows,10,undefined,undefined,1536 x 864,1536 x 714
S015,24,Mannelijk,Rechts,5,56,right,no,200,rightarrow,600,true,focus,no,981919,Chrome,111.0,Windows,10,undefined,undefined,1536 x 864,1536 x 714
S015,24,Mannelijk,Rechts,5,57,right,no,200,rightarrow,544,true,focus,no,983239,Chrome,111.0,Windows,10,undefined,undefined,1536 x 864,1536 x 714
S015,24,Mannelijk,Rechts,5,58,left,no,200,leftarrow,959,true,focus,no,984984,Chrome,111.0,Windows,10,undefined,undefined,1536 x 864,1536 x 714
S015,24,Mannelijk,Rechts,5,59,left,no,200,leftarrow,451,true,focus,no,986210,Chrome,111.0,Windows,10,undefined,undefined,1536 x 864,1536 x 714
S015,24,Mannelijk,Rechts,5,60,right,yes,200,rightarrow,428,false,focus,no,987409,Chrome,111.0,Windows,10,undefined,undefined,1536 x 864,1536 x 714
S015,24,Mannelijk,Rechts,5,61,left,yes,150,leftarrow,419,false,focus,no,988596,Chrome,111.0,Windows,10,undefined,undefined,1536 x 864,1536 x 714
S015,24,Mannelijk,Rechts,5,62,left,no,100,leftarrow,382,true,focus,no,989744,Chrome,111.0,Windows,10,undefined,undefined,1536 x 864,1536 x 714
S015,24,Mannelijk,Rechts,5,63,right,no,100,rightarrow,469,true,focus,no,990983,Chrome,111.0,Windows,10,undefined,undefined,1536 x 864,1536 x 714
S015,24,Mannelijk,Rechts,5,64,right,no,100,rightarrow,638,true,focus,no,992387,Chrome,111.0,Windows,10,undefined,undefined,1536 x 864,1536 x 714
S015,24,Mannelijk,Rechts,5,65,left,no,100,leftarrow,431,true,focus,no,993587,Chrome,111.0,Windows,10,undefined,undefined,1536 x 864,1536 x 714
S015,24,Mannelijk,Rechts,5,66,left,yes,100,undefined,null,true,focus,no,995632,Chrome,111.0,Windows,10,undefined,undefined,1536 x 864,1536 x 714
S015,24,Mannelijk,Rechts,5,67,left,no,150,leftarrow,374,true,focus,no,996777,Chrome,111.0,Windows,10,undefined,undefined,1536 x 864,1536 x 714
S015,24,Mannelijk,Rechts,5,68,right,no,150,rightarrow,480,true,focus,no,998025,Chrome,111.0,Windows,10,undefined,undefined,1536 x 864,1536 x 714
S015,24,Mannelijk,Rechts,5,69,left,no,150,leftarrow,415,true,focus,no,999213,Chrome,111.0,Windows,10,undefined,undefined,1536 x 864,1536 x 714
S015,24,Mannelijk,Rechts,5,70,right,no,150,rightarrow,459,true,focus,no,1000452,Chrome,111.0,Windows,10,undefined,undefined,1536 x 864,1536 x 714
S015,24,Mannelijk,Rechts,5,71,right,no,150,rightarrow,447,true,focus,no,1001685,Chrome,111.0,Windows,10,undefined,undefined,1536 x 864,1536 x 714
S015,24,Mannelijk,Rechts,5,72,right,yes,150,undefined,null,true,focus,no,1003727,Chrome,111.0,Windows,10,undefined,undefined,1536 x 864,1536 x 714
S015,24,Mannelijk,Rechts,5,73,left,no,200,leftarrow,360,true,focus,no,1004865,Chrome,111.0,Windows,10,undefined,undefined,1536 x 864,1536 x 714
S015,24,Mannelijk,Rechts,5,74,right,yes,200,undefined,null,true,focus,no,1006917,Chrome,111.0,Windows,10,undefined,undefined,1536 x 864,1536 x 714
S015,24,Mannelijk,Rechts,5,75,left,no,250,leftarrow,273,true,focus,no,1007963,Chrome,111.0,Windows,10,undefined,undefined,1536 x 864,1536 x 714
S015,24,Mannelijk,Rechts,5,76,right,no,250,rightarrow,415,true,focus,no,1009151,Chrome,111.0,Windows,10,undefined,undefined,1536 x 864,1536 x 714
S015,24,Mannelijk,Rechts,5,77,left,no,250,leftarrow,423,true,focus,no,1010344,Chrome,111.0,Windows,10,undefined,undefined,1536 x 864,1536 x 714
S015,24,Mannelijk,Rechts,5,78,right,no,250,rightarrow,441,true,focus,no,1011569,Chrome,111.0,Windows,10,undefined,undefined,1536 x 864,1536 x 714
S015,24,Mannelijk,Rechts,5,79,left,yes,250,leftarrow,428,false,focus,no,1012758,Chrome,111.0,Windows,10,undefined,undefined,1536 x 864,1536 x 714
S015,24,Mannelijk,Rechts,5,80,right,no,200,rightarrow,368,true,focus,no,1013912,Chrome,111.0,Windows,10,undefined,undefined,1536 x 864,1536 x 714
S015,24,Mannelijk,Rechts,5,81,left,yes,200,leftarrow,319,false,focus,no,1015013,Chrome,111.0,Windows,10,undefined,undefined,1536 x 864,1536 x 714
S015,24,Mannelijk,Rechts,5,82,right,yes,150,rightarrow,345,false,focus,no,1016130,Chrome,111.0,Windows,10,undefined,undefined,1536 x 864,1536 x 714
S015,24,Mannelijk,Rechts,5,83,left,no,100,leftarrow,360,true,focus,no,1017257,Chrome,111.0,Windows,10,undefined,undefined,1536 x 864,1536 x 714
S015,24,Mannelijk,Rechts,5,84,right,no,100,rightarrow,325,true,focus,no,1018363,Chrome,111.0,Windows,10,undefined,undefined,1536 x 864,1536 x 714
S015,24,Mannelijk,Rechts,5,85,left,no,100,leftarrow,401,true,focus,no,1019546,Chrome,111.0,Windows,10,undefined,undefined,1536 x 864,1536 x 714
S015,24,Mannelijk,Rechts,5,86,right,no,100,rightarrow,383,true,focus,no,1020703,Chrome,111.0,Windows,10,undefined,undefined,1536 x 864,1536 x 714
S015,24,Mannelijk,Rechts,5,87,right,no,100,leftarrow,342,false,focus,no,1021815,Chrome,111.0,Windows,10,undefined,undefined,1536 x 864,1536 x 714
S015,24,Mannelijk,Rechts,5,88,left,no,100,leftarrow,330,true,focus,no,1022930,Chrome,111.0,Windows,10,undefined,undefined,1536 x 864,1536 x 714
S015,24,Mannelijk,Rechts,5,89,left,yes,100,undefined,null,true,focus,no,1024961,Chrome,111.0,Windows,10,undefined,undefined,1536 x 864,1536 x 714
S015,24,Mannelijk,Rechts,5,90,right,yes,150,rightarrow,403,false,focus,no,1026134,Chrome,111.0,Windows,10,undefined,undefined,1536 x 864,1536 x 714
S015,24,Mannelijk,Rechts,5,91,left,no,100,leftarrow,734,true,focus,no,1027638,Chrome,111.0,Windows,10,undefined,undefined,1536 x 864,1536 x 714
S015,24,Mannelijk,Rechts,5,92,left,no,100,leftarrow,351,true,focus,no,1028754,Chrome,111.0,Windows,10,undefined,undefined,1536 x 864,1536 x 714
S015,24,Mannelijk,Rechts,5,93,right,no,100,rightarrow,326,true,focus,no,1029852,Chrome,111.0,Windows,10,undefined,undefined,1536 x 864,1536 x 714
S015,24,Mannelijk,Rechts,5,94,right,no,100,rightarrow,421,true,focus,no,1031049,Chrome,111.0,Windows,10,undefined,undefined,1536 x 864,1536 x 714
S015,24,Mannelijk,Rechts,5,95,left,no,100,leftarrow,425,true,focus,no,1032250,Chrome,111.0,Windows,10,undefined,undefined,1536 x 864,1536 x 714
S015,24,Mannelijk,Rechts,5,96,right,no,100,rightarrow,351,true,focus,no,1033382,Chrome,111.0,Windows,10,undefined,undefined,1536 x 864,1536 x 714
S015,24,Mannelijk,Rechts,5,97,right,yes,100,undefined,null,true,focus,no,1035418,Chrome,111.0,Windows,10,undefined,undefined,1536 x 864,1536 x 714
S015,24,Mannelijk,Rechts,5,98,right,no,150,rightarrow,350,true,focus,no,1036531,Chrome,111.0,Windows,10,undefined,undefined,1536 x 864,1536 x 714
S015,24,Mannelijk,Rechts,5,99,left,no,150,leftarrow,633,true,focus,no,1037935,Chrome,111.0,Windows,10,undefined,undefined,1536 x 864,1536 x 714
S015,24,Mannelijk,Rechts,5,100,right,no,150,rightarrow,926,true,focus,no,1039639,Chrome,111.0,Windows,10,undefined,undefined,1536 x 864,1536 x 714
S015,24,Mannelijk,Rechts,5,101,right,no,150,undefined,null,false,focus,no,1041676,Chrome,111.0,Windows,10,undefined,undefined,1536 x 864,1536 x 714
S015,24,Mannelijk,Rechts,5,102,left,yes,150,undefined,null,true,focus,no,1043696,Chrome,111.0,Windows,10,undefined,undefined,1536 x 864,1536 x 714
S015,24,Mannelijk,Rechts,5,103,left,no,200,leftarrow,402,true,focus,no,1044878,Chrome,111.0,Windows,10,undefined,undefined,1536 x 864,1536 x 714
S015,24,Mannelijk,Rechts,5,104,left,no,200,leftarrow,393,true,focus,no,1046055,Chrome,111.0,Windows,10,undefined,undefined,1536 x 864,1536 x 714
S015,24,Mannelijk,Rechts,5,105,left,no,200,leftarrow,675,true,focus,no,1047516,Chrome,111.0,Windows,10,undefined,undefined,1536 x 864,1536 x 714
S015,24,Mannelijk,Rechts,5,106,right,no,200,rightarrow,376,true,focus,no,1048662,Chrome,111.0,Windows,10,undefined,undefined,1536 x 864,1536 x 714
S015,24,Mannelijk,Rechts,5,107,right,yes,200,undefined,null,true,focus,no,1050691,Chrome,111.0,Windows,10,undefined,undefined,1536 x 864,1536 x 714
S015,24,Mannelijk,Rechts,5,108,left,yes,250,leftarrow,438,false,focus,no,1051902,Chrome,111.0,Windows,10,undefined,undefined,1536 x 864,1536 x 714
S015,24,Mannelijk,Rechts,5,109,left,no,200,leftarrow,1037,true,focus,no,1053711,Chrome,111.0,Windows,10,undefined,undefined,1536 x 864,1536 x 714
S015,24,Mannelijk,Rechts,5,110,right,no,200,rightarrow,373,true,focus,no,1054874,Chrome,111.0,Windows,10,undefined,undefined,1536 x 864,1536 x 714
S015,24,Mannelijk,Rechts,5,111,left,no,200,leftarrow,474,true,focus,no,1056118,Chrome,111.0,Windows,10,undefined,undefined,1536 x 864,1536 x 714
S015,24,Mannelijk,Rechts,5,112,right,no,200,rightarrow,379,true,focus,no,1057262,Chrome,111.0,Windows,10,undefined,undefined,1536 x 864,1536 x 714
S015,24,Mannelijk,Rechts,5,113,left,no,200,leftarrow,443,true,focus,no,1058481,Chrome,111.0,Windows,10,undefined,undefined,1536 x 864,1536 x 714
S015,24,Mannelijk,Rechts,5,114,right,yes,200,rightarrow,346,false,focus,no,1059600,Chrome,111.0,Windows,10,undefined,undefined,1536 x 864,1536 x 714
S015,24,Mannelijk,Rechts,5,115,left,no,150,leftarrow,325,true,focus,no,1060704,Chrome,111.0,Windows,10,undefined,undefined,1536 x 864,1536 x 714
S015,24,Mannelijk,Rechts,5,116,left,yes,150,leftarrow,332,false,focus,no,1061811,Chrome,111.0,Windows,10,undefined,undefined,1536 x 864,1536 x 714
S015,24,Mannelijk,Rechts,5,117,right,no,100,rightarrow,594,true,focus,no,1063194,Chrome,111.0,Windows,10,undefined,undefined,1536 x 864,1536 x 714
S015,24,Mannelijk,Rechts,5,118,right,no,100,rightarrow,473,true,focus,no,1064439,Chrome,111.0,Windows,10,undefined,undefined,1536 x 864,1536 x 714
S015,24,Mannelijk,Rechts,5,119,right,no,100,rightarrow,533,true,focus,no,1065747,Chrome,111.0,Windows,10,undefined,undefined,1536 x 864,1536 x 714
S015,24,Mannelijk,Rechts,5,120,left,no,100,leftarrow,715,true,focus,no,1067238,Chrome,111.0,Windows,10,undefined,undefined,1536 x 864,1536 x 714
S015,24,Mannelijk,Rechts,5,121,left,no,100,leftarrow,330,true,focus,no,1068333,Chrome,111.0,Windows,10,undefined,undefined,1536 x 864,1536 x 714
S015,24,Mannelijk,Rechts,5,122,left,no,100,leftarrow,325,true,focus,no,1069428,Chrome,111.0,Windows,10,undefined,undefined,1536 x 864,1536 x 714
S015,24,Mannelijk,Rechts,5,123,right,yes,100,undefined,null,true,focus,no,1071463,Chrome,111.0,Windows,10,undefined,undefined,1536 x 864,1536 x 714
S015,24,Mannelijk,Rechts,5,124,right,no,150,rightarrow,-56,false,focus,no,1072184,Chrome,111.0,Windows,10,undefined,undefined,1536 x 864,1536 x 714
S015,24,Mannelijk,Rechts,5,125,right,no,150,rightarrow,373,true,focus,no,1073332,Chrome,111.0,Windows,10,undefined,undefined,1536 x 864,1536 x 714
S015,24,Mannelijk,Rechts,5,126,left,yes,150,leftarrow,476,false,focus,no,1074576,Chrome,111.0,Windows,10,undefined,undefined,1536 x 864,1536 x 714
S015,24,Mannelijk,Rechts,5,127,left,no,100,leftarrow,250,true,focus,no,1075594,Chrome,111.0,Windows,10,undefined,undefined,1536 x 864,1536 x 714
S015,24,Mannelijk,Rechts,5,128,right,no,100,rightarrow,565,true,focus,no,1076920,Chrome,111.0,Windows,10,undefined,undefined,1536 x 864,1536 x 714
S015,24,Mannelijk,Rechts,6,1,right,no,100,rightarrow,326,true,focus,no,1097082,Chrome,111.0,Windows,10,undefined,undefined,1536 x 864,1536 x 714
S015,24,Mannelijk,Rechts,6,2,left,no,100,rightarrow,212,false,focus,no,1098065,Chrome,111.0,Windows,10,undefined,undefined,1536 x 864,1536 x 714
S015,24,Mannelijk,Rechts,6,3,right,no,100,rightarrow,324,true,focus,no,1099961,Chrome,111.0,Windows,10,undefined,undefined,1536 x 864,1536 x 714
S015,24,Mannelijk,Rechts,6,4,right,yes,100,rightarrow,261,false,focus,no,1100996,Chrome,111.0,Windows,10,undefined,undefined,1536 x 864,1536 x 714
S015,24,Mannelijk,Rechts,6,5,left,no,50,leftarrow,369,true,focus,no,1102136,Chrome,111.0,Windows,10,undefined,undefined,1536 x 864,1536 x 714
S015,24,Mannelijk,Rechts,6,6,right,no,50,rightarrow,416,true,focus,no,1103334,Chrome,111.0,Windows,10,undefined,undefined,1536 x 864,1536 x 714
S015,24,Mannelijk,Rechts,6,7,left,no,50,leftarrow,377,true,focus,no,1104485,Chrome,111.0,Windows,10,undefined,undefined,1536 x 864,1536 x 714
S015,24,Mannelijk,Rechts,6,8,left,yes,50,undefined,null,true,focus,no,1106522,Chrome,111.0,Windows,10,undefined,undefined,1536 x 864,1536 x 714
S015,24,Mannelijk,Rechts,6,9,right,yes,100,undefined,null,true,focus,no,1108552,Chrome,111.0,Windows,10,undefined,undefined,1536 x 864,1536 x 714
S015,24,Mannelijk,Rechts,6,10,left,no,150,leftarrow,372,true,focus,no,1109707,Chrome,111.0,Windows,10,undefined,undefined,1536 x 864,1536 x 714
S015,24,Mannelijk,Rechts,6,11,right,no,150,rightarrow,383,true,focus,no,1110854,Chrome,111.0,Windows,10,undefined,undefined,1536 x 864,1536 x 714
S015,24,Mannelijk,Rechts,6,12,right,no,150,rightarrow,405,true,focus,no,1112034,Chrome,111.0,Windows,10,undefined,undefined,1536 x 864,1536 x 714
S015,24,Mannelijk,Rechts,6,13,right,no,150,rightarrow,355,true,focus,no,1113156,Chrome,111.0,Windows,10,undefined,undefined,1536 x 864,1536 x 714
S015,24,Mannelijk,Rechts,6,14,left,yes,150,leftarrow,423,false,focus,no,1114345,Chrome,111.0,Windows,10,undefined,undefined,1536 x 864,1536 x 714
S015,24,Mannelijk,Rechts,6,15,left,no,100,leftarrow,515,true,focus,no,1115625,Chrome,111.0,Windows,10,undefined,undefined,1536 x 864,1536 x 714
S015,24,Mannelijk,Rechts,6,16,left,no,100,leftarrow,409,true,focus,no,1116817,Chrome,111.0,Windows,10,undefined,undefined,1536 x 864,1536 x 714
S015,24,Mannelijk,Rechts,6,17,left,no,100,leftarrow,376,true,focus,no,1117980,Chrome,111.0,Windows,10,undefined,undefined,1536 x 864,1536 x 714
S015,24,Mannelijk,Rechts,6,18,left,yes,100,undefined,null,true,focus,no,1120016,Chrome,111.0,Windows,10,undefined,undefined,1536 x 864,1536 x 714
S015,24,Mannelijk,Rechts,6,19,right,no,150,rightarrow,413,true,focus,no,1121211,Chrome,111.0,Windows,10,undefined,undefined,1536 x 864,1536 x 714
S015,24,Mannelijk,Rechts,6,20,right,no,150,rightarrow,359,true,focus,no,1122341,Chrome,111.0,Windows,10,undefined,undefined,1536 x 864,1536 x 714
S015,24,Mannelijk,Rechts,6,21,right,yes,150,rightarrow,365,false,focus,no,1123486,Chrome,111.0,Windows,10,undefined,undefined,1536 x 864,1536 x 714
S015,24,Mannelijk,Rechts,6,22,left,no,100,leftarrow,430,true,focus,no,1124684,Chrome,111.0,Windows,10,undefined,undefined,1536 x 864,1536 x 714
S015,24,Mannelijk,Rechts,6,23,right,no,100,rightarrow,446,true,focus,no,1125897,Chrome,111.0,Windows,10,undefined,undefined,1536 x 864,1536 x 714
S015,24,Mannelijk,Rechts,6,24,left,no,100,leftarrow,420,true,focus,no,1127081,Chrome,111.0,Windows,10,undefined,undefined,1536 x 864,1536 x 714
S015,24,Mannelijk,Rechts,6,25,left,no,100,leftarrow,448,true,focus,no,1128296,Chrome,111.0,Windows,10,undefined,undefined,1536 x 864,1536 x 714
S015,24,Mannelijk,Rechts,6,26,left,no,100,leftarrow,395,true,focus,no,1129466,Chrome,111.0,Windows,10,undefined,undefined,1536 x 864,1536 x 714
S015,24,Mannelijk,Rechts,6,27,right,yes,100,undefined,null,true,focus,no,1131507,Chrome,111.0,Windows,10,undefined,undefined,1536 x 864,1536 x 714
S015,24,Mannelijk,Rechts,6,28,right,no,150,rightarrow,420,true,focus,no,1132702,Chrome,111.0,Windows,10,undefined,undefined,1536 x 864,1536 x 714
S015,24,Mannelijk,Rechts,6,29,right,no,150,rightarrow,354,true,focus,no,1133829,Chrome,111.0,Windows,10,undefined,undefined,1536 x 864,1536 x 714
S015,24,Mannelijk,Rechts,6,30,right,no,150,rightarrow,368,true,focus,no,1134959,Chrome,111.0,Windows,10,undefined,undefined,1536 x 864,1536 x 714
S015,24,Mannelijk,Rechts,6,31,left,yes,150,undefined,null,true,focus,no,1136985,Chrome,111.0,Windows,10,undefined,undefined,1536 x 864,1536 x 714
S015,24,Mannelijk,Rechts,6,32,left,no,200,leftarrow,366,true,focus,no,1138123,Chrome,111.0,Windows,10,undefined,undefined,1536 x 864,1536 x 714
S015,24,Mannelijk,Rechts,6,33,left,no,200,leftarrow,451,true,focus,no,1139353,Chrome,111.0,Windows,10,undefined,undefined,1536 x 864,1536 x 714
S015,24,Mannelijk,Rechts,6,34,left,yes,200,undefined,null,true,focus,no,1141385,Chrome,111.0,Windows,10,undefined,undefined,1536 x 864,1536 x 714
S015,24,Mannelijk,Rechts,6,35,right,no,250,rightarrow,604,true,focus,no,1142751,Chrome,111.0,Windows,10,undefined,undefined,1536 x 864,1536 x 714
S015,24,Mannelijk,Rechts,6,36,right,no,250,rightarrow,407,true,focus,no,1143945,Chrome,111.0,Windows,10,undefined,undefined,1536 x 864,1536 x 714
S015,24,Mannelijk,Rechts,6,37,right,yes,250,undefined,null,true,focus,no,1145976,Chrome,111.0,Windows,10,undefined,undefined,1536 x 864,1536 x 714
S015,24,Mannelijk,Rechts,6,38,left,no,300,leftarrow,357,true,focus,no,1147113,Chrome,111.0,Windows,10,undefined,undefined,1536 x 864,1536 x 714
S015,24,Mannelijk,Rechts,6,39,left,no,300,leftarrow,441,true,focus,no,1148328,Chrome,111.0,Windows,10,undefined,undefined,1536 x 864,1536 x 714
