participantID;age;gender;handedness;block_i;trial_i;stim;signal;SSD;response;rt;correct;focus;Fullscreen;time_elapsed;browser_name;browser_version;os_name;os_version;tablet;mobile;screen_resolution;window_resolution
H021;52;Vrouwelijk;Links;0;1;left;no;200;leftarrow;398;true;focus;yes;55503;Chrome;112.0;Windows;10;undefined;undefined;1536 x 864;1536 x 864
H021;52;Vrouwelijk;Links;0;2;right;no;200;rightarrow;401;true;focus;yes;57413;Chrome;112.0;Windows;10;undefined;undefined;1536 x 864;1536 x 864
H021;52;Vrouwelijk;Links;0;3;right;no;200;leftarrow;291;false;focus;yes;59223;Chrome;112.0;Windows;10;undefined;undefined;1536 x 864;1536 x 864
H021;52;Vrouwelijk;Links;0;4;right;no;200;rightarrow;437;true;focus;yes;61178;Chrome;112.0;Windows;10;undefined;undefined;1536 x 864;1536 x 864
H021;52;Vrouwelijk;Links;0;5;left;no;200;leftarrow;323;true;focus;yes;63032;Chrome;112.0;Windows;10;undefined;undefined;1536 x 864;1536 x 864
H021;52;Vrouwelijk;Links;0;6;right;yes;200;rightarrow;408;false;focus;yes;64962;Chrome;112.0;Windows;10;undefined;undefined;1536 x 864;1536 x 864
H021;52;Vrouwelijk;Links;0;7;left;no;150;leftarrow;262;true;focus;yes;66756;Chrome;112.0;Windows;10;undefined;undefined;1536 x 864;1536 x 864
H021;52;Vrouwelijk;Links;0;8;left;yes;150;rightarrow;257;false;focus;yes;68547;Chrome;112.0;Windows;10;undefined;undefined;1536 x 864;1536 x 864
H021;52;Vrouwelijk;Links;1;1;left;yes;100;leftarrow;317;false;focus;yes;88514;Chrome;112.0;Windows;10;undefined;undefined;1536 x 864;1536 x 864
H021;52;Vrouwelijk;Links;1;2;left;no;50;leftarrow;541;true;focus;yes;89815;Chrome;112.0;Windows;10;undefined;undefined;1536 x 864;1536 x 864
H021;52;Vrouwelijk;Links;1;3;left;no;50;leftarrow;340;true;focus;yes;90933;Chrome;112.0;Windows;10;undefined;undefined;1536 x 864;1536 x 864
H021;52;Vrouwelijk;Links;1;4;right;no;50;rightarrow;385;true;focus;yes;92099;Chrome;112.0;Windows;10;undefined;undefined;1536 x 864;1536 x 864
H021;52;Vrouwelijk;Links;1;5;right;no;50;rightarrow;374;true;focus;yes;93241;Chrome;112.0;Windows;10;undefined;undefined;1536 x 864;1536 x 864
H021;52;Vrouwelijk;Links;1;6;left;no;50;leftarrow;287;true;focus;yes;94295;Chrome;112.0;Windows;10;undefined;undefined;1536 x 864;1536 x 864
H021;52;Vrouwelijk;Links;1;7;right;no;50;rightarrow;307;true;focus;yes;95359;Chrome;112.0;Windows;10;undefined;undefined;1536 x 864;1536 x 864
H021;52;Vrouwelijk;Links;1;8;right;yes;50;rightarrow;385;false;focus;yes;96507;Chrome;112.0;Windows;10;undefined;undefined;1536 x 864;1536 x 864
H021;52;Vrouwelijk;Links;1;9;right;yes;50;rightarrow;340;false;focus;yes;97609;Chrome;112.0;Windows;10;undefined;undefined;1536 x 864;1536 x 864
H021;52;Vrouwelijk;Links;1;10;right;no;50;rightarrow;273;true;focus;yes;98650;Chrome;112.0;Windows;10;undefined;undefined;1536 x 864;1536 x 864
H021;52;Vrouwelijk;Links;1;11;left;yes;50;leftarrow;304;false;focus;yes;99729;Chrome;112.0;Windows;10;undefined;undefined;1536 x 864;1536 x 864
H021;52;Vrouwelijk;Links;1;12;left;no;50;leftarrow;343;true;focus;yes;100832;Chrome;112.0;Windows;10;undefined;undefined;1536 x 864;1536 x 864
H021;52;Vrouwelijk;Links;1;13;left;no;50;leftarrow;306;true;focus;yes;101917;Chrome;112.0;Windows;10;undefined;undefined;1536 x 864;1536 x 864
H021;52;Vrouwelijk;Links;1;14;right;no;50;rightarrow;395;true;focus;yes;103073;Chrome;112.0;Windows;10;undefined;undefined;1536 x 864;1536 x 864
H021;52;Vrouwelijk;Links;1;15;right;no;50;rightarrow;348;true;focus;yes;104195;Chrome;112.0;Windows;10;undefined;undefined;1536 x 864;1536 x 864
H021;52;Vrouwelijk;Links;1;16;left;no;50;leftarrow;365;true;focus;yes;105319;Chrome;112.0;Windows;10;undefined;undefined;1536 x 864;1536 x 864
H021;52;Vrouwelijk;Links;1;17;right;no;50;rightarrow;319;true;focus;yes;106404;Chrome;112.0;Windows;10;undefined;undefined;1536 x 864;1536 x 864
H021;52;Vrouwelijk;Links;1;18;right;yes;50;rightarrow;360;false;focus;yes;107538;Chrome;112.0;Windows;10;undefined;undefined;1536 x 864;1536 x 864
H021;52;Vrouwelijk;Links;1;19;left;no;50;leftarrow;348;true;focus;yes;108665;Chrome;112.0;Windows;10;undefined;undefined;1536 x 864;1536 x 864
H021;52;Vrouwelijk;Links;1;20;right;no;50;rightarrow;272;true;focus;yes;109712;Chrome;112.0;Windows;10;undefined;undefined;1536 x 864;1536 x 864
H021;52;Vrouwelijk;Links;1;21;left;yes;50;leftarrow;331;false;focus;yes;110809;Chrome;112.0;Windows;10;undefined;undefined;1536 x 864;1536 x 864
H021;52;Vrouwelijk;Links;1;22;left;no;50;rightarrow;240;false;focus;yes;111814;Chrome;112.0;Windows;10;undefined;undefined;1536 x 864;1536 x 864
H021;52;Vrouwelijk;Links;1;23;right;no;50;rightarrow;315;true;focus;yes;112889;Chrome;112.0;Windows;10;undefined;undefined;1536 x 864;1536 x 864
H021;52;Vrouwelijk;Links;1;24;left;no;50;leftarrow;281;true;focus;yes;113932;Chrome;112.0;Windows;10;undefined;undefined;1536 x 864;1536 x 864
H021;52;Vrouwelijk;Links;1;25;left;no;50;leftarrow;378;true;focus;yes;115088;Chrome;112.0;Windows;10;undefined;undefined;1536 x 864;1536 x 864
H021;52;Vrouwelijk;Links;1;26;right;no;50;rightarrow;339;true;focus;yes;116190;Chrome;112.0;Windows;10;undefined;undefined;1536 x 864;1536 x 864
H021;52;Vrouwelijk;Links;1;27;right;yes;50;leftarrow;380;false;focus;yes;117339;Chrome;112.0;Windows;10;undefined;undefined;1536 x 864;1536 x 864
H021;52;Vrouwelijk;Links;1;28;right;no;50;rightarrow;336;true;focus;yes;118455;Chrome;112.0;Windows;10;undefined;undefined;1536 x 864;1536 x 864
H021;52;Vrouwelijk;Links;1;29;right;no;50;rightarrow;360;true;focus;yes;119580;Chrome;112.0;Windows;10;undefined;undefined;1536 x 864;1536 x 864
H021;52;Vrouwelijk;Links;1;30;left;no;50;leftarrow;380;true;focus;yes;120736;Chrome;112.0;Windows;10;undefined;undefined;1536 x 864;1536 x 864
H021;52;Vrouwelijk;Links;1;31;left;yes;50;leftarrow;324;false;focus;yes;121825;Chrome;112.0;Windows;10;undefined;undefined;1536 x 864;1536 x 864
H021;52;Vrouwelijk;Links;1;32;left;no;50;leftarrow;295;true;focus;yes;122878;Chrome;112.0;Windows;10;undefined;undefined;1536 x 864;1536 x 864
H021;52;Vrouwelijk;Links;1;33;left;no;50;leftarrow;298;true;focus;yes;123944;Chrome;112.0;Windows;10;undefined;undefined;1536 x 864;1536 x 864
H021;52;Vrouwelijk;Links;1;34;left;yes;50;leftarrow;360;false;focus;yes;125069;Chrome;112.0;Windows;10;undefined;undefined;1536 x 864;1536 x 864
H021;52;Vrouwelijk;Links;1;35;right;no;50;rightarrow;305;true;focus;yes;126154;Chrome;112.0;Windows;10;undefined;undefined;1536 x 864;1536 x 864
H021;52;Vrouwelijk;Links;1;36;right;yes;50;rightarrow;356;false;focus;yes;127267;Chrome;112.0;Windows;10;undefined;undefined;1536 x 864;1536 x 864
H021;52;Vrouwelijk;Links;1;37;left;no;50;leftarrow;273;true;focus;yes;128308;Chrome;112.0;Windows;10;undefined;undefined;1536 x 864;1536 x 864
H021;52;Vrouwelijk;Links;1;38;right;no;50;rightarrow;296;true;focus;yes;129369;Chrome;112.0;Windows;10;undefined;undefined;1536 x 864;1536 x 864
H021;52;Vrouwelijk;Links;1;39;right;no;50;rightarrow;344;true;focus;yes;130478;Chrome;112.0;Windows;10;undefined;undefined;1536 x 864;1536 x 864
H021;52;Vrouwelijk;Links;1;40;left;no;50;leftarrow;324;true;focus;yes;131581;Chrome;112.0;Windows;10;undefined;undefined;1536 x 864;1536 x 864
H021;52;Vrouwelijk;Links;1;41;left;yes;50;leftarrow;293;false;focus;yes;132654;Chrome;112.0;Windows;10;undefined;undefined;1536 x 864;1536 x 864
H021;52;Vrouwelijk;Links;1;42;right;no;50;rightarrow;251;true;focus;yes;133677;Chrome;112.0;Windows;10;undefined;undefined;1536 x 864;1536 x 864
H021;52;Vrouwelijk;Links;1;43;left;no;50;leftarrow;326;true;focus;yes;134779;Chrome;112.0;Windows;10;undefined;undefined;1536 x 864;1536 x 864
H021;52;Vrouwelijk;Links;1;44;right;no;50;rightarrow;292;true;focus;yes;135826;Chrome;112.0;Windows;10;undefined;undefined;1536 x 864;1536 x 864
H021;52;Vrouwelijk;Links;1;45;right;yes;50;rightarrow;282;false;focus;yes;136885;Chrome;112.0;Windows;10;undefined;undefined;1536 x 864;1536 x 864
H021;52;Vrouwelijk;Links;1;46;left;no;50;leftarrow;300;true;focus;yes;137965;Chrome;112.0;Windows;10;undefined;undefined;1536 x 864;1536 x 864
H021;52;Vrouwelijk;Links;1;47;left;no;50;leftarrow;347;true;focus;yes;139090;Chrome;112.0;Windows;10;undefined;undefined;1536 x 864;1536 x 864
H021;52;Vrouwelijk;Links;1;48;right;no;50;rightarrow;352;true;focus;yes;140216;Chrome;112.0;Windows;10;undefined;undefined;1536 x 864;1536 x 864
H021;52;Vrouwelijk;Links;1;49;left;no;50;leftarrow;351;true;focus;yes;141340;Chrome;112.0;Windows;10;undefined;undefined;1536 x 864;1536 x 864
H021;52;Vrouwelijk;Links;1;50;right;no;50;rightarrow;307;true;focus;yes;142426;Chrome;112.0;Windows;10;undefined;undefined;1536 x 864;1536 x 864
H021;52;Vrouwelijk;Links;1;51;left;yes;50;leftarrow;272;false;focus;yes;143456;Chrome;112.0;Windows;10;undefined;undefined;1536 x 864;1536 x 864
H021;52;Vrouwelijk;Links;1;52;left;no;50;leftarrow;314;true;focus;yes;144539;Chrome;112.0;Windows;10;undefined;undefined;1536 x 864;1536 x 864
H021;52;Vrouwelijk;Links;1;53;right;no;50;rightarrow;346;true;focus;yes;145662;Chrome;112.0;Windows;10;undefined;undefined;1536 x 864;1536 x 864
H021;52;Vrouwelijk;Links;1;54;left;no;50;leftarrow;334;true;focus;yes;146777;Chrome;112.0;Windows;10;undefined;undefined;1536 x 864;1536 x 864
H021;52;Vrouwelijk;Links;1;55;right;yes;50;rightarrow;271;false;focus;yes;147823;Chrome;112.0;Windows;10;undefined;undefined;1536 x 864;1536 x 864
H021;52;Vrouwelijk;Links;1;56;right;no;50;rightarrow;383;true;focus;yes;148985;Chrome;112.0;Windows;10;undefined;undefined;1536 x 864;1536 x 864
H021;52;Vrouwelijk;Links;1;57;right;no;50;rightarrow;357;true;focus;yes;150113;Chrome;112.0;Windows;10;undefined;undefined;1536 x 864;1536 x 864
H021;52;Vrouwelijk;Links;1;58;left;no;50;leftarrow;296;true;focus;yes;151181;Chrome;112.0;Windows;10;undefined;undefined;1536 x 864;1536 x 864
H021;52;Vrouwelijk;Links;1;59;left;no;50;leftarrow;269;true;focus;yes;152225;Chrome;112.0;Windows;10;undefined;undefined;1536 x 864;1536 x 864
H021;52;Vrouwelijk;Links;1;60;right;yes;50;rightarrow;330;false;focus;yes;153322;Chrome;112.0;Windows;10;undefined;undefined;1536 x 864;1536 x 864
H021;52;Vrouwelijk;Links;1;61;left;no;50;leftarrow;257;true;focus;yes;154356;Chrome;112.0;Windows;10;undefined;undefined;1536 x 864;1536 x 864
H021;52;Vrouwelijk;Links;1;62;right;no;50;rightarrow;316;true;focus;yes;155450;Chrome;112.0;Windows;10;undefined;undefined;1536 x 864;1536 x 864
H021;52;Vrouwelijk;Links;1;63;right;no;50;leftarrow;271;false;focus;yes;156483;Chrome;112.0;Windows;10;undefined;undefined;1536 x 864;1536 x 864
H021;52;Vrouwelijk;Links;1;64;left;yes;50;leftarrow;359;false;focus;yes;157604;Chrome;112.0;Windows;10;undefined;undefined;1536 x 864;1536 x 864
H021;52;Vrouwelijk;Links;1;65;left;yes;50;leftarrow;507;false;focus;yes;158890;Chrome;112.0;Windows;10;undefined;undefined;1536 x 864;1536 x 864
H021;52;Vrouwelijk;Links;1;66;left;no;50;leftarrow;243;true;focus;yes;159893;Chrome;112.0;Windows;10;undefined;undefined;1536 x 864;1536 x 864
H021;52;Vrouwelijk;Links;1;67;left;no;50;leftarrow;272;true;focus;yes;160924;Chrome;112.0;Windows;10;undefined;undefined;1536 x 864;1536 x 864
H021;52;Vrouwelijk;Links;1;68;right;no;50;rightarrow;339;true;focus;yes;162035;Chrome;112.0;Windows;10;undefined;undefined;1536 x 864;1536 x 864
H021;52;Vrouwelijk;Links;1;69;right;no;50;rightarrow;288;true;focus;yes;163093;Chrome;112.0;Windows;10;undefined;undefined;1536 x 864;1536 x 864
H021;52;Vrouwelijk;Links;1;70;right;no;50;rightarrow;334;true;focus;yes;164197;Chrome;112.0;Windows;10;undefined;undefined;1536 x 864;1536 x 864
H021;52;Vrouwelijk;Links;1;71;right;yes;50;rightarrow;340;false;focus;yes;165317;Chrome;112.0;Windows;10;undefined;undefined;1536 x 864;1536 x 864
H021;52;Vrouwelijk;Links;1;72;left;no;50;rightarrow;329;false;focus;yes;166400;Chrome;112.0;Windows;10;undefined;undefined;1536 x 864;1536 x 864
H021;52;Vrouwelijk;Links;1;73;left;no;50;leftarrow;384;true;focus;yes;167549;Chrome;112.0;Windows;10;undefined;undefined;1536 x 864;1536 x 864
H021;52;Vrouwelijk;Links;1;74;right;no;50;rightarrow;333;true;focus;yes;168638;Chrome;112.0;Windows;10;undefined;undefined;1536 x 864;1536 x 864
H021;52;Vrouwelijk;Links;1;75;right;no;50;rightarrow;305;true;focus;yes;169716;Chrome;112.0;Windows;10;undefined;undefined;1536 x 864;1536 x 864
H021;52;Vrouwelijk;Links;1;76;left;yes;50;leftarrow;382;false;focus;yes;170860;Chrome;112.0;Windows;10;undefined;undefined;1536 x 864;1536 x 864
H021;52;Vrouwelijk;Links;1;77;left;no;50;leftarrow;281;true;focus;yes;171907;Chrome;112.0;Windows;10;undefined;undefined;1536 x 864;1536 x 864
H021;52;Vrouwelijk;Links;1;78;right;no;50;rightarrow;303;true;focus;yes;172976;Chrome;112.0;Windows;10;undefined;undefined;1536 x 864;1536 x 864
H021;52;Vrouwelijk;Links;1;79;left;no;50;leftarrow;345;true;focus;yes;174098;Chrome;112.0;Windows;10;undefined;undefined;1536 x 864;1536 x 864
H021;52;Vrouwelijk;Links;1;80;right;yes;50;rightarrow;261;false;focus;yes;175113;Chrome;112.0;Windows;10;undefined;undefined;1536 x 864;1536 x 864
H021;52;Vrouwelijk;Links;1;81;left;no;50;leftarrow;271;true;focus;yes;176155;Chrome;112.0;Windows;10;undefined;undefined;1536 x 864;1536 x 864
H021;52;Vrouwelijk;Links;1;82;left;no;50;leftarrow;265;true;focus;yes;177193;Chrome;112.0;Windows;10;undefined;undefined;1536 x 864;1536 x 864
H021;52;Vrouwelijk;Links;1;83;right;yes;50;rightarrow;381;false;focus;yes;178355;Chrome;112.0;Windows;10;undefined;undefined;1536 x 864;1536 x 864
H021;52;Vrouwelijk;Links;1;84;left;yes;50;leftarrow;269;false;focus;yes;179388;Chrome;112.0;Windows;10;undefined;undefined;1536 x 864;1536 x 864
H021;52;Vrouwelijk;Links;1;85;right;no;50;rightarrow;407;true;focus;yes;180569;Chrome;112.0;Windows;10;undefined;undefined;1536 x 864;1536 x 864
H021;52;Vrouwelijk;Links;1;86;left;no;50;leftarrow;309;true;focus;yes;181648;Chrome;112.0;Windows;10;undefined;undefined;1536 x 864;1536 x 864
H021;52;Vrouwelijk;Links;1;87;right;no;50;leftarrow;249;false;focus;yes;182679;Chrome;112.0;Windows;10;undefined;undefined;1536 x 864;1536 x 864
H021;52;Vrouwelijk;Links;1;88;right;no;50;rightarrow;350;true;focus;yes;183813;Chrome;112.0;Windows;10;undefined;undefined;1536 x 864;1536 x 864
H021;52;Vrouwelijk;Links;1;89;left;no;50;leftarrow;305;true;focus;yes;184890;Chrome;112.0;Windows;10;undefined;undefined;1536 x 864;1536 x 864
H021;52;Vrouwelijk;Links;1;90;right;no;50;rightarrow;297;true;focus;yes;185963;Chrome;112.0;Windows;10;undefined;undefined;1536 x 864;1536 x 864
H021;52;Vrouwelijk;Links;1;91;right;yes;50;rightarrow;354;false;focus;yes;187095;Chrome;112.0;Windows;10;undefined;undefined;1536 x 864;1536 x 864
H021;52;Vrouwelijk;Links;1;92;left;no;50;leftarrow;383;true;focus;yes;188251;Chrome;112.0;Windows;10;undefined;undefined;1536 x 864;1536 x 864
H021;52;Vrouwelijk;Links;1;93;right;no;50;rightarrow;335;true;focus;yes;189360;Chrome;112.0;Windows;10;undefined;undefined;1536 x 864;1536 x 864
H021;52;Vrouwelijk;Links;1;94;right;no;50;rightarrow;268;true;focus;yes;190390;Chrome;112.0;Windows;10;undefined;undefined;1536 x 864;1536 x 864
H021;52;Vrouwelijk;Links;1;95;left;no;50;rightarrow;424;false;focus;yes;191581;Chrome;112.0;Windows;10;undefined;undefined;1536 x 864;1536 x 864
H021;52;Vrouwelijk;Links;1;96;left;yes;50;leftarrow;325;false;focus;yes;192689;Chrome;112.0;Windows;10;undefined;undefined;1536 x 864;1536 x 864
H021;52;Vrouwelijk;Links;1;97;left;no;50;leftarrow;331;true;focus;yes;193789;Chrome;112.0;Windows;10;undefined;undefined;1536 x 864;1536 x 864
H021;52;Vrouwelijk;Links;1;98;right;no;50;rightarrow;427;true;focus;yes;194994;Chrome;112.0;Windows;10;undefined;undefined;1536 x 864;1536 x 864
H021;52;Vrouwelijk;Links;1;99;right;no;50;rightarrow;345;true;focus;yes;196122;Chrome;112.0;Windows;10;undefined;undefined;1536 x 864;1536 x 864
H021;52;Vrouwelijk;Links;1;100;right;no;50;rightarrow;354;true;focus;yes;197258;Chrome;112.0;Windows;10;undefined;undefined;1536 x 864;1536 x 864
H021;52;Vrouwelijk;Links;1;101;left;yes;50;leftarrow;343;false;focus;yes;198374;Chrome;112.0;Windows;10;undefined;undefined;1536 x 864;1536 x 864
H021;52;Vrouwelijk;Links;1;102;left;no;50;leftarrow;711;true;focus;yes;199843;Chrome;112.0;Windows;10;undefined;undefined;1536 x 864;1536 x 864
H021;52;Vrouwelijk;Links;1;103;left;no;50;leftarrow;314;true;focus;yes;200932;Chrome;112.0;Windows;10;undefined;undefined;1536 x 864;1536 x 864
H021;52;Vrouwelijk;Links;1;104;right;yes;50;rightarrow;342;false;focus;yes;202040;Chrome;112.0;Windows;10;undefined;undefined;1536 x 864;1536 x 864
H021;52;Vrouwelijk;Links;1;105;left;yes;50;leftarrow;378;false;focus;yes;203175;Chrome;112.0;Windows;10;undefined;undefined;1536 x 864;1536 x 864
H021;52;Vrouwelijk;Links;1;106;right;no;50;rightarrow;310;true;focus;yes;204248;Chrome;112.0;Windows;10;undefined;undefined;1536 x 864;1536 x 864
H021;52;Vrouwelijk;Links;1;107;left;no;50;leftarrow;498;true;focus;yes;205501;Chrome;112.0;Windows;10;undefined;undefined;1536 x 864;1536 x 864
H021;52;Vrouwelijk;Links;1;108;left;no;50;leftarrow;347;true;focus;yes;206607;Chrome;112.0;Windows;10;undefined;undefined;1536 x 864;1536 x 864
H021;52;Vrouwelijk;Links;1;109;right;no;50;rightarrow;299;true;focus;yes;207672;Chrome;112.0;Windows;10;undefined;undefined;1536 x 864;1536 x 864
H021;52;Vrouwelijk;Links;1;110;left;no;50;rightarrow;458;false;focus;yes;208907;Chrome;112.0;Windows;10;undefined;undefined;1536 x 864;1536 x 864
H021;52;Vrouwelijk;Links;1;111;right;yes;50;rightarrow;332;false;focus;yes;210002;Chrome;112.0;Windows;10;undefined;undefined;1536 x 864;1536 x 864
H021;52;Vrouwelijk;Links;1;112;right;no;50;rightarrow;383;true;focus;yes;211154;Chrome;112.0;Windows;10;undefined;undefined;1536 x 864;1536 x 864
H021;52;Vrouwelijk;Links;1;113;left;no;50;leftarrow;383;true;focus;yes;212310;Chrome;112.0;Windows;10;undefined;undefined;1536 x 864;1536 x 864
H021;52;Vrouwelijk;Links;1;114;right;no;50;rightarrow;390;true;focus;yes;213473;Chrome;112.0;Windows;10;undefined;undefined;1536 x 864;1536 x 864
H021;52;Vrouwelijk;Links;1;115;right;no;50;rightarrow;470;true;focus;yes;214724;Chrome;112.0;Windows;10;undefined;undefined;1536 x 864;1536 x 864
H021;52;Vrouwelijk;Links;1;116;left;no;50;leftarrow;415;true;focus;yes;215918;Chrome;112.0;Windows;10;undefined;undefined;1536 x 864;1536 x 864
H021;52;Vrouwelijk;Links;1;117;left;yes;50;leftarrow;373;false;focus;yes;217051;Chrome;112.0;Windows;10;undefined;undefined;1536 x 864;1536 x 864
H021;52;Vrouwelijk;Links;1;118;left;no;50;rightarrow;311;false;focus;yes;218130;Chrome;112.0;Windows;10;undefined;undefined;1536 x 864;1536 x 864
H021;52;Vrouwelijk;Links;1;119;right;no;50;rightarrow;300;true;focus;yes;219198;Chrome;112.0;Windows;10;undefined;undefined;1536 x 864;1536 x 864
H021;52;Vrouwelijk;Links;1;120;right;yes;50;rightarrow;311;false;focus;yes;220285;Chrome;112.0;Windows;10;undefined;undefined;1536 x 864;1536 x 864
H021;52;Vrouwelijk;Links;1;121;right;no;50;rightarrow;277;true;focus;yes;221316;Chrome;112.0;Windows;10;undefined;undefined;1536 x 864;1536 x 864
H021;52;Vrouwelijk;Links;1;122;right;yes;50;rightarrow;320;false;focus;yes;222402;Chrome;112.0;Windows;10;undefined;undefined;1536 x 864;1536 x 864
H021;52;Vrouwelijk;Links;1;123;right;no;50;rightarrow;533;true;focus;yes;223691;Chrome;112.0;Windows;10;undefined;undefined;1536 x 864;1536 x 864
H021;52;Vrouwelijk;Links;1;124;left;yes;50;leftarrow;390;false;focus;yes;224850;Chrome;112.0;Windows;10;undefined;undefined;1536 x 864;1536 x 864
H021;52;Vrouwelijk;Links;1;125;left;no;50;leftarrow;350;true;focus;yes;225957;Chrome;112.0;Windows;10;undefined;undefined;1536 x 864;1536 x 864
H021;52;Vrouwelijk;Links;1;126;right;no;50;leftarrow;293;false;focus;yes;227013;Chrome;112.0;Windows;10;undefined;undefined;1536 x 864;1536 x 864
H021;52;Vrouwelijk;Links;1;127;left;no;50;leftarrow;254;true;focus;yes;228035;Chrome;112.0;Windows;10;undefined;undefined;1536 x 864;1536 x 864
H021;52;Vrouwelijk;Links;1;128;left;no;50;leftarrow;307;true;focus;yes;229121;Chrome;112.0;Windows;10;undefined;undefined;1536 x 864;1536 x 864
H021;52;Vrouwelijk;Links;2;1;right;no;50;rightarrow;350;true;focus;yes;248627;Chrome;112.0;Windows;10;undefined;undefined;1536 x 864;1536 x 864
H021;52;Vrouwelijk;Links;2;2;left;no;50;leftarrow;300;true;focus;yes;249698;Chrome;112.0;Windows;10;undefined;undefined;1536 x 864;1536 x 864
H021;52;Vrouwelijk;Links;2;3;left;no;50;leftarrow;370;true;focus;yes;250829;Chrome;112.0;Windows;10;undefined;undefined;1536 x 864;1536 x 864
H021;52;Vrouwelijk;Links;2;4;left;yes;50;undefined;null;true;focus;yes;252859;Chrome;112.0;Windows;10;undefined;undefined;1536 x 864;1536 x 864
H021;52;Vrouwelijk;Links;2;5;left;no;100;leftarrow;336;true;focus;yes;253964;Chrome;112.0;Windows;10;undefined;undefined;1536 x 864;1536 x 864
H021;52;Vrouwelijk;Links;2;6;right;yes;100;rightarrow;356;false;focus;yes;255100;Chrome;112.0;Windows;10;undefined;undefined;1536 x 864;1536 x 864
H021;52;Vrouwelijk;Links;2;7;right;no;50;leftarrow;315;false;focus;yes;256191;Chrome;112.0;Windows;10;undefined;undefined;1536 x 864;1536 x 864
H021;52;Vrouwelijk;Links;2;8;right;no;50;rightarrow;359;true;focus;yes;257329;Chrome;112.0;Windows;10;undefined;undefined;1536 x 864;1536 x 864
H021;52;Vrouwelijk;Links;2;9;left;yes;50;leftarrow;313;false;focus;yes;258409;Chrome;112.0;Windows;10;undefined;undefined;1536 x 864;1536 x 864
H021;52;Vrouwelijk;Links;2;10;right;yes;50;rightarrow;362;false;focus;yes;259554;Chrome;112.0;Windows;10;undefined;undefined;1536 x 864;1536 x 864
H021;52;Vrouwelijk;Links;2;11;left;no;50;leftarrow;373;true;focus;yes;260692;Chrome;112.0;Windows;10;undefined;undefined;1536 x 864;1536 x 864
H021;52;Vrouwelijk;Links;2;12;right;no;50;leftarrow;239;false;focus;yes;261699;Chrome;112.0;Windows;10;undefined;undefined;1536 x 864;1536 x 864
H021;52;Vrouwelijk;Links;2;13;left;no;50;leftarrow;326;true;focus;yes;262802;Chrome;112.0;Windows;10;undefined;undefined;1536 x 864;1536 x 864
H021;52;Vrouwelijk;Links;2;14;right;no;50;rightarrow;394;true;focus;yes;263964;Chrome;112.0;Windows;10;undefined;undefined;1536 x 864;1536 x 864
H021;52;Vrouwelijk;Links;2;15;left;no;50;leftarrow;284;true;focus;yes;265029;Chrome;112.0;Windows;10;undefined;undefined;1536 x 864;1536 x 864
H021;52;Vrouwelijk;Links;2;16;right;no;50;rightarrow;316;true;focus;yes;266124;Chrome;112.0;Windows;10;undefined;undefined;1536 x 864;1536 x 864
H021;52;Vrouwelijk;Links;2;17;right;no;50;leftarrow;267;false;focus;yes;267164;Chrome;112.0;Windows;10;undefined;undefined;1536 x 864;1536 x 864
H021;52;Vrouwelijk;Links;2;18;right;yes;50;rightarrow;331;false;focus;yes;268273;Chrome;112.0;Windows;10;undefined;undefined;1536 x 864;1536 x 864
H021;52;Vrouwelijk;Links;2;19;right;no;50;rightarrow;305;true;focus;yes;269354;Chrome;112.0;Windows;10;undefined;undefined;1536 x 864;1536 x 864
H021;52;Vrouwelijk;Links;2;20;left;yes;50;rightarrow;295;false;focus;yes;270426;Chrome;112.0;Windows;10;undefined;undefined;1536 x 864;1536 x 864
H021;52;Vrouwelijk;Links;2;21;left;no;50;rightarrow;202;false;focus;yes;271400;Chrome;112.0;Windows;10;undefined;undefined;1536 x 864;1536 x 864
H021;52;Vrouwelijk;Links;2;22;left;no;50;leftarrow;354;true;focus;yes;272524;Chrome;112.0;Windows;10;undefined;undefined;1536 x 864;1536 x 864
H021;52;Vrouwelijk;Links;2;23;right;no;50;rightarrow;296;true;focus;yes;273587;Chrome;112.0;Windows;10;undefined;undefined;1536 x 864;1536 x 864
H021;52;Vrouwelijk;Links;2;24;left;no;50;leftarrow;364;true;focus;yes;274731;Chrome;112.0;Windows;10;undefined;undefined;1536 x 864;1536 x 864
H021;52;Vrouwelijk;Links;2;25;left;no;50;leftarrow;381;true;focus;yes;275890;Chrome;112.0;Windows;10;undefined;undefined;1536 x 864;1536 x 864
H021;52;Vrouwelijk;Links;2;26;right;no;50;rightarrow;405;true;focus;yes;277068;Chrome;112.0;Windows;10;undefined;undefined;1536 x 864;1536 x 864
H021;52;Vrouwelijk;Links;2;27;left;no;50;leftarrow;247;true;focus;yes;278080;Chrome;112.0;Windows;10;undefined;undefined;1536 x 864;1536 x 864
H021;52;Vrouwelijk;Links;2;28;right;no;50;rightarrow;308;true;focus;yes;279158;Chrome;112.0;Windows;10;undefined;undefined;1536 x 864;1536 x 864
H021;52;Vrouwelijk;Links;2;29;right;yes;50;rightarrow;369;false;focus;yes;280296;Chrome;112.0;Windows;10;undefined;undefined;1536 x 864;1536 x 864
H021;52;Vrouwelijk;Links;2;30;right;no;50;rightarrow;319;true;focus;yes;281371;Chrome;112.0;Windows;10;undefined;undefined;1536 x 864;1536 x 864
H021;52;Vrouwelijk;Links;2;31;left;no;50;rightarrow;240;false;focus;yes;282369;Chrome;112.0;Windows;10;undefined;undefined;1536 x 864;1536 x 864
H021;52;Vrouwelijk;Links;2;32;left;yes;50;leftarrow;367;false;focus;yes;283501;Chrome;112.0;Windows;10;undefined;undefined;1536 x 864;1536 x 864
H021;52;Vrouwelijk;Links;2;33;right;no;50;rightarrow;289;true;focus;yes;284550;Chrome;112.0;Windows;10;undefined;undefined;1536 x 864;1536 x 864
H021;52;Vrouwelijk;Links;2;34;right;no;50;leftarrow;333;false;focus;yes;285655;Chrome;112.0;Windows;10;undefined;undefined;1536 x 864;1536 x 864
H021;52;Vrouwelijk;Links;2;35;left;no;50;leftarrow;370;true;focus;yes;286784;Chrome;112.0;Windows;10;undefined;undefined;1536 x 864;1536 x 864
H021;52;Vrouwelijk;Links;2;36;left;no;50;leftarrow;330;true;focus;yes;287869;Chrome;112.0;Windows;10;undefined;undefined;1536 x 864;1536 x 864
H021;52;Vrouwelijk;Links;2;37;left;no;50;leftarrow;336;true;focus;yes;288984;Chrome;112.0;Windows;10;undefined;undefined;1536 x 864;1536 x 864
H021;52;Vrouwelijk;Links;2;38;right;no;50;leftarrow;295;false;focus;yes;290048;Chrome;112.0;Windows;10;undefined;undefined;1536 x 864;1536 x 864
H021;52;Vrouwelijk;Links;2;39;right;yes;50;rightarrow;371;false;focus;yes;291175;Chrome;112.0;Windows;10;undefined;undefined;1536 x 864;1536 x 864
H021;52;Vrouwelijk;Links;2;40;left;yes;50;leftarrow;336;false;focus;yes;292283;Chrome;112.0;Windows;10;undefined;undefined;1536 x 864;1536 x 864
H021;52;Vrouwelijk;Links;2;41;left;no;50;leftarrow;314;true;focus;yes;293365;Chrome;112.0;Windows;10;undefined;undefined;1536 x 864;1536 x 864
H021;52;Vrouwelijk;Links;2;42;left;yes;50;leftarrow;434;false;focus;yes;294578;Chrome;112.0;Windows;10;undefined;undefined;1536 x 864;1536 x 864
H021;52;Vrouwelijk;Links;2;43;left;no;50;leftarrow;307;true;focus;yes;295654;Chrome;112.0;Windows;10;undefined;undefined;1536 x 864;1536 x 864
H021;52;Vrouwelijk;Links;2;44;left;no;50;leftarrow;231;true;focus;yes;296658;Chrome;112.0;Windows;10;undefined;undefined;1536 x 864;1536 x 864
H021;52;Vrouwelijk;Links;2;45;right;no;50;rightarrow;360;true;focus;yes;297787;Chrome;112.0;Windows;10;undefined;undefined;1536 x 864;1536 x 864
H021;52;Vrouwelijk;Links;2;46;right;no;50;rightarrow;313;true;focus;yes;298866;Chrome;112.0;Windows;10;undefined;undefined;1536 x 864;1536 x 864
H021;52;Vrouwelijk;Links;2;47;right;no;50;rightarrow;73;true;focus;yes;299699;Chrome;112.0;Windows;10;undefined;undefined;1536 x 864;1536 x 864
H021;52;Vrouwelijk;Links;2;48;right;yes;50;leftarrow;357;false;focus;yes;300826;Chrome;112.0;Windows;10;undefined;undefined;1536 x 864;1536 x 864
H021;52;Vrouwelijk;Links;2;49;right;no;50;rightarrow;328;true;focus;yes;301926;Chrome;112.0;Windows;10;undefined;undefined;1536 x 864;1536 x 864
H021;52;Vrouwelijk;Links;2;50;right;yes;50;rightarrow;266;false;focus;yes;302961;Chrome;112.0;Windows;10;undefined;undefined;1536 x 864;1536 x 864
H021;52;Vrouwelijk;Links;2;51;right;no;50;rightarrow;101;true;focus;yes;303845;Chrome;112.0;Windows;10;undefined;undefined;1536 x 864;1536 x 864
H021;52;Vrouwelijk;Links;2;52;left;yes;50;rightarrow;2;false;focus;yes;304619;Chrome;112.0;Windows;10;undefined;undefined;1536 x 864;1536 x 864
H021;52;Vrouwelijk;Links;2;53;left;no;50;leftarrow;356;true;focus;yes;305754;Chrome;112.0;Windows;10;undefined;undefined;1536 x 864;1536 x 864
H021;52;Vrouwelijk;Links;2;54;left;no;50;leftarrow;369;true;focus;yes;306894;Chrome;112.0;Windows;10;undefined;undefined;1536 x 864;1536 x 864
H021;52;Vrouwelijk;Links;2;55;left;no;50;leftarrow;289;true;focus;yes;307941;Chrome;112.0;Windows;10;undefined;undefined;1536 x 864;1536 x 864
H021;52;Vrouwelijk;Links;2;56;right;no;50;leftarrow;267;false;focus;yes;308978;Chrome;112.0;Windows;10;undefined;undefined;1536 x 864;1536 x 864
H021;52;Vrouwelijk;Links;2;57;left;yes;50;rightarrow;294;false;focus;yes;310038;Chrome;112.0;Windows;10;undefined;undefined;1536 x 864;1536 x 864
H021;52;Vrouwelijk;Links;2;58;left;no;50;leftarrow;405;true;focus;yes;311226;Chrome;112.0;Windows;10;undefined;undefined;1536 x 864;1536 x 864
H021;52;Vrouwelijk;Links;2;59;left;no;50;leftarrow;395;true;focus;yes;312402;Chrome;112.0;Windows;10;undefined;undefined;1536 x 864;1536 x 864
H021;52;Vrouwelijk;Links;2;60;right;no;50;rightarrow;369;true;focus;yes;313549;Chrome;112.0;Windows;10;undefined;undefined;1536 x 864;1536 x 864
H021;52;Vrouwelijk;Links;2;61;right;yes;50;rightarrow;327;false;focus;yes;314644;Chrome;112.0;Windows;10;undefined;undefined;1536 x 864;1536 x 864
H021;52;Vrouwelijk;Links;2;62;right;no;50;rightarrow;337;true;focus;yes;315760;Chrome;112.0;Windows;10;undefined;undefined;1536 x 864;1536 x 864
H021;52;Vrouwelijk;Links;2;63;left;no;50;leftarrow;426;true;focus;yes;316959;Chrome;112.0;Windows;10;undefined;undefined;1536 x 864;1536 x 864
H021;52;Vrouwelijk;Links;2;64;right;no;50;rightarrow;355;true;focus;yes;318079;Chrome;112.0;Windows;10;undefined;undefined;1536 x 864;1536 x 864
H021;52;Vrouwelijk;Links;2;65;right;no;50;rightarrow;402;true;focus;yes;319253;Chrome;112.0;Windows;10;undefined;undefined;1536 x 864;1536 x 864
H021;52;Vrouwelijk;Links;2;66;right;no;50;rightarrow;337;true;focus;yes;320361;Chrome;112.0;Windows;10;undefined;undefined;1536 x 864;1536 x 864
H021;52;Vrouwelijk;Links;2;67;left;no;50;leftarrow;404;true;focus;yes;321536;Chrome;112.0;Windows;10;undefined;undefined;1536 x 864;1536 x 864
H021;52;Vrouwelijk;Links;2;68;left;no;50;leftarrow;365;true;focus;yes;322669;Chrome;112.0;Windows;10;undefined;undefined;1536 x 864;1536 x 864
H021;52;Vrouwelijk;Links;2;69;left;yes;50;leftarrow;556;false;focus;yes;324003;Chrome;112.0;Windows;10;undefined;undefined;1536 x 864;1536 x 864
H021;52;Vrouwelijk;Links;2;70;right;no;50;rightarrow;333;true;focus;yes;325106;Chrome;112.0;Windows;10;undefined;undefined;1536 x 864;1536 x 864
H021;52;Vrouwelijk;Links;2;71;right;yes;50;rightarrow;304;false;focus;yes;326167;Chrome;112.0;Windows;10;undefined;undefined;1536 x 864;1536 x 864
H021;52;Vrouwelijk;Links;2;72;left;no;50;leftarrow;326;true;focus;yes;327265;Chrome;112.0;Windows;10;undefined;undefined;1536 x 864;1536 x 864
H021;52;Vrouwelijk;Links;2;73;left;yes;50;leftarrow;349;false;focus;yes;328375;Chrome;112.0;Windows;10;undefined;undefined;1536 x 864;1536 x 864
H021;52;Vrouwelijk;Links;2;74;right;yes;50;rightarrow;312;false;focus;yes;329465;Chrome;112.0;Windows;10;undefined;undefined;1536 x 864;1536 x 864
H021;52;Vrouwelijk;Links;2;75;left;no;50;leftarrow;382;true;focus;yes;330602;Chrome;112.0;Windows;10;undefined;undefined;1536 x 864;1536 x 864
H021;52;Vrouwelijk;Links;2;76;left;no;50;leftarrow;393;true;focus;yes;331755;Chrome;112.0;Windows;10;undefined;undefined;1536 x 864;1536 x 864
H021;52;Vrouwelijk;Links;2;77;right;no;50;rightarrow;297;true;focus;yes;332828;Chrome;112.0;Windows;10;undefined;undefined;1536 x 864;1536 x 864
H021;52;Vrouwelijk;Links;2;78;left;no;50;leftarrow;256;true;focus;yes;333850;Chrome;112.0;Windows;10;undefined;undefined;1536 x 864;1536 x 864
H021;52;Vrouwelijk;Links;2;79;right;no;50;rightarrow;273;true;focus;yes;334891;Chrome;112.0;Windows;10;undefined;undefined;1536 x 864;1536 x 864
H021;52;Vrouwelijk;Links;2;80;right;no;50;rightarrow;401;true;focus;yes;336064;Chrome;112.0;Windows;10;undefined;undefined;1536 x 864;1536 x 864
H021;52;Vrouwelijk;Links;2;81;right;yes;50;rightarrow;416;false;focus;yes;337252;Chrome;112.0;Windows;10;undefined;undefined;1536 x 864;1536 x 864
H021;52;Vrouwelijk;Links;2;82;right;no;50;rightarrow;288;true;focus;yes;338309;Chrome;112.0;Windows;10;undefined;undefined;1536 x 864;1536 x 864
H021;52;Vrouwelijk;Links;2;83;right;no;50;rightarrow;307;true;focus;yes;339378;Chrome;112.0;Windows;10;undefined;undefined;1536 x 864;1536 x 864
H021;52;Vrouwelijk;Links;2;84;right;no;50;rightarrow;317;true;focus;yes;340479;Chrome;112.0;Windows;10;undefined;undefined;1536 x 864;1536 x 864
H021;52;Vrouwelijk;Links;2;85;left;no;50;leftarrow;318;true;focus;yes;341575;Chrome;112.0;Windows;10;undefined;undefined;1536 x 864;1536 x 864
H021;52;Vrouwelijk;Links;2;86;left;no;50;leftarrow;380;true;focus;yes;342729;Chrome;112.0;Windows;10;undefined;undefined;1536 x 864;1536 x 864
H021;52;Vrouwelijk;Links;2;87;left;yes;50;leftarrow;376;false;focus;yes;343881;Chrome;112.0;Windows;10;undefined;undefined;1536 x 864;1536 x 864
H021;52;Vrouwelijk;Links;2;88;left;no;50;leftarrow;368;true;focus;yes;345015;Chrome;112.0;Windows;10;undefined;undefined;1536 x 864;1536 x 864
H021;52;Vrouwelijk;Links;2;89;right;no;50;rightarrow;351;true;focus;yes;346139;Chrome;112.0;Windows;10;undefined;undefined;1536 x 864;1536 x 864
H021;52;Vrouwelijk;Links;2;90;right;yes;50;rightarrow;365;false;focus;yes;347276;Chrome;112.0;Windows;10;undefined;undefined;1536 x 864;1536 x 864
H021;52;Vrouwelijk;Links;2;91;right;no;50;rightarrow;384;true;focus;yes;348424;Chrome;112.0;Windows;10;undefined;undefined;1536 x 864;1536 x 864
H021;52;Vrouwelijk;Links;2;92;left;no;50;leftarrow;477;true;focus;yes;349672;Chrome;112.0;Windows;10;undefined;undefined;1536 x 864;1536 x 864
H021;52;Vrouwelijk;Links;2;93;left;yes;50;leftarrow;370;false;focus;yes;350800;Chrome;112.0;Windows;10;undefined;undefined;1536 x 864;1536 x 864
H021;52;Vrouwelijk;Links;2;94;left;no;50;leftarrow;282;true;focus;yes;351855;Chrome;112.0;Windows;10;undefined;undefined;1536 x 864;1536 x 864
H021;52;Vrouwelijk;Links;2;95;left;no;50;leftarrow;347;true;focus;yes;352979;Chrome;112.0;Windows;10;undefined;undefined;1536 x 864;1536 x 864
H021;52;Vrouwelijk;Links;2;96;right;no;50;leftarrow;58;false;focus;yes;353815;Chrome;112.0;Windows;10;undefined;undefined;1536 x 864;1536 x 864
H021;52;Vrouwelijk;Links;2;97;right;no;50;rightarrow;352;true;focus;yes;354939;Chrome;112.0;Windows;10;undefined;undefined;1536 x 864;1536 x 864
H021;52;Vrouwelijk;Links;2;98;left;yes;50;leftarrow;371;false;focus;yes;356081;Chrome;112.0;Windows;10;undefined;undefined;1536 x 864;1536 x 864
H021;52;Vrouwelijk;Links;2;99;left;no;50;leftarrow;359;true;focus;yes;357224;Chrome;112.0;Windows;10;undefined;undefined;1536 x 864;1536 x 864
H021;52;Vrouwelijk;Links;2;100;right;no;50;rightarrow;275;true;focus;yes;358279;Chrome;112.0;Windows;10;undefined;undefined;1536 x 864;1536 x 864
H021;52;Vrouwelijk;Links;2;101;right;yes;50;rightarrow;379;false;focus;yes;359430;Chrome;112.0;Windows;10;undefined;undefined;1536 x 864;1536 x 864
H021;52;Vrouwelijk;Links;2;102;left;no;50;leftarrow;378;true;focus;yes;360576;Chrome;112.0;Windows;10;undefined;undefined;1536 x 864;1536 x 864
H021;52;Vrouwelijk;Links;2;103;left;no;50;leftarrow;323;true;focus;yes;361659;Chrome;112.0;Windows;10;undefined;undefined;1536 x 864;1536 x 864
H021;52;Vrouwelijk;Links;2;104;right;no;50;rightarrow;382;true;focus;yes;362824;Chrome;112.0;Windows;10;undefined;undefined;1536 x 864;1536 x 864
H021;52;Vrouwelijk;Links;2;105;left;yes;50;leftarrow;371;false;focus;yes;363970;Chrome;112.0;Windows;10;undefined;undefined;1536 x 864;1536 x 864
H021;52;Vrouwelijk;Links;2;106;left;no;50;leftarrow;344;true;focus;yes;365079;Chrome;112.0;Windows;10;undefined;undefined;1536 x 864;1536 x 864
H021;52;Vrouwelijk;Links;2;107;right;yes;50;rightarrow;354;false;focus;yes;366209;Chrome;112.0;Windows;10;undefined;undefined;1536 x 864;1536 x 864
H021;52;Vrouwelijk;Links;2;108;left;no;50;leftarrow;291;true;focus;yes;367256;Chrome;112.0;Windows;10;undefined;undefined;1536 x 864;1536 x 864
H021;52;Vrouwelijk;Links;2;109;right;no;50;rightarrow;316;true;focus;yes;368339;Chrome;112.0;Windows;10;undefined;undefined;1536 x 864;1536 x 864
H021;52;Vrouwelijk;Links;2;110;left;no;50;leftarrow;280;true;focus;yes;369381;Chrome;112.0;Windows;10;undefined;undefined;1536 x 864;1536 x 864
H021;52;Vrouwelijk;Links;2;111;right;no;50;leftarrow;257;false;focus;yes;370406;Chrome;112.0;Windows;10;undefined;undefined;1536 x 864;1536 x 864
H021;52;Vrouwelijk;Links;2;112;right;no;50;rightarrow;336;true;focus;yes;371515;Chrome;112.0;Windows;10;undefined;undefined;1536 x 864;1536 x 864
H021;52;Vrouwelijk;Links;2;113;left;no;50;leftarrow;299;true;focus;yes;372588;Chrome;112.0;Windows;10;undefined;undefined;1536 x 864;1536 x 864
H021;52;Vrouwelijk;Links;2;114;left;no;50;leftarrow;492;true;focus;yes;373858;Chrome;112.0;Windows;10;undefined;undefined;1536 x 864;1536 x 864
H021;52;Vrouwelijk;Links;2;115;right;yes;50;rightarrow;292;false;focus;yes;374925;Chrome;112.0;Windows;10;undefined;undefined;1536 x 864;1536 x 864
H021;52;Vrouwelijk;Links;2;116;right;no;50;rightarrow;379;true;focus;yes;376073;Chrome;112.0;Windows;10;undefined;undefined;1536 x 864;1536 x 864
H021;52;Vrouwelijk;Links;2;117;right;no;50;rightarrow;256;true;focus;yes;377104;Chrome;112.0;Windows;10;undefined;undefined;1536 x 864;1536 x 864
H021;52;Vrouwelijk;Links;2;118;right;no;50;rightarrow;368;true;focus;yes;378235;Chrome;112.0;Windows;10;undefined;undefined;1536 x 864;1536 x 864
H021;52;Vrouwelijk;Links;2;119;left;yes;50;rightarrow;230;false;focus;yes;379237;Chrome;112.0;Windows;10;undefined;undefined;1536 x 864;1536 x 864
H021;52;Vrouwelijk;Links;2;120;left;no;50;leftarrow;379;true;focus;yes;380400;Chrome;112.0;Windows;10;undefined;undefined;1536 x 864;1536 x 864
H021;52;Vrouwelijk;Links;2;121;left;no;50;leftarrow;302;true;focus;yes;381481;Chrome;112.0;Windows;10;undefined;undefined;1536 x 864;1536 x 864
H021;52;Vrouwelijk;Links;2;122;right;no;50;rightarrow;377;true;focus;yes;382620;Chrome;112.0;Windows;10;undefined;undefined;1536 x 864;1536 x 864
H021;52;Vrouwelijk;Links;2;123;right;yes;50;rightarrow;272;false;focus;yes;383670;Chrome;112.0;Windows;10;undefined;undefined;1536 x 864;1536 x 864
H021;52;Vrouwelijk;Links;2;124;left;no;50;leftarrow;365;true;focus;yes;384814;Chrome;112.0;Windows;10;undefined;undefined;1536 x 864;1536 x 864
H021;52;Vrouwelijk;Links;2;125;right;no;50;leftarrow;140;false;focus;yes;385733;Chrome;112.0;Windows;10;undefined;undefined;1536 x 864;1536 x 864
H021;52;Vrouwelijk;Links;2;126;left;no;50;leftarrow;453;true;focus;yes;386942;Chrome;112.0;Windows;10;undefined;undefined;1536 x 864;1536 x 864
H021;52;Vrouwelijk;Links;2;127;left;yes;50;leftarrow;340;false;focus;yes;388048;Chrome;112.0;Windows;10;undefined;undefined;1536 x 864;1536 x 864
H021;52;Vrouwelijk;Links;2;128;right;no;50;rightarrow;393;true;focus;yes;389196;Chrome;112.0;Windows;10;undefined;undefined;1536 x 864;1536 x 864
H021;52;Vrouwelijk;Links;3;1;right;yes;50;undefined;null;true;focus;yes;411836;Chrome;112.0;Windows;10;undefined;undefined;1536 x 864;1536 x 864
H021;52;Vrouwelijk;Links;3;2;right;no;100;rightarrow;434;true;focus;yes;413024;Chrome;112.0;Windows;10;undefined;undefined;1536 x 864;1536 x 864
H021;52;Vrouwelijk;Links;3;3;left;no;100;leftarrow;335;true;focus;yes;414129;Chrome;112.0;Windows;10;undefined;undefined;1536 x 864;1536 x 864
H021;52;Vrouwelijk;Links;3;4;right;no;100;rightarrow;551;true;focus;yes;415461;Chrome;112.0;Windows;10;undefined;undefined;1536 x 864;1536 x 864
H021;52;Vrouwelijk;Links;3;5;left;no;100;leftarrow;247;true;focus;yes;416476;Chrome;112.0;Windows;10;undefined;undefined;1536 x 864;1536 x 864
H021;52;Vrouwelijk;Links;3;6;right;no;100;rightarrow;327;true;focus;yes;417566;Chrome;112.0;Windows;10;undefined;undefined;1536 x 864;1536 x 864
H021;52;Vrouwelijk;Links;3;7;left;yes;100;leftarrow;314;false;focus;yes;418663;Chrome;112.0;Windows;10;undefined;undefined;1536 x 864;1536 x 864
H021;52;Vrouwelijk;Links;3;8;left;no;50;leftarrow;441;true;focus;yes;419868;Chrome;112.0;Windows;10;undefined;undefined;1536 x 864;1536 x 864
H021;52;Vrouwelijk;Links;3;9;left;yes;50;leftarrow;737;false;focus;yes;421369;Chrome;112.0;Windows;10;undefined;undefined;1536 x 864;1536 x 864
H021;52;Vrouwelijk;Links;3;10;left;no;50;leftarrow;477;true;focus;yes;422611;Chrome;112.0;Windows;10;undefined;undefined;1536 x 864;1536 x 864
H021;52;Vrouwelijk;Links;3;11;left;no;50;leftarrow;321;true;focus;yes;423704;Chrome;112.0;Windows;10;undefined;undefined;1536 x 864;1536 x 864
H021;52;Vrouwelijk;Links;3;12;right;no;50;rightarrow;315;true;focus;yes;424776;Chrome;112.0;Windows;10;undefined;undefined;1536 x 864;1536 x 864
H021;52;Vrouwelijk;Links;3;13;right;no;50;rightarrow;406;true;focus;yes;425963;Chrome;112.0;Windows;10;undefined;undefined;1536 x 864;1536 x 864
H021;52;Vrouwelijk;Links;3;14;left;no;50;leftarrow;336;true;focus;yes;427084;Chrome;112.0;Windows;10;undefined;undefined;1536 x 864;1536 x 864
H021;52;Vrouwelijk;Links;3;15;right;yes;50;rightarrow;271;false;focus;yes;428135;Chrome;112.0;Windows;10;undefined;undefined;1536 x 864;1536 x 864
H021;52;Vrouwelijk;Links;3;16;right;no;50;rightarrow;362;true;focus;yes;429273;Chrome;112.0;Windows;10;undefined;undefined;1536 x 864;1536 x 864
H021;52;Vrouwelijk;Links;3;17;right;no;50;rightarrow;472;true;focus;yes;430523;Chrome;112.0;Windows;10;undefined;undefined;1536 x 864;1536 x 864
H021;52;Vrouwelijk;Links;3;18;right;no;50;rightarrow;440;true;focus;yes;431744;Chrome;112.0;Windows;10;undefined;undefined;1536 x 864;1536 x 864
H021;52;Vrouwelijk;Links;3;19;left;yes;50;leftarrow;393;false;focus;yes;432910;Chrome;112.0;Windows;10;undefined;undefined;1536 x 864;1536 x 864
H021;52;Vrouwelijk;Links;3;20;left;no;50;leftarrow;384;true;focus;yes;434059;Chrome;112.0;Windows;10;undefined;undefined;1536 x 864;1536 x 864
H021;52;Vrouwelijk;Links;3;21;right;no;50;rightarrow;484;true;focus;yes;435303;Chrome;112.0;Windows;10;undefined;undefined;1536 x 864;1536 x 864
H021;52;Vrouwelijk;Links;3;22;left;no;50;leftarrow;327;true;focus;yes;436396;Chrome;112.0;Windows;10;undefined;undefined;1536 x 864;1536 x 864
H021;52;Vrouwelijk;Links;3;23;right;yes;50;rightarrow;286;false;focus;yes;437466;Chrome;112.0;Windows;10;undefined;undefined;1536 x 864;1536 x 864
H021;52;Vrouwelijk;Links;3;24;left;no;50;leftarrow;255;true;focus;yes;438496;Chrome;112.0;Windows;10;undefined;undefined;1536 x 864;1536 x 864
H021;52;Vrouwelijk;Links;3;25;left;no;50;leftarrow;458;true;focus;yes;439733;Chrome;112.0;Windows;10;undefined;undefined;1536 x 864;1536 x 864
H021;52;Vrouwelijk;Links;3;26;left;yes;50;undefined;null;true;focus;yes;441760;Chrome;112.0;Windows;10;undefined;undefined;1536 x 864;1536 x 864
H021;52;Vrouwelijk;Links;3;27;right;no;100;rightarrow;342;true;focus;yes;442871;Chrome;112.0;Windows;10;undefined;undefined;1536 x 864;1536 x 864
H021;52;Vrouwelijk;Links;3;28;right;no;100;rightarrow;291;true;focus;yes;443940;Chrome;112.0;Windows;10;undefined;undefined;1536 x 864;1536 x 864
H021;52;Vrouwelijk;Links;3;29;left;no;100;rightarrow;370;false;focus;yes;445067;Chrome;112.0;Windows;10;undefined;undefined;1536 x 864;1536 x 864
H021;52;Vrouwelijk;Links;3;30;left;no;100;leftarrow;414;true;focus;yes;446249;Chrome;112.0;Windows;10;undefined;undefined;1536 x 864;1536 x 864
H021;52;Vrouwelijk;Links;3;31;right;yes;100;undefined;null;true;focus;yes;448272;Chrome;112.0;Windows;10;undefined;undefined;1536 x 864;1536 x 864
H021;52;Vrouwelijk;Links;3;32;right;no;150;rightarrow;371;true;focus;yes;449410;Chrome;112.0;Windows;10;undefined;undefined;1536 x 864;1536 x 864
H021;52;Vrouwelijk;Links;3;33;right;no;150;rightarrow;370;true;focus;yes;450546;Chrome;112.0;Windows;10;undefined;undefined;1536 x 864;1536 x 864
H021;52;Vrouwelijk;Links;3;34;left;no;150;leftarrow;386;true;focus;yes;451695;Chrome;112.0;Windows;10;undefined;undefined;1536 x 864;1536 x 864
H021;52;Vrouwelijk;Links;3;35;right;no;150;rightarrow;415;true;focus;yes;452874;Chrome;112.0;Windows;10;undefined;undefined;1536 x 864;1536 x 864
H021;52;Vrouwelijk;Links;3;36;right;yes;150;rightarrow;408;false;focus;yes;454057;Chrome;112.0;Windows;10;undefined;undefined;1536 x 864;1536 x 864
H021;52;Vrouwelijk;Links;3;37;left;no;100;leftarrow;396;true;focus;yes;455231;Chrome;112.0;Windows;10;undefined;undefined;1536 x 864;1536 x 864
H021;52;Vrouwelijk;Links;3;38;left;yes;100;undefined;null;true;focus;yes;457242;Chrome;112.0;Windows;10;undefined;undefined;1536 x 864;1536 x 864
H021;52;Vrouwelijk;Links;3;39;right;no;150;rightarrow;319;true;focus;yes;458329;Chrome;112.0;Windows;10;undefined;undefined;1536 x 864;1536 x 864
H021;52;Vrouwelijk;Links;3;40;left;no;150;rightarrow;295;false;focus;yes;459380;Chrome;112.0;Windows;10;undefined;undefined;1536 x 864;1536 x 864
H021;52;Vrouwelijk;Links;3;41;right;no;150;rightarrow;361;true;focus;yes;460527;Chrome;112.0;Windows;10;undefined;undefined;1536 x 864;1536 x 864
H021;52;Vrouwelijk;Links;3;42;left;no;150;leftarrow;426;true;focus;yes;461730;Chrome;112.0;Windows;10;undefined;undefined;1536 x 864;1536 x 864
H021;52;Vrouwelijk;Links;3;43;left;no;150;leftarrow;339;true;focus;yes;462827;Chrome;112.0;Windows;10;undefined;undefined;1536 x 864;1536 x 864
H021;52;Vrouwelijk;Links;3;44;right;yes;150;rightarrow;333;false;focus;yes;463931;Chrome;112.0;Windows;10;undefined;undefined;1536 x 864;1536 x 864
H021;52;Vrouwelijk;Links;3;45;left;yes;100;undefined;null;true;focus;yes;465945;Chrome;112.0;Windows;10;undefined;undefined;1536 x 864;1536 x 864
H021;52;Vrouwelijk;Links;3;46;right;no;150;rightarrow;353;true;focus;yes;467078;Chrome;112.0;Windows;10;undefined;undefined;1536 x 864;1536 x 864
H021;52;Vrouwelijk;Links;3;47;left;no;150;leftarrow;366;true;focus;yes;468218;Chrome;112.0;Windows;10;undefined;undefined;1536 x 864;1536 x 864
H021;52;Vrouwelijk;Links;3;48;right;no;150;rightarrow;316;true;focus;yes;469302;Chrome;112.0;Windows;10;undefined;undefined;1536 x 864;1536 x 864
H021;52;Vrouwelijk;Links;3;49;left;no;150;leftarrow;264;true;focus;yes;470344;Chrome;112.0;Windows;10;undefined;undefined;1536 x 864;1536 x 864
H021;52;Vrouwelijk;Links;3;50;left;no;150;leftarrow;416;true;focus;yes;471531;Chrome;112.0;Windows;10;undefined;undefined;1536 x 864;1536 x 864
H021;52;Vrouwelijk;Links;3;51;right;no;150;rightarrow;335;true;focus;yes;472625;Chrome;112.0;Windows;10;undefined;undefined;1536 x 864;1536 x 864
H021;52;Vrouwelijk;Links;3;52;right;no;150;rightarrow;587;true;focus;yes;473972;Chrome;112.0;Windows;10;undefined;undefined;1536 x 864;1536 x 864
H021;52;Vrouwelijk;Links;3;53;right;yes;150;rightarrow;553;false;focus;yes;475295;Chrome;112.0;Windows;10;undefined;undefined;1536 x 864;1536 x 864
H021;52;Vrouwelijk;Links;3;54;right;no;100;rightarrow;387;true;focus;yes;476457;Chrome;112.0;Windows;10;undefined;undefined;1536 x 864;1536 x 864
H021;52;Vrouwelijk;Links;3;55;left;yes;100;leftarrow;356;false;focus;yes;477584;Chrome;112.0;Windows;10;undefined;undefined;1536 x 864;1536 x 864
H021;52;Vrouwelijk;Links;3;56;left;no;50;leftarrow;433;true;focus;yes;478800;Chrome;112.0;Windows;10;undefined;undefined;1536 x 864;1536 x 864
H021;52;Vrouwelijk;Links;3;57;left;no;50;leftarrow;378;true;focus;yes;479944;Chrome;112.0;Windows;10;undefined;undefined;1536 x 864;1536 x 864
H021;52;Vrouwelijk;Links;3;58;left;no;50;leftarrow;382;true;focus;yes;481094;Chrome;112.0;Windows;10;undefined;undefined;1536 x 864;1536 x 864
H021;52;Vrouwelijk;Links;3;60;right;no;50;rightarrow;286;true;focus;yes;483325;Chrome;112.0;Windows;10;undefined;undefined;1536 x 864;1536 x 864
H021;52;Vrouwelijk;Links;3;59;right;no;50;rightarrow;417;true;focus;yes;482269;Chrome;112.0;Windows;10;undefined;undefined;1536 x 864;1536 x 864
H021;52;Vrouwelijk;Links;3;61;right;yes;50;undefined;null;true;focus;yes;485366;Chrome;112.0;Windows;10;undefined;undefined;1536 x 864;1536 x 864
H021;52;Vrouwelijk;Links;3;62;left;yes;100;leftarrow;376;false;focus;yes;486497;Chrome;112.0;Windows;10;undefined;undefined;1536 x 864;1536 x 864
H021;52;Vrouwelijk;Links;3;63;left;no;50;leftarrow;395;true;focus;yes;487655;Chrome;112.0;Windows;10;undefined;undefined;1536 x 864;1536 x 864
H021;52;Vrouwelijk;Links;3;64;right;no;50;rightarrow;406;true;focus;yes;488842;Chrome;112.0;Windows;10;undefined;undefined;1536 x 864;1536 x 864
H021;52;Vrouwelijk;Links;3;65;left;yes;50;undefined;null;true;focus;yes;490863;Chrome;112.0;Windows;10;undefined;undefined;1536 x 864;1536 x 864
H021;52;Vrouwelijk;Links;3;66;right;yes;100;undefined;null;true;focus;yes;492869;Chrome;112.0;Windows;10;undefined;undefined;1536 x 864;1536 x 864
H021;52;Vrouwelijk;Links;3;67;right;no;150;rightarrow;424;true;focus;yes;494061;Chrome;112.0;Windows;10;undefined;undefined;1536 x 864;1536 x 864
H021;52;Vrouwelijk;Links;3;68;left;no;150;leftarrow;443;true;focus;yes;495287;Chrome;112.0;Windows;10;undefined;undefined;1536 x 864;1536 x 864
H021;52;Vrouwelijk;Links;3;69;right;no;150;rightarrow;372;true;focus;yes;496425;Chrome;112.0;Windows;10;undefined;undefined;1536 x 864;1536 x 864
H021;52;Vrouwelijk;Links;3;70;left;no;150;leftarrow;360;true;focus;yes;497555;Chrome;112.0;Windows;10;undefined;undefined;1536 x 864;1536 x 864
H021;52;Vrouwelijk;Links;3;71;right;no;150;rightarrow;299;true;focus;yes;498631;Chrome;112.0;Windows;10;undefined;undefined;1536 x 864;1536 x 864
H021;52;Vrouwelijk;Links;3;72;left;no;150;leftarrow;410;true;focus;yes;499819;Chrome;112.0;Windows;10;undefined;undefined;1536 x 864;1536 x 864
H021;52;Vrouwelijk;Links;3;73;left;no;150;leftarrow;397;true;focus;yes;500999;Chrome;112.0;Windows;10;undefined;undefined;1536 x 864;1536 x 864
H021;52;Vrouwelijk;Links;3;74;right;no;150;rightarrow;429;true;focus;yes;502189;Chrome;112.0;Windows;10;undefined;undefined;1536 x 864;1536 x 864
H021;52;Vrouwelijk;Links;3;75;right;no;150;leftarrow;572;false;focus;yes;503541;Chrome;112.0;Windows;10;undefined;undefined;1536 x 864;1536 x 864
H021;52;Vrouwelijk;Links;3;76;left;yes;150;leftarrow;456;false;focus;yes;504761;Chrome;112.0;Windows;10;undefined;undefined;1536 x 864;1536 x 864
H021;52;Vrouwelijk;Links;3;77;right;no;100;rightarrow;397;true;focus;yes;505937;Chrome;112.0;Windows;10;undefined;undefined;1536 x 864;1536 x 864
H021;52;Vrouwelijk;Links;3;78;left;no;100;leftarrow;552;true;focus;yes;507247;Chrome;112.0;Windows;10;undefined;undefined;1536 x 864;1536 x 864
H021;52;Vrouwelijk;Links;3;79;right;yes;100;rightarrow;408;false;focus;yes;508432;Chrome;112.0;Windows;10;undefined;undefined;1536 x 864;1536 x 864
H021;52;Vrouwelijk;Links;3;80;left;no;50;leftarrow;457;true;focus;yes;509669;Chrome;112.0;Windows;10;undefined;undefined;1536 x 864;1536 x 864
H021;52;Vrouwelijk;Links;3;81;left;no;50;leftarrow;485;true;focus;yes;510929;Chrome;112.0;Windows;10;undefined;undefined;1536 x 864;1536 x 864
H021;52;Vrouwelijk;Links;3;82;right;no;50;rightarrow;560;true;focus;yes;512267;Chrome;112.0;Windows;10;undefined;undefined;1536 x 864;1536 x 864
H021;52;Vrouwelijk;Links;3;83;right;yes;50;undefined;null;true;focus;yes;514289;Chrome;112.0;Windows;10;undefined;undefined;1536 x 864;1536 x 864
H021;52;Vrouwelijk;Links;3;84;right;no;100;rightarrow;412;true;focus;yes;515482;Chrome;112.0;Windows;10;undefined;undefined;1536 x 864;1536 x 864
H021;52;Vrouwelijk;Links;3;85;left;no;100;leftarrow;373;true;focus;yes;516617;Chrome;112.0;Windows;10;undefined;undefined;1536 x 864;1536 x 864
H021;52;Vrouwelijk;Links;3;86;left;yes;100;undefined;null;true;focus;yes;518639;Chrome;112.0;Windows;10;undefined;undefined;1536 x 864;1536 x 864
H021;52;Vrouwelijk;Links;3;87;left;no;150;leftarrow;347;true;focus;yes;519769;Chrome;112.0;Windows;10;undefined;undefined;1536 x 864;1536 x 864
H021;52;Vrouwelijk;Links;3;88;right;no;150;rightarrow;411;true;focus;yes;520946;Chrome;112.0;Windows;10;undefined;undefined;1536 x 864;1536 x 864
H021;52;Vrouwelijk;Links;3;89;right;no;150;rightarrow;387;true;focus;yes;522099;Chrome;112.0;Windows;10;undefined;undefined;1536 x 864;1536 x 864
H021;52;Vrouwelijk;Links;3;90;right;yes;150;rightarrow;347;false;focus;yes;523220;Chrome;112.0;Windows;10;undefined;undefined;1536 x 864;1536 x 864
H021;52;Vrouwelijk;Links;3;91;left;no;100;leftarrow;382;true;focus;yes;524385;Chrome;112.0;Windows;10;undefined;undefined;1536 x 864;1536 x 864
H021;52;Vrouwelijk;Links;3;92;left;no;100;leftarrow;512;true;focus;yes;525674;Chrome;112.0;Windows;10;undefined;undefined;1536 x 864;1536 x 864
H021;52;Vrouwelijk;Links;3;93;left;no;100;leftarrow;370;true;focus;yes;526815;Chrome;112.0;Windows;10;undefined;undefined;1536 x 864;1536 x 864
H021;52;Vrouwelijk;Links;3;94;right;no;100;rightarrow;362;true;focus;yes;527940;Chrome;112.0;Windows;10;undefined;undefined;1536 x 864;1536 x 864
H021;52;Vrouwelijk;Links;3;95;left;yes;100;undefined;null;true;focus;yes;529974;Chrome;112.0;Windows;10;undefined;undefined;1536 x 864;1536 x 864
H021;52;Vrouwelijk;Links;3;96;right;no;150;rightarrow;436;true;focus;yes;531178;Chrome;112.0;Windows;10;undefined;undefined;1536 x 864;1536 x 864
H021;52;Vrouwelijk;Links;3;97;right;no;150;rightarrow;346;true;focus;yes;532303;Chrome;112.0;Windows;10;undefined;undefined;1536 x 864;1536 x 864
H021;52;Vrouwelijk;Links;3;98;left;yes;150;leftarrow;398;false;focus;yes;533468;Chrome;112.0;Windows;10;undefined;undefined;1536 x 864;1536 x 864
H021;52;Vrouwelijk;Links;3;99;left;no;100;leftarrow;407;true;focus;yes;534648;Chrome;112.0;Windows;10;undefined;undefined;1536 x 864;1536 x 864
H021;52;Vrouwelijk;Links;3;100;right;no;100;rightarrow;373;true;focus;yes;535803;Chrome;112.0;Windows;10;undefined;undefined;1536 x 864;1536 x 864
H021;52;Vrouwelijk;Links;3;101;left;no;100;leftarrow;563;true;focus;yes;537150;Chrome;112.0;Windows;10;undefined;undefined;1536 x 864;1536 x 864
H021;52;Vrouwelijk;Links;3;102;left;no;100;leftarrow;730;true;focus;yes;538662;Chrome;112.0;Windows;10;undefined;undefined;1536 x 864;1536 x 864
H021;52;Vrouwelijk;Links;3;103;right;yes;100;undefined;null;true;focus;yes;540711;Chrome;112.0;Windows;10;undefined;undefined;1536 x 864;1536 x 864
H021;52;Vrouwelijk;Links;3;104;right;no;150;rightarrow;411;true;focus;yes;541901;Chrome;112.0;Windows;10;undefined;undefined;1536 x 864;1536 x 864
H021;52;Vrouwelijk;Links;3;105;right;no;150;rightarrow;363;true;focus;yes;543040;Chrome;112.0;Windows;10;undefined;undefined;1536 x 864;1536 x 864
H021;52;Vrouwelijk;Links;3;106;right;no;150;rightarrow;299;true;focus;yes;544099;Chrome;112.0;Windows;10;undefined;undefined;1536 x 864;1536 x 864
H021;52;Vrouwelijk;Links;3;107;left;no;150;leftarrow;326;true;focus;yes;545189;Chrome;112.0;Windows;10;undefined;undefined;1536 x 864;1536 x 864
H021;52;Vrouwelijk;Links;3;108;left;no;150;leftarrow;346;true;focus;yes;546290;Chrome;112.0;Windows;10;undefined;undefined;1536 x 864;1536 x 864
H021;52;Vrouwelijk;Links;3;109;right;no;150;rightarrow;271;true;focus;yes;547330;Chrome;112.0;Windows;10;undefined;undefined;1536 x 864;1536 x 864
H021;52;Vrouwelijk;Links;3;110;left;no;150;leftarrow;317;true;focus;yes;548427;Chrome;112.0;Windows;10;undefined;undefined;1536 x 864;1536 x 864
H021;52;Vrouwelijk;Links;3;111;left;yes;150;leftarrow;347;false;focus;yes;549541;Chrome;112.0;Windows;10;undefined;undefined;1536 x 864;1536 x 864
H021;52;Vrouwelijk;Links;3;112;right;yes;100;rightarrow;274;false;focus;yes;550571;Chrome;112.0;Windows;10;undefined;undefined;1536 x 864;1536 x 864
H021;52;Vrouwelijk;Links;3;113;right;yes;50;undefined;null;true;focus;yes;552590;Chrome;112.0;Windows;10;undefined;undefined;1536 x 864;1536 x 864
H021;52;Vrouwelijk;Links;3;114;left;no;100;leftarrow;384;true;focus;yes;553756;Chrome;112.0;Windows;10;undefined;undefined;1536 x 864;1536 x 864
H021;52;Vrouwelijk;Links;3;115;right;no;100;rightarrow;371;true;focus;yes;554901;Chrome;112.0;Windows;10;undefined;undefined;1536 x 864;1536 x 864
H021;52;Vrouwelijk;Links;3;116;left;yes;100;leftarrow;382;false;focus;yes;556065;Chrome;112.0;Windows;10;undefined;undefined;1536 x 864;1536 x 864
H021;52;Vrouwelijk;Links;3;117;left;no;50;rightarrow;289;false;focus;yes;557126;Chrome;112.0;Windows;10;undefined;undefined;1536 x 864;1536 x 864
H021;52;Vrouwelijk;Links;3;118;right;no;50;rightarrow;283;true;focus;yes;558179;Chrome;112.0;Windows;10;undefined;undefined;1536 x 864;1536 x 864
H021;52;Vrouwelijk;Links;3;119;left;no;50;rightarrow;242;false;focus;yes;559190;Chrome;112.0;Windows;10;undefined;undefined;1536 x 864;1536 x 864
H021;52;Vrouwelijk;Links;3;120;right;no;50;rightarrow;374;true;focus;yes;560336;Chrome;112.0;Windows;10;undefined;undefined;1536 x 864;1536 x 864
H021;52;Vrouwelijk;Links;3;121;right;no;50;rightarrow;401;true;focus;yes;561519;Chrome;112.0;Windows;10;undefined;undefined;1536 x 864;1536 x 864
H021;52;Vrouwelijk;Links;3;122;right;yes;50;undefined;null;true;focus;yes;563554;Chrome;112.0;Windows;10;undefined;undefined;1536 x 864;1536 x 864
H021;52;Vrouwelijk;Links;3;123;right;no;100;rightarrow;496;true;focus;yes;564832;Chrome;112.0;Windows;10;undefined;undefined;1536 x 864;1536 x 864
H021;52;Vrouwelijk;Links;3;124;left;no;100;leftarrow;358;true;focus;yes;565959;Chrome;112.0;Windows;10;undefined;undefined;1536 x 864;1536 x 864
H021;52;Vrouwelijk;Links;3;125;right;no;100;rightarrow;385;true;focus;yes;567123;Chrome;112.0;Windows;10;undefined;undefined;1536 x 864;1536 x 864
H021;52;Vrouwelijk;Links;3;126;left;no;100;leftarrow;349;true;focus;yes;568240;Chrome;112.0;Windows;10;undefined;undefined;1536 x 864;1536 x 864
H021;52;Vrouwelijk;Links;3;127;left;yes;100;leftarrow;414;false;focus;yes;569419;Chrome;112.0;Windows;10;undefined;undefined;1536 x 864;1536 x 864
H021;52;Vrouwelijk;Links;3;128;left;no;50;leftarrow;416;true;focus;yes;570598;Chrome;112.0;Windows;10;undefined;undefined;1536 x 864;1536 x 864
H021;52;Vrouwelijk;Links;4;1;right;no;50;rightarrow;342;true;focus;yes;589723;Chrome;112.0;Windows;10;undefined;undefined;1536 x 864;1536 x 864
H021;52;Vrouwelijk;Links;4;2;right;no;50;rightarrow;333;true;focus;yes;590828;Chrome;112.0;Windows;10;undefined;undefined;1536 x 864;1536 x 864
H021;52;Vrouwelijk;Links;4;3;left;yes;50;undefined;null;true;focus;yes;592847;Chrome;112.0;Windows;10;undefined;undefined;1536 x 864;1536 x 864
H021;52;Vrouwelijk;Links;4;4;right;no;100;rightarrow;315;true;focus;yes;593943;Chrome;112.0;Windows;10;undefined;undefined;1536 x 864;1536 x 864
H021;52;Vrouwelijk;Links;4;5;left;no;100;leftarrow;351;true;focus;yes;595072;Chrome;112.0;Windows;10;undefined;undefined;1536 x 864;1536 x 864
H021;52;Vrouwelijk;Links;4;6;left;no;100;leftarrow;380;true;focus;yes;596230;Chrome;112.0;Windows;10;undefined;undefined;1536 x 864;1536 x 864
H021;52;Vrouwelijk;Links;4;7;right;yes;100;rightarrow;356;false;focus;yes;597365;Chrome;112.0;Windows;10;undefined;undefined;1536 x 864;1536 x 864
H021;52;Vrouwelijk;Links;4;8;left;no;50;leftarrow;339;true;focus;yes;598460;Chrome;112.0;Windows;10;undefined;undefined;1536 x 864;1536 x 864
H021;52;Vrouwelijk;Links;4;9;right;no;50;rightarrow;417;true;focus;yes;599660;Chrome;112.0;Windows;10;undefined;undefined;1536 x 864;1536 x 864
H021;52;Vrouwelijk;Links;4;10;left;no;50;leftarrow;372;true;focus;yes;600816;Chrome;112.0;Windows;10;undefined;undefined;1536 x 864;1536 x 864
H021;52;Vrouwelijk;Links;4;11;left;no;50;leftarrow;367;true;focus;yes;601939;Chrome;112.0;Windows;10;undefined;undefined;1536 x 864;1536 x 864
H021;52;Vrouwelijk;Links;4;12;left;no;50;leftarrow;349;true;focus;yes;603055;Chrome;112.0;Windows;10;undefined;undefined;1536 x 864;1536 x 864
H021;52;Vrouwelijk;Links;4;13;right;yes;50;undefined;null;true;focus;yes;605080;Chrome;112.0;Windows;10;undefined;undefined;1536 x 864;1536 x 864
H021;52;Vrouwelijk;Links;4;14;right;no;100;rightarrow;358;true;focus;yes;606220;Chrome;112.0;Windows;10;undefined;undefined;1536 x 864;1536 x 864
H021;52;Vrouwelijk;Links;4;15;left;yes;100;leftarrow;439;false;focus;yes;607425;Chrome;112.0;Windows;10;undefined;undefined;1536 x 864;1536 x 864
H021;52;Vrouwelijk;Links;4;16;right;no;50;rightarrow;345;true;focus;yes;608552;Chrome;112.0;Windows;10;undefined;undefined;1536 x 864;1536 x 864
H021;52;Vrouwelijk;Links;4;17;right;yes;50;rightarrow;346;false;focus;yes;609669;Chrome;112.0;Windows;10;undefined;undefined;1536 x 864;1536 x 864
H021;52;Vrouwelijk;Links;4;18;left;yes;50;undefined;null;true;focus;yes;611711;Chrome;112.0;Windows;10;undefined;undefined;1536 x 864;1536 x 864
H021;52;Vrouwelijk;Links;4;19;right;no;100;rightarrow;337;true;focus;yes;612814;Chrome;112.0;Windows;10;undefined;undefined;1536 x 864;1536 x 864
H021;52;Vrouwelijk;Links;4;20;left;no;100;leftarrow;463;true;focus;yes;614033;Chrome;112.0;Windows;10;undefined;undefined;1536 x 864;1536 x 864
H021;52;Vrouwelijk;Links;4;21;left;no;100;leftarrow;434;true;focus;yes;615238;Chrome;112.0;Windows;10;undefined;undefined;1536 x 864;1536 x 864
H021;52;Vrouwelijk;Links;4;22;right;no;100;rightarrow;381;true;focus;yes;616388;Chrome;112.0;Windows;10;undefined;undefined;1536 x 864;1536 x 864
H021;52;Vrouwelijk;Links;4;23;left;no;100;leftarrow;405;true;focus;yes;617570;Chrome;112.0;Windows;10;undefined;undefined;1536 x 864;1536 x 864
H021;52;Vrouwelijk;Links;4;24;right;no;100;rightarrow;323;true;focus;yes;618675;Chrome;112.0;Windows;10;undefined;undefined;1536 x 864;1536 x 864
H021;52;Vrouwelijk;Links;4;25;right;no;100;rightarrow;401;true;focus;yes;619843;Chrome;112.0;Windows;10;undefined;undefined;1536 x 864;1536 x 864
H021;52;Vrouwelijk;Links;4;26;left;no;100;leftarrow;397;true;focus;yes;620999;Chrome;112.0;Windows;10;undefined;undefined;1536 x 864;1536 x 864
H021;52;Vrouwelijk;Links;4;27;left;yes;100;undefined;null;true;focus;yes;623022;Chrome;112.0;Windows;10;undefined;undefined;1536 x 864;1536 x 864
H021;52;Vrouwelijk;Links;4;28;left;no;150;leftarrow;488;true;focus;yes;624280;Chrome;112.0;Windows;10;undefined;undefined;1536 x 864;1536 x 864
H021;52;Vrouwelijk;Links;4;29;right;yes;150;rightarrow;367;false;focus;yes;625415;Chrome;112.0;Windows;10;undefined;undefined;1536 x 864;1536 x 864
H021;52;Vrouwelijk;Links;4;30;right;no;100;rightarrow;369;true;focus;yes;626543;Chrome;112.0;Windows;10;undefined;undefined;1536 x 864;1536 x 864
H021;52;Vrouwelijk;Links;4;31;left;no;100;leftarrow;378;true;focus;yes;627679;Chrome;112.0;Windows;10;undefined;undefined;1536 x 864;1536 x 864
H021;52;Vrouwelijk;Links;4;32;right;no;100;rightarrow;325;true;focus;yes;628785;Chrome;112.0;Windows;10;undefined;undefined;1536 x 864;1536 x 864
H021;52;Vrouwelijk;Links;4;33;left;no;100;leftarrow;347;true;focus;yes;629899;Chrome;112.0;Windows;10;undefined;undefined;1536 x 864;1536 x 864
H021;52;Vrouwelijk;Links;4;34;right;yes;100;rightarrow;347;false;focus;yes;631024;Chrome;112.0;Windows;10;undefined;undefined;1536 x 864;1536 x 864
H021;52;Vrouwelijk;Links;4;35;right;no;50;rightarrow;355;true;focus;yes;632155;Chrome;112.0;Windows;10;undefined;undefined;1536 x 864;1536 x 864
H021;52;Vrouwelijk;Links;4;36;right;no;50;rightarrow;412;true;focus;yes;633324;Chrome;112.0;Windows;10;undefined;undefined;1536 x 864;1536 x 864
H021;52;Vrouwelijk;Links;4;37;left;yes;50;undefined;null;true;focus;yes;635354;Chrome;112.0;Windows;10;undefined;undefined;1536 x 864;1536 x 864
H021;52;Vrouwelijk;Links;4;38;right;no;100;rightarrow;353;true;focus;yes;636471;Chrome;112.0;Windows;10;undefined;undefined;1536 x 864;1536 x 864
H021;52;Vrouwelijk;Links;4;39;left;no;100;leftarrow;391;true;focus;yes;637631;Chrome;112.0;Windows;10;undefined;undefined;1536 x 864;1536 x 864
H021;52;Vrouwelijk;Links;4;40;left;no;100;leftarrow;372;true;focus;yes;638782;Chrome;112.0;Windows;10;undefined;undefined;1536 x 864;1536 x 864
H021;52;Vrouwelijk;Links;4;41;right;yes;100;rightarrow;386;false;focus;yes;639940;Chrome;112.0;Windows;10;undefined;undefined;1536 x 864;1536 x 864
H021;52;Vrouwelijk;Links;4;42;left;no;50;leftarrow;405;true;focus;yes;641126;Chrome;112.0;Windows;10;undefined;undefined;1536 x 864;1536 x 864
H021;52;Vrouwelijk;Links;4;43;left;yes;50;undefined;null;true;focus;yes;643164;Chrome;112.0;Windows;10;undefined;undefined;1536 x 864;1536 x 864
H021;52;Vrouwelijk;Links;4;44;right;no;100;rightarrow;543;true;focus;yes;644476;Chrome;112.0;Windows;10;undefined;undefined;1536 x 864;1536 x 864
H021;52;Vrouwelijk;Links;4;45;left;no;100;leftarrow;349;true;focus;yes;645591;Chrome;112.0;Windows;10;undefined;undefined;1536 x 864;1536 x 864
H021;52;Vrouwelijk;Links;4;46;right;no;100;rightarrow;393;true;focus;yes;646740;Chrome;112.0;Windows;10;undefined;undefined;1536 x 864;1536 x 864
H021;52;Vrouwelijk;Links;4;47;left;no;100;leftarrow;313;true;focus;yes;647808;Chrome;112.0;Windows;10;undefined;undefined;1536 x 864;1536 x 864
H021;52;Vrouwelijk;Links;4;48;right;no;100;rightarrow;320;true;focus;yes;648892;Chrome;112.0;Windows;10;undefined;undefined;1536 x 864;1536 x 864
H021;52;Vrouwelijk;Links;4;49;right;no;100;rightarrow;458;true;focus;yes;650105;Chrome;112.0;Windows;10;undefined;undefined;1536 x 864;1536 x 864
H021;52;Vrouwelijk;Links;4;50;right;no;100;rightarrow;359;true;focus;yes;651242;Chrome;112.0;Windows;10;undefined;undefined;1536 x 864;1536 x 864
H021;52;Vrouwelijk;Links;4;51;right;yes;100;undefined;null;true;focus;yes;653266;Chrome;112.0;Windows;10;undefined;undefined;1536 x 864;1536 x 864
H021;52;Vrouwelijk;Links;4;52;left;no;150;leftarrow;414;true;focus;yes;654450;Chrome;112.0;Windows;10;undefined;undefined;1536 x 864;1536 x 864
H021;52;Vrouwelijk;Links;4;53;left;no;150;leftarrow;411;true;focus;yes;655630;Chrome;112.0;Windows;10;undefined;undefined;1536 x 864;1536 x 864
H021;52;Vrouwelijk;Links;4;54;right;no;150;rightarrow;450;true;focus;yes;656839;Chrome;112.0;Windows;10;undefined;undefined;1536 x 864;1536 x 864
H021;52;Vrouwelijk;Links;4;55;left;no;150;leftarrow;462;true;focus;yes;658074;Chrome;112.0;Windows;10;undefined;undefined;1536 x 864;1536 x 864
H021;52;Vrouwelijk;Links;4;56;left;yes;150;undefined;null;true;focus;yes;660101;Chrome;112.0;Windows;10;undefined;undefined;1536 x 864;1536 x 864
H021;52;Vrouwelijk;Links;4;57;right;no;200;rightarrow;430;true;focus;yes;661311;Chrome;112.0;Windows;10;undefined;undefined;1536 x 864;1536 x 864
H021;52;Vrouwelijk;Links;4;58;right;no;200;rightarrow;486;true;focus;yes;662561;Chrome;112.0;Windows;10;undefined;undefined;1536 x 864;1536 x 864
H021;52;Vrouwelijk;Links;4;59;right;yes;200;rightarrow;381;false;focus;yes;663724;Chrome;112.0;Windows;10;undefined;undefined;1536 x 864;1536 x 864
H021;52;Vrouwelijk;Links;4;60;left;yes;150;undefined;null;true;focus;yes;665749;Chrome;112.0;Windows;10;undefined;undefined;1536 x 864;1536 x 864
H021;52;Vrouwelijk;Links;4;61;left;no;200;leftarrow;365;true;focus;yes;666883;Chrome;112.0;Windows;10;undefined;undefined;1536 x 864;1536 x 864
H021;52;Vrouwelijk;Links;4;62;left;no;200;leftarrow;413;true;focus;yes;668062;Chrome;112.0;Windows;10;undefined;undefined;1536 x 864;1536 x 864
H021;52;Vrouwelijk;Links;4;63;left;no;200;leftarrow;330;true;focus;yes;669165;Chrome;112.0;Windows;10;undefined;undefined;1536 x 864;1536 x 864
H021;52;Vrouwelijk;Links;4;64;right;no;200;rightarrow;387;true;focus;yes;670325;Chrome;112.0;Windows;10;undefined;undefined;1536 x 864;1536 x 864
H021;52;Vrouwelijk;Links;4;65;right;yes;200;rightarrow;362;false;focus;yes;671457;Chrome;112.0;Windows;10;undefined;undefined;1536 x 864;1536 x 864
H021;52;Vrouwelijk;Links;4;66;right;no;150;rightarrow;1206;true;focus;yes;673429;Chrome;112.0;Windows;10;undefined;undefined;1536 x 864;1536 x 864
H021;52;Vrouwelijk;Links;4;67;right;no;150;rightarrow;369;true;focus;yes;674581;Chrome;112.0;Windows;10;undefined;undefined;1536 x 864;1536 x 864
H021;52;Vrouwelijk;Links;4;68;left;no;150;leftarrow;394;true;focus;yes;675758;Chrome;112.0;Windows;10;undefined;undefined;1536 x 864;1536 x 864
H021;52;Vrouwelijk;Links;4;69;left;yes;150;leftarrow;327;false;focus;yes;676848;Chrome;112.0;Windows;10;undefined;undefined;1536 x 864;1536 x 864
H021;52;Vrouwelijk;Links;4;70;left;no;100;leftarrow;524;true;focus;yes;678141;Chrome;112.0;Windows;10;undefined;undefined;1536 x 864;1536 x 864
H021;52;Vrouwelijk;Links;4;71;right;no;100;rightarrow;406;true;focus;yes;679320;Chrome;112.0;Windows;10;undefined;undefined;1536 x 864;1536 x 864
H021;52;Vrouwelijk;Links;4;72;left;no;100;leftarrow;538;true;focus;yes;680639;Chrome;112.0;Windows;10;undefined;undefined;1536 x 864;1536 x 864
H021;52;Vrouwelijk;Links;4;73;right;no;100;rightarrow;345;true;focus;yes;681746;Chrome;112.0;Windows;10;undefined;undefined;1536 x 864;1536 x 864
H021;52;Vrouwelijk;Links;4;74;left;yes;100;leftarrow;358;false;focus;yes;682882;Chrome;112.0;Windows;10;undefined;undefined;1536 x 864;1536 x 864
H021;52;Vrouwelijk;Links;4;75;left;no;50;leftarrow;391;true;focus;yes;684043;Chrome;112.0;Windows;10;undefined;undefined;1536 x 864;1536 x 864
H021;52;Vrouwelijk;Links;4;76;right;no;50;rightarrow;384;true;focus;yes;685189;Chrome;112.0;Windows;10;undefined;undefined;1536 x 864;1536 x 864
H021;52;Vrouwelijk;Links;4;77;left;no;50;leftarrow;328;true;focus;yes;686287;Chrome;112.0;Windows;10;undefined;undefined;1536 x 864;1536 x 864
H021;52;Vrouwelijk;Links;4;78;right;yes;50;undefined;null;true;focus;yes;688333;Chrome;112.0;Windows;10;undefined;undefined;1536 x 864;1536 x 864
H021;52;Vrouwelijk;Links;4;79;left;no;100;leftarrow;426;true;focus;yes;689541;Chrome;112.0;Windows;10;undefined;undefined;1536 x 864;1536 x 864
H021;52;Vrouwelijk;Links;4;80;right;no;100;rightarrow;384;true;focus;yes;690702;Chrome;112.0;Windows;10;undefined;undefined;1536 x 864;1536 x 864
H021;52;Vrouwelijk;Links;4;81;right;no;100;leftarrow;315;false;focus;yes;691775;Chrome;112.0;Windows;10;undefined;undefined;1536 x 864;1536 x 864
H021;52;Vrouwelijk;Links;4;82;left;yes;100;leftarrow;361;false;focus;yes;692899;Chrome;112.0;Windows;10;undefined;undefined;1536 x 864;1536 x 864
H021;52;Vrouwelijk;Links;4;83;right;yes;50;undefined;null;true;focus;yes;694927;Chrome;112.0;Windows;10;undefined;undefined;1536 x 864;1536 x 864
H021;52;Vrouwelijk;Links;4;84;left;no;100;leftarrow;417;true;focus;yes;696129;Chrome;112.0;Windows;10;undefined;undefined;1536 x 864;1536 x 864
H021;52;Vrouwelijk;Links;4;85;right;no;100;rightarrow;391;true;focus;yes;697281;Chrome;112.0;Windows;10;undefined;undefined;1536 x 864;1536 x 864
H021;52;Vrouwelijk;Links;4;86;left;no;100;leftarrow;342;true;focus;yes;698404;Chrome;112.0;Windows;10;undefined;undefined;1536 x 864;1536 x 864
H021;52;Vrouwelijk;Links;4;87;right;no;100;rightarrow;394;true;focus;yes;699568;Chrome;112.0;Windows;10;undefined;undefined;1536 x 864;1536 x 864
H021;52;Vrouwelijk;Links;4;88;left;no;100;leftarrow;391;true;focus;yes;700735;Chrome;112.0;Windows;10;undefined;undefined;1536 x 864;1536 x 864
H021;52;Vrouwelijk;Links;4;89;right;no;100;rightarrow;342;true;focus;yes;701848;Chrome;112.0;Windows;10;undefined;undefined;1536 x 864;1536 x 864
H021;52;Vrouwelijk;Links;4;90;right;no;100;rightarrow;439;true;focus;yes;703058;Chrome;112.0;Windows;10;undefined;undefined;1536 x 864;1536 x 864
H021;52;Vrouwelijk;Links;4;91;left;no;100;leftarrow;471;true;focus;yes;704299;Chrome;112.0;Windows;10;undefined;undefined;1536 x 864;1536 x 864
H021;52;Vrouwelijk;Links;4;92;right;no;100;rightarrow;387;true;focus;yes;705453;Chrome;112.0;Windows;10;undefined;undefined;1536 x 864;1536 x 864
H021;52;Vrouwelijk;Links;4;93;left;no;100;leftarrow;330;true;focus;yes;706556;Chrome;112.0;Windows;10;undefined;undefined;1536 x 864;1536 x 864
H021;52;Vrouwelijk;Links;4;94;left;no;100;leftarrow;442;true;focus;yes;707776;Chrome;112.0;Windows;10;undefined;undefined;1536 x 864;1536 x 864
H021;52;Vrouwelijk;Links;4;95;left;yes;100;undefined;null;true;focus;yes;709803;Chrome;112.0;Windows;10;undefined;undefined;1536 x 864;1536 x 864
H021;52;Vrouwelijk;Links;4;96;right;yes;150;rightarrow;396;false;focus;yes;710969;Chrome;112.0;Windows;10;undefined;undefined;1536 x 864;1536 x 864
H021;52;Vrouwelijk;Links;4;97;right;no;100;rightarrow;546;true;focus;yes;712280;Chrome;112.0;Windows;10;undefined;undefined;1536 x 864;1536 x 864
H021;52;Vrouwelijk;Links;4;98;right;yes;100;undefined;null;true;focus;yes;714304;Chrome;112.0;Windows;10;undefined;undefined;1536 x 864;1536 x 864
H021;52;Vrouwelijk;Links;4;99;left;yes;150;undefined;null;true;focus;yes;716349;Chrome;112.0;Windows;10;undefined;undefined;1536 x 864;1536 x 864
H021;52;Vrouwelijk;Links;4;100;right;no;200;rightarrow;406;true;focus;yes;717535;Chrome;112.0;Windows;10;undefined;undefined;1536 x 864;1536 x 864
H021;52;Vrouwelijk;Links;4;101;left;no;200;leftarrow;523;true;focus;yes;718842;Chrome;112.0;Windows;10;undefined;undefined;1536 x 864;1536 x 864
H021;52;Vrouwelijk;Links;4;102;right;no;200;rightarrow;383;true;focus;yes;720003;Chrome;112.0;Windows;10;undefined;undefined;1536 x 864;1536 x 864
H021;52;Vrouwelijk;Links;4;103;left;no;200;leftarrow;356;true;focus;yes;721128;Chrome;112.0;Windows;10;undefined;undefined;1536 x 864;1536 x 864
H021;52;Vrouwelijk;Links;4;104;left;no;200;leftarrow;419;true;focus;yes;722314;Chrome;112.0;Windows;10;undefined;undefined;1536 x 864;1536 x 864
H021;52;Vrouwelijk;Links;4;105;left;no;200;leftarrow;291;true;focus;yes;723373;Chrome;112.0;Windows;10;undefined;undefined;1536 x 864;1536 x 864
H021;52;Vrouwelijk;Links;4;106;left;no;200;leftarrow;333;true;focus;yes;724479;Chrome;112.0;Windows;10;undefined;undefined;1536 x 864;1536 x 864
H021;52;Vrouwelijk;Links;4;107;left;no;200;leftarrow;51;true;focus;yes;725308;Chrome;112.0;Windows;10;undefined;undefined;1536 x 864;1536 x 864
H021;52;Vrouwelijk;Links;4;108;right;no;200;rightarrow;256;true;focus;yes;726331;Chrome;112.0;Windows;10;undefined;undefined;1536 x 864;1536 x 864
H021;52;Vrouwelijk;Links;4;109;left;yes;200;leftarrow;394;false;focus;yes;727492;Chrome;112.0;Windows;10;undefined;undefined;1536 x 864;1536 x 864
H021;52;Vrouwelijk;Links;4;110;right;yes;150;undefined;null;true;focus;yes;729508;Chrome;112.0;Windows;10;undefined;undefined;1536 x 864;1536 x 864
H021;52;Vrouwelijk;Links;4;111;right;no;200;leftarrow;389;false;focus;yes;730678;Chrome;112.0;Windows;10;undefined;undefined;1536 x 864;1536 x 864
H021;52;Vrouwelijk;Links;4;112;right;no;200;rightarrow;364;true;focus;yes;731824;Chrome;112.0;Windows;10;undefined;undefined;1536 x 864;1536 x 864
H021;52;Vrouwelijk;Links;4;113;right;yes;200;rightarrow;314;false;focus;yes;732915;Chrome;112.0;Windows;10;undefined;undefined;1536 x 864;1536 x 864
H021;52;Vrouwelijk;Links;4;114;right;no;150;rightarrow;346;true;focus;yes;734027;Chrome;112.0;Windows;10;undefined;undefined;1536 x 864;1536 x 864
H021;52;Vrouwelijk;Links;4;115;left;no;150;leftarrow;585;true;focus;yes;735392;Chrome;112.0;Windows;10;undefined;undefined;1536 x 864;1536 x 864
H021;52;Vrouwelijk;Links;4;116;right;no;150;rightarrow;355;true;focus;yes;736503;Chrome;112.0;Windows;10;undefined;undefined;1536 x 864;1536 x 864
H021;52;Vrouwelijk;Links;4;117;left;yes;150;leftarrow;293;false;focus;yes;737552;Chrome;112.0;Windows;10;undefined;undefined;1536 x 864;1536 x 864
H021;52;Vrouwelijk;Links;4;118;left;no;100;leftarrow;357;true;focus;yes;738678;Chrome;112.0;Windows;10;undefined;undefined;1536 x 864;1536 x 864
H021;52;Vrouwelijk;Links;4;119;right;no;100;rightarrow;383;true;focus;yes;739829;Chrome;112.0;Windows;10;undefined;undefined;1536 x 864;1536 x 864
H021;52;Vrouwelijk;Links;4;120;left;no;100;leftarrow;394;true;focus;yes;740995;Chrome;112.0;Windows;10;undefined;undefined;1536 x 864;1536 x 864
H021;52;Vrouwelijk;Links;4;121;left;no;100;leftarrow;478;true;focus;yes;742245;Chrome;112.0;Windows;10;undefined;undefined;1536 x 864;1536 x 864
H021;52;Vrouwelijk;Links;4;122;left;no;100;leftarrow;425;true;focus;yes;743434;Chrome;112.0;Windows;10;undefined;undefined;1536 x 864;1536 x 864
H021;52;Vrouwelijk;Links;4;123;right;no;100;rightarrow;300;true;focus;yes;744497;Chrome;112.0;Windows;10;undefined;undefined;1536 x 864;1536 x 864
H021;52;Vrouwelijk;Links;4;124;right;no;100;rightarrow;305;true;focus;yes;745569;Chrome;112.0;Windows;10;undefined;undefined;1536 x 864;1536 x 864
H021;52;Vrouwelijk;Links;4;125;left;yes;100;rightarrow;424;false;focus;yes;746770;Chrome;112.0;Windows;10;undefined;undefined;1536 x 864;1536 x 864
H021;52;Vrouwelijk;Links;4;126;right;yes;50;undefined;null;true;focus;yes;748789;Chrome;112.0;Windows;10;undefined;undefined;1536 x 864;1536 x 864
H021;52;Vrouwelijk;Links;4;127;right;no;100;rightarrow;353;true;focus;yes;749926;Chrome;112.0;Windows;10;undefined;undefined;1536 x 864;1536 x 864
H021;52;Vrouwelijk;Links;4;128;left;no;100;rightarrow;329;false;focus;yes;751016;Chrome;112.0;Windows;10;undefined;undefined;1536 x 864;1536 x 864
H021;52;Vrouwelijk;Links;5;1;left;no;100;leftarrow;293;true;focus;yes;771272;Chrome;112.0;Windows;10;undefined;undefined;1536 x 864;1536 x 864
H021;52;Vrouwelijk;Links;5;2;right;no;100;rightarrow;348;true;focus;yes;772386;Chrome;112.0;Windows;10;undefined;undefined;1536 x 864;1536 x 864
H021;52;Vrouwelijk;Links;5;3;left;no;100;leftarrow;361;true;focus;yes;773531;Chrome;112.0;Windows;10;undefined;undefined;1536 x 864;1536 x 864
H021;52;Vrouwelijk;Links;5;4;right;yes;100;rightarrow;358;false;focus;yes;774655;Chrome;112.0;Windows;10;undefined;undefined;1536 x 864;1536 x 864
H021;52;Vrouwelijk;Links;5;5;left;no;50;leftarrow;454;true;focus;yes;775890;Chrome;112.0;Windows;10;undefined;undefined;1536 x 864;1536 x 864
H021;52;Vrouwelijk;Links;5;6;right;no;50;rightarrow;337;true;focus;yes;776996;Chrome;112.0;Windows;10;undefined;undefined;1536 x 864;1536 x 864
H021;52;Vrouwelijk;Links;5;7;right;no;50;rightarrow;418;true;focus;yes;778174;Chrome;112.0;Windows;10;undefined;undefined;1536 x 864;1536 x 864
H021;52;Vrouwelijk;Links;5;8;left;yes;50;undefined;null;true;focus;yes;780215;Chrome;112.0;Windows;10;undefined;undefined;1536 x 864;1536 x 864
H021;52;Vrouwelijk;Links;5;9;left;no;100;leftarrow;387;true;focus;yes;781373;Chrome;112.0;Windows;10;undefined;undefined;1536 x 864;1536 x 864
H021;52;Vrouwelijk;Links;5;10;left;no;100;leftarrow;516;true;focus;yes;782662;Chrome;112.0;Windows;10;undefined;undefined;1536 x 864;1536 x 864
H021;52;Vrouwelijk;Links;5;11;right;yes;100;undefined;null;true;focus;yes;784696;Chrome;112.0;Windows;10;undefined;undefined;1536 x 864;1536 x 864
H021;52;Vrouwelijk;Links;5;12;left;yes;150;leftarrow;371;false;focus;yes;785848;Chrome;112.0;Windows;10;undefined;undefined;1536 x 864;1536 x 864
H021;52;Vrouwelijk;Links;5;13;right;no;100;rightarrow;492;true;focus;yes;787111;Chrome;112.0;Windows;10;undefined;undefined;1536 x 864;1536 x 864
H021;52;Vrouwelijk;Links;5;14;right;no;100;rightarrow;464;true;focus;yes;788346;Chrome;112.0;Windows;10;undefined;undefined;1536 x 864;1536 x 864
H021;52;Vrouwelijk;Links;5;15;right;no;100;rightarrow;348;true;focus;yes;789453;Chrome;112.0;Windows;10;undefined;undefined;1536 x 864;1536 x 864
H021;52;Vrouwelijk;Links;5;16;left;no;100;leftarrow;387;true;focus;yes;790600;Chrome;112.0;Windows;10;undefined;undefined;1536 x 864;1536 x 864
H021;52;Vrouwelijk;Links;5;17;right;no;100;rightarrow;365;true;focus;yes;791735;Chrome;112.0;Windows;10;undefined;undefined;1536 x 864;1536 x 864
H021;52;Vrouwelijk;Links;5;18;left;yes;100;undefined;null;true;focus;yes;793758;Chrome;112.0;Windows;10;undefined;undefined;1536 x 864;1536 x 864
H021;52;Vrouwelijk;Links;5;19;right;yes;150;rightarrow;439;false;focus;yes;794979;Chrome;112.0;Windows;10;undefined;undefined;1536 x 864;1536 x 864
H021;52;Vrouwelijk;Links;5;20;left;no;100;leftarrow;738;true;focus;yes;796485;Chrome;112.0;Windows;10;undefined;undefined;1536 x 864;1536 x 864
H021;52;Vrouwelijk;Links;5;21;left;no;100;rightarrow;312;false;focus;yes;797579;Chrome;112.0;Windows;10;undefined;undefined;1536 x 864;1536 x 864
H021;52;Vrouwelijk;Links;5;22;right;no;100;rightarrow;391;true;focus;yes;798752;Chrome;112.0;Windows;10;undefined;undefined;1536 x 864;1536 x 864
H021;52;Vrouwelijk;Links;5;23;left;no;100;leftarrow;373;true;focus;yes;799905;Chrome;112.0;Windows;10;undefined;undefined;1536 x 864;1536 x 864
H021;52;Vrouwelijk;Links;5;24;right;no;100;leftarrow;333;false;focus;yes;801023;Chrome;112.0;Windows;10;undefined;undefined;1536 x 864;1536 x 864
H021;52;Vrouwelijk;Links;5;25;right;no;100;rightarrow;385;true;focus;yes;802175;Chrome;112.0;Windows;10;undefined;undefined;1536 x 864;1536 x 864
H021;52;Vrouwelijk;Links;5;26;right;no;100;rightarrow;390;true;focus;yes;803338;Chrome;112.0;Windows;10;undefined;undefined;1536 x 864;1536 x 864
H021;52;Vrouwelijk;Links;5;27;right;no;100;rightarrow;447;true;focus;yes;804552;Chrome;112.0;Windows;10;undefined;undefined;1536 x 864;1536 x 864
H021;52;Vrouwelijk;Links;5;28;left;no;100;leftarrow;579;true;focus;yes;805901;Chrome;112.0;Windows;10;undefined;undefined;1536 x 864;1536 x 864
H021;52;Vrouwelijk;Links;5;29;left;no;100;leftarrow;367;true;focus;yes;807049;Chrome;112.0;Windows;10;undefined;undefined;1536 x 864;1536 x 864
H021;52;Vrouwelijk;Links;5;30;left;no;100;leftarrow;439;true;focus;yes;808260;Chrome;112.0;Windows;10;undefined;undefined;1536 x 864;1536 x 864
H021;52;Vrouwelijk;Links;5;31;right;yes;100;undefined;null;true;focus;yes;810282;Chrome;112.0;Windows;10;undefined;undefined;1536 x 864;1536 x 864
H021;52;Vrouwelijk;Links;5;32;left;yes;150;leftarrow;390;false;focus;yes;811443;Chrome;112.0;Windows;10;undefined;undefined;1536 x 864;1536 x 864
H021;52;Vrouwelijk;Links;5;33;left;no;100;leftarrow;495;true;focus;yes;812722;Chrome;112.0;Windows;10;undefined;undefined;1536 x 864;1536 x 864
H021;52;Vrouwelijk;Links;5;34;right;no;100;rightarrow;524;true;focus;yes;814015;Chrome;112.0;Windows;10;undefined;undefined;1536 x 864;1536 x 864
H021;52;Vrouwelijk;Links;5;35;right;yes;100;undefined;null;true;focus;yes;816041;Chrome;112.0;Windows;10;undefined;undefined;1536 x 864;1536 x 864
H021;52;Vrouwelijk;Links;5;36;right;no;150;rightarrow;616;true;focus;yes;817423;Chrome;112.0;Windows;10;undefined;undefined;1536 x 864;1536 x 864
H021;52;Vrouwelijk;Links;5;37;left;no;150;leftarrow;308;true;focus;yes;818504;Chrome;112.0;Windows;10;undefined;undefined;1536 x 864;1536 x 864
H021;52;Vrouwelijk;Links;5;38;left;yes;150;leftarrow;315;false;focus;yes;819604;Chrome;112.0;Windows;10;undefined;undefined;1536 x 864;1536 x 864
H021;52;Vrouwelijk;Links;5;39;right;no;100;leftarrow;463;false;focus;yes;820849;Chrome;112.0;Windows;10;undefined;undefined;1536 x 864;1536 x 864
H021;52;Vrouwelijk;Links;5;40;left;no;100;leftarrow;392;true;focus;yes;822025;Chrome;112.0;Windows;10;undefined;undefined;1536 x 864;1536 x 864
H021;52;Vrouwelijk;Links;5;41;right;yes;100;undefined;null;true;focus;yes;824070;Chrome;112.0;Windows;10;undefined;undefined;1536 x 864;1536 x 864
H021;52;Vrouwelijk;Links;5;42;left;yes;150;leftarrow;352;false;focus;yes;825203;Chrome;112.0;Windows;10;undefined;undefined;1536 x 864;1536 x 864
H021;52;Vrouwelijk;Links;5;43;left;no;100;leftarrow;377;true;focus;yes;826344;Chrome;112.0;Windows;10;undefined;undefined;1536 x 864;1536 x 864
H021;52;Vrouwelijk;Links;5;44;left;no;100;leftarrow;390;true;focus;yes;827503;Chrome;112.0;Windows;10;undefined;undefined;1536 x 864;1536 x 864
H021;52;Vrouwelijk;Links;5;45;right;no;100;rightarrow;431;true;focus;yes;828715;Chrome;112.0;Windows;10;undefined;undefined;1536 x 864;1536 x 864
H021;52;Vrouwelijk;Links;5;46;right;no;100;rightarrow;386;true;focus;yes;829864;Chrome;112.0;Windows;10;undefined;undefined;1536 x 864;1536 x 864
H021;52;Vrouwelijk;Links;5;47;right;no;100;rightarrow;389;true;focus;yes;831009;Chrome;112.0;Windows;10;undefined;undefined;1536 x 864;1536 x 864
H021;52;Vrouwelijk;Links;5;48;left;no;100;leftarrow;466;true;focus;yes;832258;Chrome;112.0;Windows;10;undefined;undefined;1536 x 864;1536 x 864
H021;52;Vrouwelijk;Links;5;49;left;no;100;leftarrow;442;true;focus;yes;833483;Chrome;112.0;Windows;10;undefined;undefined;1536 x 864;1536 x 864
H021;52;Vrouwelijk;Links;5;50;right;yes;100;undefined;null;true;focus;yes;835507;Chrome;112.0;Windows;10;undefined;undefined;1536 x 864;1536 x 864
H021;52;Vrouwelijk;Links;5;51;right;no;150;rightarrow;487;true;focus;yes;836760;Chrome;112.0;Windows;10;undefined;undefined;1536 x 864;1536 x 864
H021;52;Vrouwelijk;Links;5;52;left;no;150;leftarrow;429;true;focus;yes;837955;Chrome;112.0;Windows;10;undefined;undefined;1536 x 864;1536 x 864
H021;52;Vrouwelijk;Links;5;53;right;no;150;rightarrow;400;true;focus;yes;839128;Chrome;112.0;Windows;10;undefined;undefined;1536 x 864;1536 x 864
H021;52;Vrouwelijk;Links;5;54;left;no;150;leftarrow;455;true;focus;yes;840354;Chrome;112.0;Windows;10;undefined;undefined;1536 x 864;1536 x 864
H021;52;Vrouwelijk;Links;5;55;left;yes;150;undefined;null;true;focus;yes;842386;Chrome;112.0;Windows;10;undefined;undefined;1536 x 864;1536 x 864
H021;52;Vrouwelijk;Links;5;56;right;no;200;rightarrow;446;true;focus;yes;843613;Chrome;112.0;Windows;10;undefined;undefined;1536 x 864;1536 x 864
H021;52;Vrouwelijk;Links;5;57;left;yes;200;leftarrow;452;false;focus;yes;844849;Chrome;112.0;Windows;10;undefined;undefined;1536 x 864;1536 x 864
H021;52;Vrouwelijk;Links;5;58;right;no;150;rightarrow;338;true;focus;yes;845953;Chrome;112.0;Windows;10;undefined;undefined;1536 x 864;1536 x 864
H021;52;Vrouwelijk;Links;5;59;right;yes;150;undefined;null;true;focus;yes;847992;Chrome;112.0;Windows;10;undefined;undefined;1536 x 864;1536 x 864
H021;52;Vrouwelijk;Links;5;60;right;no;200;leftarrow;421;false;focus;yes;849180;Chrome;112.0;Windows;10;undefined;undefined;1536 x 864;1536 x 864
H021;52;Vrouwelijk;Links;5;61;left;no;200;leftarrow;374;true;focus;yes;850335;Chrome;112.0;Windows;10;undefined;undefined;1536 x 864;1536 x 864
H021;52;Vrouwelijk;Links;5;62;left;no;200;leftarrow;371;true;focus;yes;851473;Chrome;112.0;Windows;10;undefined;undefined;1536 x 864;1536 x 864
H021;52;Vrouwelijk;Links;5;63;left;no;200;leftarrow;365;true;focus;yes;852617;Chrome;112.0;Windows;10;undefined;undefined;1536 x 864;1536 x 864
H021;52;Vrouwelijk;Links;5;64;right;no;200;rightarrow;473;true;focus;yes;853857;Chrome;112.0;Windows;10;undefined;undefined;1536 x 864;1536 x 864
H021;52;Vrouwelijk;Links;5;65;left;no;200;leftarrow;373;true;focus;yes;855004;Chrome;112.0;Windows;10;undefined;undefined;1536 x 864;1536 x 864
H021;52;Vrouwelijk;Links;5;66;left;yes;200;undefined;null;true;focus;yes;857040;Chrome;112.0;Windows;10;undefined;undefined;1536 x 864;1536 x 864
H021;52;Vrouwelijk;Links;5;67;left;no;250;leftarrow;407;true;focus;yes;858213;Chrome;112.0;Windows;10;undefined;undefined;1536 x 864;1536 x 864
H021;52;Vrouwelijk;Links;5;68;right;no;250;rightarrow;419;true;focus;yes;859395;Chrome;112.0;Windows;10;undefined;undefined;1536 x 864;1536 x 864
H021;52;Vrouwelijk;Links;5;69;right;yes;250;rightarrow;417;false;focus;yes;860580;Chrome;112.0;Windows;10;undefined;undefined;1536 x 864;1536 x 864
H021;52;Vrouwelijk;Links;5;70;right;no;200;rightarrow;495;true;focus;yes;861848;Chrome;112.0;Windows;10;undefined;undefined;1536 x 864;1536 x 864
H021;52;Vrouwelijk;Links;5;71;left;no;200;leftarrow;436;true;focus;yes;863054;Chrome;112.0;Windows;10;undefined;undefined;1536 x 864;1536 x 864
H021;52;Vrouwelijk;Links;5;72;right;no;200;rightarrow;395;true;focus;yes;864231;Chrome;112.0;Windows;10;undefined;undefined;1536 x 864;1536 x 864
H021;52;Vrouwelijk;Links;5;73;right;no;200;rightarrow;436;true;focus;yes;865426;Chrome;112.0;Windows;10;undefined;undefined;1536 x 864;1536 x 864
H021;52;Vrouwelijk;Links;5;74;left;no;200;leftarrow;498;true;focus;yes;866693;Chrome;112.0;Windows;10;undefined;undefined;1536 x 864;1536 x 864
H021;52;Vrouwelijk;Links;5;75;left;no;200;leftarrow;372;true;focus;yes;867833;Chrome;112.0;Windows;10;undefined;undefined;1536 x 864;1536 x 864
H021;52;Vrouwelijk;Links;5;76;right;yes;200;undefined;null;true;focus;yes;869853;Chrome;112.0;Windows;10;undefined;undefined;1536 x 864;1536 x 864
H021;52;Vrouwelijk;Links;5;77;right;no;250;rightarrow;384;true;focus;yes;871019;Chrome;112.0;Windows;10;undefined;undefined;1536 x 864;1536 x 864
H021;52;Vrouwelijk;Links;5;78;left;yes;250;leftarrow;505;false;focus;yes;872281;Chrome;112.0;Windows;10;undefined;undefined;1536 x 864;1536 x 864
H021;52;Vrouwelijk;Links;5;79;right;no;200;rightarrow;545;true;focus;yes;873593;Chrome;112.0;Windows;10;undefined;undefined;1536 x 864;1536 x 864
H021;52;Vrouwelijk;Links;5;80;left;no;200;leftarrow;325;true;focus;yes;874702;Chrome;112.0;Windows;10;undefined;undefined;1536 x 864;1536 x 864
H021;52;Vrouwelijk;Links;5;81;right;no;200;rightarrow;465;true;focus;yes;875926;Chrome;112.0;Windows;10;undefined;undefined;1536 x 864;1536 x 864
H021;52;Vrouwelijk;Links;5;82;left;no;200;leftarrow;546;true;focus;yes;877241;Chrome;112.0;Windows;10;undefined;undefined;1536 x 864;1536 x 864
H021;52;Vrouwelijk;Links;5;83;left;yes;200;leftarrow;426;false;focus;yes;878437;Chrome;112.0;Windows;10;undefined;undefined;1536 x 864;1536 x 864
H021;52;Vrouwelijk;Links;5;84;left;no;150;leftarrow;380;true;focus;yes;879577;Chrome;112.0;Windows;10;undefined;undefined;1536 x 864;1536 x 864
H021;52;Vrouwelijk;Links;5;85;left;no;150;leftarrow;323;true;focus;yes;880673;Chrome;112.0;Windows;10;undefined;undefined;1536 x 864;1536 x 864
H021;52;Vrouwelijk;Links;5;86;right;no;150;rightarrow;455;true;focus;yes;881898;Chrome;112.0;Windows;10;undefined;undefined;1536 x 864;1536 x 864
H021;52;Vrouwelijk;Links;5;87;right;yes;150;rightarrow;435;false;focus;yes;883101;Chrome;112.0;Windows;10;undefined;undefined;1536 x 864;1536 x 864
H021;52;Vrouwelijk;Links;5;88;right;no;100;rightarrow;415;true;focus;yes;884299;Chrome;112.0;Windows;10;undefined;undefined;1536 x 864;1536 x 864
H021;52;Vrouwelijk;Links;5;89;left;yes;100;undefined;null;true;focus;yes;886317;Chrome;112.0;Windows;10;undefined;undefined;1536 x 864;1536 x 864
H021;52;Vrouwelijk;Links;5;90;right;yes;150;undefined;null;true;focus;yes;888365;Chrome;112.0;Windows;10;undefined;undefined;1536 x 864;1536 x 864
H021;52;Vrouwelijk;Links;5;91;right;no;200;rightarrow;567;true;focus;yes;889712;Chrome;112.0;Windows;10;undefined;undefined;1536 x 864;1536 x 864
H021;52;Vrouwelijk;Links;5;92;right;no;200;rightarrow;541;true;focus;yes;891025;Chrome;112.0;Windows;10;undefined;undefined;1536 x 864;1536 x 864
H021;52;Vrouwelijk;Links;5;93;left;no;200;leftarrow;468;true;focus;yes;892269;Chrome;112.0;Windows;10;undefined;undefined;1536 x 864;1536 x 864
H021;52;Vrouwelijk;Links;5;94;left;no;200;leftarrow;417;true;focus;yes;893457;Chrome;112.0;Windows;10;undefined;undefined;1536 x 864;1536 x 864
H021;52;Vrouwelijk;Links;5;95;left;no;200;leftarrow;379;true;focus;yes;894605;Chrome;112.0;Windows;10;undefined;undefined;1536 x 864;1536 x 864
H021;52;Vrouwelijk;Links;5;96;right;no;200;rightarrow;511;true;focus;yes;895880;Chrome;112.0;Windows;10;undefined;undefined;1536 x 864;1536 x 864
H021;52;Vrouwelijk;Links;5;97;left;no;200;leftarrow;420;true;focus;yes;897071;Chrome;112.0;Windows;10;undefined;undefined;1536 x 864;1536 x 864
H021;52;Vrouwelijk;Links;5;98;left;no;200;leftarrow;500;true;focus;yes;898349;Chrome;112.0;Windows;10;undefined;undefined;1536 x 864;1536 x 864
H021;52;Vrouwelijk;Links;5;99;left;no;200;leftarrow;421;true;focus;yes;899538;Chrome;112.0;Windows;10;undefined;undefined;1536 x 864;1536 x 864
H021;52;Vrouwelijk;Links;5;100;right;no;200;rightarrow;383;true;focus;yes;900690;Chrome;112.0;Windows;10;undefined;undefined;1536 x 864;1536 x 864
H021;52;Vrouwelijk;Links;5;101;right;no;200;rightarrow;340;true;focus;yes;901801;Chrome;112.0;Windows;10;undefined;undefined;1536 x 864;1536 x 864
H021;52;Vrouwelijk;Links;5;102;right;no;200;rightarrow;377;true;focus;yes;902961;Chrome;112.0;Windows;10;undefined;undefined;1536 x 864;1536 x 864
H021;52;Vrouwelijk;Links;5;103;right;yes;200;rightarrow;448;false;focus;yes;904189;Chrome;112.0;Windows;10;undefined;undefined;1536 x 864;1536 x 864
H021;52;Vrouwelijk;Links;5;104;left;yes;150;undefined;null;true;focus;yes;906212;Chrome;112.0;Windows;10;undefined;undefined;1536 x 864;1536 x 864
H021;52;Vrouwelijk;Links;5;105;left;no;200;leftarrow;404;true;focus;yes;907400;Chrome;112.0;Windows;10;undefined;undefined;1536 x 864;1536 x 864
H021;52;Vrouwelijk;Links;5;106;right;no;200;rightarrow;428;true;focus;yes;908594;Chrome;112.0;Windows;10;undefined;undefined;1536 x 864;1536 x 864
H021;52;Vrouwelijk;Links;5;107;right;no;200;rightarrow;395;true;focus;yes;909760;Chrome;112.0;Windows;10;undefined;undefined;1536 x 864;1536 x 864
H021;52;Vrouwelijk;Links;5;108;left;no;200;rightarrow;384;false;focus;yes;910907;Chrome;112.0;Windows;10;undefined;undefined;1536 x 864;1536 x 864
H021;52;Vrouwelijk;Links;5;109;right;yes;200;rightarrow;328;false;focus;yes;911991;Chrome;112.0;Windows;10;undefined;undefined;1536 x 864;1536 x 864
H021;52;Vrouwelijk;Links;5;110;left;yes;150;undefined;null;true;focus;yes;914037;Chrome;112.0;Windows;10;undefined;undefined;1536 x 864;1536 x 864
H021;52;Vrouwelijk;Links;5;111;left;no;200;leftarrow;663;true;focus;yes;915465;Chrome;112.0;Windows;10;undefined;undefined;1536 x 864;1536 x 864
H021;52;Vrouwelijk;Links;5;112;right;no;200;rightarrow;801;true;focus;yes;917029;Chrome;112.0;Windows;10;undefined;undefined;1536 x 864;1536 x 864
H021;52;Vrouwelijk;Links;5;113;right;yes;200;rightarrow;424;false;focus;yes;918230;Chrome;112.0;Windows;10;undefined;undefined;1536 x 864;1536 x 864
H021;52;Vrouwelijk;Links;5;114;right;no;150;rightarrow;497;true;focus;yes;919507;Chrome;112.0;Windows;10;undefined;undefined;1536 x 864;1536 x 864
H021;52;Vrouwelijk;Links;5;115;left;yes;150;undefined;null;true;focus;yes;921523;Chrome;112.0;Windows;10;undefined;undefined;1536 x 864;1536 x 864
H021;52;Vrouwelijk;Links;5;116;right;no;200;leftarrow;343;false;focus;yes;922632;Chrome;112.0;Windows;10;undefined;undefined;1536 x 864;1536 x 864
H021;52;Vrouwelijk;Links;5;117;left;no;200;leftarrow;569;true;focus;yes;923957;Chrome;112.0;Windows;10;undefined;undefined;1536 x 864;1536 x 864
H021;52;Vrouwelijk;Links;5;118;right;no;200;rightarrow;361;true;focus;yes;925075;Chrome;112.0;Windows;10;undefined;undefined;1536 x 864;1536 x 864
H021;52;Vrouwelijk;Links;5;119;left;no;200;leftarrow;443;true;focus;yes;926289;Chrome;112.0;Windows;10;undefined;undefined;1536 x 864;1536 x 864
H021;52;Vrouwelijk;Links;5;120;left;no;200;leftarrow;551;true;focus;yes;927607;Chrome;112.0;Windows;10;undefined;undefined;1536 x 864;1536 x 864
H021;52;Vrouwelijk;Links;5;121;right;no;200;rightarrow;438;true;focus;yes;928815;Chrome;112.0;Windows;10;undefined;undefined;1536 x 864;1536 x 864
H021;52;Vrouwelijk;Links;5;122;right;no;200;rightarrow;1039;true;focus;yes;930619;Chrome;112.0;Windows;10;undefined;undefined;1536 x 864;1536 x 864
H021;52;Vrouwelijk;Links;5;123;left;no;200;leftarrow;400;true;focus;yes;931784;Chrome;112.0;Windows;10;undefined;undefined;1536 x 864;1536 x 864
H021;52;Vrouwelijk;Links;5;124;left;no;200;leftarrow;529;true;focus;yes;933075;Chrome;112.0;Windows;10;undefined;undefined;1536 x 864;1536 x 864
H021;52;Vrouwelijk;Links;5;125;left;yes;200;leftarrow;388;false;focus;yes;934244;Chrome;112.0;Windows;10;undefined;undefined;1536 x 864;1536 x 864
H021;52;Vrouwelijk;Links;5;126;right;yes;150;undefined;null;true;focus;yes;936274;Chrome;112.0;Windows;10;undefined;undefined;1536 x 864;1536 x 864
H021;52;Vrouwelijk;Links;5;127;left;no;200;leftarrow;450;true;focus;yes;937490;Chrome;112.0;Windows;10;undefined;undefined;1536 x 864;1536 x 864
H021;52;Vrouwelijk;Links;5;128;right;no;200;rightarrow;387;true;focus;yes;938645;Chrome;112.0;Windows;10;undefined;undefined;1536 x 864;1536 x 864
H021;52;Vrouwelijk;Links;6;1;left;no;200;leftarrow;357;true;focus;yes;964705;Chrome;112.0;Windows;10;undefined;undefined;1536 x 864;1536 x 864
H021;52;Vrouwelijk;Links;6;2;right;no;200;rightarrow;253;true;focus;yes;965730;Chrome;112.0;Windows;10;undefined;undefined;1536 x 864;1536 x 864
H021;52;Vrouwelijk;Links;6;3;right;yes;200;leftarrow;630;false;focus;yes;967138;Chrome;112.0;Windows;10;undefined;undefined;1536 x 864;1536 x 864
H021;52;Vrouwelijk;Links;6;4;right;no;150;rightarrow;417;true;focus;yes;968330;Chrome;112.0;Windows;10;undefined;undefined;1536 x 864;1536 x 864
H021;52;Vrouwelijk;Links;6;5;left;no;150;leftarrow;299;true;focus;yes;969408;Chrome;112.0;Windows;10;undefined;undefined;1536 x 864;1536 x 864
H021;52;Vrouwelijk;Links;6;6;right;no;150;undefined;null;false;focus;yes;971431;Chrome;112.0;Windows;10;undefined;undefined;1536 x 864;1536 x 864
H021;52;Vrouwelijk;Links;6;7;left;yes;150;leftarrow;373;false;focus;yes;972570;Chrome;112.0;Windows;10;undefined;undefined;1536 x 864;1536 x 864
H021;52;Vrouwelijk;Links;6;8;left;no;100;leftarrow;335;true;focus;yes;973690;Chrome;112.0;Windows;10;undefined;undefined;1536 x 864;1536 x 864
H021;52;Vrouwelijk;Links;6;9;right;no;100;leftarrow;309;false;focus;yes;974765;Chrome;112.0;Windows;10;undefined;undefined;1536 x 864;1536 x 864
H021;52;Vrouwelijk;Links;6;10;left;yes;100;undefined;null;true;focus;yes;976784;Chrome;112.0;Windows;10;undefined;undefined;1536 x 864;1536 x 864
H021;52;Vrouwelijk;Links;6;11;left;no;150;leftarrow;354;true;focus;yes;977919;Chrome;112.0;Windows;10;undefined;undefined;1536 x 864;1536 x 864
H021;52;Vrouwelijk;Links;6;12;left;no;150;leftarrow;350;true;focus;yes;979031;Chrome;112.0;Windows;10;undefined;undefined;1536 x 864;1536 x 864
H021;52;Vrouwelijk;Links;6;13;right;no;150;rightarrow;333;true;focus;yes;980147;Chrome;112.0;Windows;10;undefined;undefined;1536 x 864;1536 x 864
H021;52;Vrouwelijk;Links;6;14;left;no;150;leftarrow;411;true;focus;yes;981335;Chrome;112.0;Windows;10;undefined;undefined;1536 x 864;1536 x 864
H021;52;Vrouwelijk;Links;6;15;right;no;150;rightarrow;289;true;focus;yes;982402;Chrome;112.0;Windows;10;undefined;undefined;1536 x 864;1536 x 864
H021;52;Vrouwelijk;Links;6;16;right;yes;150;undefined;null;true;focus;yes;984438;Chrome;112.0;Windows;10;undefined;undefined;1536 x 864;1536 x 864
H021;52;Vrouwelijk;Links;6;17;right;no;200;rightarrow;412;true;focus;yes;985631;Chrome;112.0;Windows;10;undefined;undefined;1536 x 864;1536 x 864
H021;52;Vrouwelijk;Links;6;18;left;no;200;leftarrow;353;true;focus;yes;986746;Chrome;112.0;Windows;10;undefined;undefined;1536 x 864;1536 x 864
H021;52;Vrouwelijk;Links;6;19;right;no;200;rightarrow;370;true;focus;yes;987876;Chrome;112.0;Windows;10;undefined;undefined;1536 x 864;1536 x 864
H021;52;Vrouwelijk;Links;6;20;right;no;200;rightarrow;383;true;focus;yes;989031;Chrome;112.0;Windows;10;undefined;undefined;1536 x 864;1536 x 864
H021;52;Vrouwelijk;Links;6;21;left;no;200;leftarrow;331;true;focus;yes;990121;Chrome;112.0;Windows;10;undefined;undefined;1536 x 864;1536 x 864
H021;52;Vrouwelijk;Links;6;22;left;no;200;leftarrow;335;true;focus;yes;991234;Chrome;112.0;Windows;10;undefined;undefined;1536 x 864;1536 x 864
H021;52;Vrouwelijk;Links;6;23;left;yes;200;leftarrow;352;false;focus;yes;992348;Chrome;112.0;Windows;10;undefined;undefined;1536 x 864;1536 x 864
H021;52;Vrouwelijk;Links;6;24;right;yes;150;undefined;null;true;focus;yes;994371;Chrome;112.0;Windows;10;undefined;undefined;1536 x 864;1536 x 864
H021;52;Vrouwelijk;Links;6;25;right;yes;200;rightarrow;417;false;focus;yes;995569;Chrome;112.0;Windows;10;undefined;undefined;1536 x 864;1536 x 864
H021;52;Vrouwelijk;Links;6;26;left;no;150;leftarrow;475;true;focus;yes;996826;Chrome;112.0;Windows;10;undefined;undefined;1536 x 864;1536 x 864
H021;52;Vrouwelijk;Links;6;27;right;no;150;rightarrow;401;true;focus;yes;998005;Chrome;112.0;Windows;10;undefined;undefined;1536 x 864;1536 x 864
H021;52;Vrouwelijk;Links;6;28;left;no;150;leftarrow;625;true;focus;yes;999388;Chrome;112.0;Windows;10;undefined;undefined;1536 x 864;1536 x 864
H021;52;Vrouwelijk;Links;6;29;left;no;150;leftarrow;421;true;focus;yes;1000582;Chrome;112.0;Windows;10;undefined;undefined;1536 x 864;1536 x 864
H021;52;Vrouwelijk;Links;6;30;right;no;150;rightarrow;274;true;focus;yes;1001625;Chrome;112.0;Windows;10;undefined;undefined;1536 x 864;1536 x 864
H021;52;Vrouwelijk;Links;6;31;right;no;150;rightarrow;386;true;focus;yes;1002786;Chrome;112.0;Windows;10;undefined;undefined;1536 x 864;1536 x 864
H021;52;Vrouwelijk;Links;6;32;left;yes;150;leftarrow;358;false;focus;yes;1003906;Chrome;112.0;Windows;10;undefined;undefined;1536 x 864;1536 x 864
H021;52;Vrouwelijk;Links;6;33;left;no;100;leftarrow;353;true;focus;yes;1005016;Chrome;112.0;Windows;10;undefined;undefined;1536 x 864;1536 x 864
H021;52;Vrouwelijk;Links;6;34;left;no;100;leftarrow;262;true;focus;yes;1006048;Chrome;112.0;Windows;10;undefined;undefined;1536 x 864;1536 x 864
