participantID;age;gender;handedness;block_i;trial_i;stim;signal;SSD;response;rt;correct;focus;Fullscreen;time_elapsed;browser_name;browser_version;os_name;os_version;tablet;mobile;screen_resolution;window_resolution
H041;32;Mannelijk;Rechts;0;1;right;no;200;rightarrow;475;true;focus;yes;131230;Chrome;112.0;Windows;10;undefined;undefined;1920 x 1200;1920 x 1200
H041;32;Mannelijk;Rechts;0;2;right;no;200;rightarrow;322;true;focus;yes;133080;Chrome;112.0;Windows;10;undefined;undefined;1920 x 1200;1920 x 1200
H041;32;Mannelijk;Rechts;0;3;left;no;200;leftarrow;365;true;focus;yes;134982;Chrome;112.0;Windows;10;undefined;undefined;1920 x 1200;1920 x 1200
H041;32;Mannelijk;Rechts;0;4;right;no;200;rightarrow;326;true;focus;yes;136845;Chrome;112.0;Windows;10;undefined;undefined;1920 x 1200;1920 x 1200
H041;32;Mannelijk;Rechts;0;5;left;yes;200;leftarrow;314;false;focus;yes;138683;Chrome;112.0;Windows;10;undefined;undefined;1920 x 1200;1920 x 1200
H041;32;Mannelijk;Rechts;0;6;left;no;150;leftarrow;370;true;focus;yes;140580;Chrome;112.0;Windows;10;undefined;undefined;1920 x 1200;1920 x 1200
H041;32;Mannelijk;Rechts;0;7;right;yes;150;rightarrow;312;false;focus;yes;142426;Chrome;112.0;Windows;10;undefined;undefined;1920 x 1200;1920 x 1200
H041;32;Mannelijk;Rechts;0;8;left;no;100;leftarrow;276;true;focus;yes;144225;Chrome;112.0;Windows;10;undefined;undefined;1920 x 1200;1920 x 1200
H041;32;Mannelijk;Rechts;1;1;right;no;100;rightarrow;310;true;focus;yes;164706;Chrome;112.0;Windows;10;undefined;undefined;1920 x 1200;1920 x 1200
H041;32;Mannelijk;Rechts;1;2;right;no;100;rightarrow;366;true;focus;yes;165832;Chrome;112.0;Windows;10;undefined;undefined;1920 x 1200;1920 x 1200
H041;32;Mannelijk;Rechts;1;3;left;no;100;leftarrow;372;true;focus;yes;166971;Chrome;112.0;Windows;10;undefined;undefined;1920 x 1200;1920 x 1200
H041;32;Mannelijk;Rechts;1;4;left;no;100;leftarrow;366;true;focus;yes;168114;Chrome;112.0;Windows;10;undefined;undefined;1920 x 1200;1920 x 1200
H041;32;Mannelijk;Rechts;1;5;left;yes;100;leftarrow;318;false;focus;yes;169191;Chrome;112.0;Windows;10;undefined;undefined;1920 x 1200;1920 x 1200
H041;32;Mannelijk;Rechts;1;6;right;no;50;rightarrow;314;true;focus;yes;170288;Chrome;112.0;Windows;10;undefined;undefined;1920 x 1200;1920 x 1200
H041;32;Mannelijk;Rechts;1;7;right;yes;50;undefined;null;true;focus;yes;172306;Chrome;112.0;Windows;10;undefined;undefined;1920 x 1200;1920 x 1200
H041;32;Mannelijk;Rechts;1;8;left;no;100;leftarrow;354;true;focus;yes;173433;Chrome;112.0;Windows;10;undefined;undefined;1920 x 1200;1920 x 1200
H041;32;Mannelijk;Rechts;1;9;right;yes;100;rightarrow;317;false;focus;yes;174513;Chrome;112.0;Windows;10;undefined;undefined;1920 x 1200;1920 x 1200
H041;32;Mannelijk;Rechts;1;10;left;yes;50;leftarrow;272;false;focus;yes;175553;Chrome;112.0;Windows;10;undefined;undefined;1920 x 1200;1920 x 1200
H041;32;Mannelijk;Rechts;1;11;left;no;50;leftarrow;473;true;focus;yes;176788;Chrome;112.0;Windows;10;undefined;undefined;1920 x 1200;1920 x 1200
H041;32;Mannelijk;Rechts;1;12;right;no;50;rightarrow;359;true;focus;yes;177923;Chrome;112.0;Windows;10;undefined;undefined;1920 x 1200;1920 x 1200
H041;32;Mannelijk;Rechts;1;13;left;no;50;leftarrow;304;true;focus;yes;178992;Chrome;112.0;Windows;10;undefined;undefined;1920 x 1200;1920 x 1200
H041;32;Mannelijk;Rechts;1;14;right;no;50;rightarrow;292;true;focus;yes;180060;Chrome;112.0;Windows;10;undefined;undefined;1920 x 1200;1920 x 1200
H041;32;Mannelijk;Rechts;1;15;left;no;50;leftarrow;233;true;focus;yes;181055;Chrome;112.0;Windows;10;undefined;undefined;1920 x 1200;1920 x 1200
H041;32;Mannelijk;Rechts;1;16;right;no;50;rightarrow;287;true;focus;yes;182110;Chrome;112.0;Windows;10;undefined;undefined;1920 x 1200;1920 x 1200
H041;32;Mannelijk;Rechts;1;17;right;yes;50;undefined;null;true;focus;yes;184148;Chrome;112.0;Windows;10;undefined;undefined;1920 x 1200;1920 x 1200
H041;32;Mannelijk;Rechts;1;18;right;no;100;rightarrow;370;true;focus;yes;185285;Chrome;112.0;Windows;10;undefined;undefined;1920 x 1200;1920 x 1200
H041;32;Mannelijk;Rechts;1;19;right;no;100;rightarrow;320;true;focus;yes;186384;Chrome;112.0;Windows;10;undefined;undefined;1920 x 1200;1920 x 1200
H041;32;Mannelijk;Rechts;1;20;left;no;100;leftarrow;320;true;focus;yes;187486;Chrome;112.0;Windows;10;undefined;undefined;1920 x 1200;1920 x 1200
H041;32;Mannelijk;Rechts;1;21;right;no;100;rightarrow;284;true;focus;yes;188551;Chrome;112.0;Windows;10;undefined;undefined;1920 x 1200;1920 x 1200
H041;32;Mannelijk;Rechts;1;22;left;yes;100;leftarrow;284;false;focus;yes;189591;Chrome;112.0;Windows;10;undefined;undefined;1920 x 1200;1920 x 1200
H041;32;Mannelijk;Rechts;1;23;left;no;50;leftarrow;449;true;focus;yes;190820;Chrome;112.0;Windows;10;undefined;undefined;1920 x 1200;1920 x 1200
H041;32;Mannelijk;Rechts;1;24;left;no;50;leftarrow;343;true;focus;yes;191932;Chrome;112.0;Windows;10;undefined;undefined;1920 x 1200;1920 x 1200
H041;32;Mannelijk;Rechts;1;25;left;no;50;leftarrow;335;true;focus;yes;193049;Chrome;112.0;Windows;10;undefined;undefined;1920 x 1200;1920 x 1200
H041;32;Mannelijk;Rechts;1;26;right;no;50;rightarrow;369;true;focus;yes;194184;Chrome;112.0;Windows;10;undefined;undefined;1920 x 1200;1920 x 1200
H041;32;Mannelijk;Rechts;1;27;left;no;50;leftarrow;331;true;focus;yes;195279;Chrome;112.0;Windows;10;undefined;undefined;1920 x 1200;1920 x 1200
H041;32;Mannelijk;Rechts;1;28;right;yes;50;undefined;null;true;focus;yes;197288;Chrome;112.0;Windows;10;undefined;undefined;1920 x 1200;1920 x 1200
H041;32;Mannelijk;Rechts;1;29;left;no;100;leftarrow;245;true;focus;yes;198299;Chrome;112.0;Windows;10;undefined;undefined;1920 x 1200;1920 x 1200
H041;32;Mannelijk;Rechts;1;30;left;yes;100;leftarrow;397;false;focus;yes;199453;Chrome;112.0;Windows;10;undefined;undefined;1920 x 1200;1920 x 1200
H041;32;Mannelijk;Rechts;1;31;right;no;50;rightarrow;329;true;focus;yes;200556;Chrome;112.0;Windows;10;undefined;undefined;1920 x 1200;1920 x 1200
H041;32;Mannelijk;Rechts;1;32;right;no;50;rightarrow;381;true;focus;yes;201709;Chrome;112.0;Windows;10;undefined;undefined;1920 x 1200;1920 x 1200
H041;32;Mannelijk;Rechts;1;33;left;yes;50;undefined;null;true;focus;yes;203746;Chrome;112.0;Windows;10;undefined;undefined;1920 x 1200;1920 x 1200
H041;32;Mannelijk;Rechts;1;34;right;no;100;rightarrow;282;true;focus;yes;204795;Chrome;112.0;Windows;10;undefined;undefined;1920 x 1200;1920 x 1200
H041;32;Mannelijk;Rechts;1;35;left;no;100;leftarrow;289;true;focus;yes;205841;Chrome;112.0;Windows;10;undefined;undefined;1920 x 1200;1920 x 1200
H041;32;Mannelijk;Rechts;1;36;right;yes;100;rightarrow;239;false;focus;yes;206856;Chrome;112.0;Windows;10;undefined;undefined;1920 x 1200;1920 x 1200
H041;32;Mannelijk;Rechts;1;37;right;no;50;leftarrow;264;false;focus;yes;207904;Chrome;112.0;Windows;10;undefined;undefined;1920 x 1200;1920 x 1200
H041;32;Mannelijk;Rechts;1;38;left;no;50;leftarrow;397;true;focus;yes;209069;Chrome;112.0;Windows;10;undefined;undefined;1920 x 1200;1920 x 1200
H041;32;Mannelijk;Rechts;1;39;right;no;50;rightarrow;617;true;focus;yes;210459;Chrome;112.0;Windows;10;undefined;undefined;1920 x 1200;1920 x 1200
H041;32;Mannelijk;Rechts;1;40;left;no;50;leftarrow;310;true;focus;yes;211533;Chrome;112.0;Windows;10;undefined;undefined;1920 x 1200;1920 x 1200
H041;32;Mannelijk;Rechts;1;41;left;no;50;leftarrow;358;true;focus;yes;212667;Chrome;112.0;Windows;10;undefined;undefined;1920 x 1200;1920 x 1200
H041;32;Mannelijk;Rechts;1;42;right;no;50;rightarrow;264;true;focus;yes;213714;Chrome;112.0;Windows;10;undefined;undefined;1920 x 1200;1920 x 1200
H041;32;Mannelijk;Rechts;1;43;right;no;50;rightarrow;364;true;focus;yes;214845;Chrome;112.0;Windows;10;undefined;undefined;1920 x 1200;1920 x 1200
H041;32;Mannelijk;Rechts;1;44;left;no;50;leftarrow;247;true;focus;yes;215862;Chrome;112.0;Windows;10;undefined;undefined;1920 x 1200;1920 x 1200
H041;32;Mannelijk;Rechts;1;45;left;no;50;leftarrow;349;true;focus;yes;216983;Chrome;112.0;Windows;10;undefined;undefined;1920 x 1200;1920 x 1200
H041;32;Mannelijk;Rechts;1;46;left;yes;50;leftarrow;360;false;focus;yes;218117;Chrome;112.0;Windows;10;undefined;undefined;1920 x 1200;1920 x 1200
H041;32;Mannelijk;Rechts;1;47;right;yes;50;rightarrow;295;false;focus;yes;219170;Chrome;112.0;Windows;10;undefined;undefined;1920 x 1200;1920 x 1200
H041;32;Mannelijk;Rechts;1;48;right;no;50;rightarrow;505;true;focus;yes;220444;Chrome;112.0;Windows;10;undefined;undefined;1920 x 1200;1920 x 1200
H041;32;Mannelijk;Rechts;1;49;left;yes;50;leftarrow;298;false;focus;yes;221524;Chrome;112.0;Windows;10;undefined;undefined;1920 x 1200;1920 x 1200
H041;32;Mannelijk;Rechts;1;50;right;no;50;rightarrow;300;true;focus;yes;222581;Chrome;112.0;Windows;10;undefined;undefined;1920 x 1200;1920 x 1200
H041;32;Mannelijk;Rechts;1;51;right;no;50;rightarrow;314;true;focus;yes;223659;Chrome;112.0;Windows;10;undefined;undefined;1920 x 1200;1920 x 1200
H041;32;Mannelijk;Rechts;1;52;right;yes;50;undefined;null;true;focus;yes;225684;Chrome;112.0;Windows;10;undefined;undefined;1920 x 1200;1920 x 1200
H041;32;Mannelijk;Rechts;1;53;right;no;100;rightarrow;376;true;focus;yes;226828;Chrome;112.0;Windows;10;undefined;undefined;1920 x 1200;1920 x 1200
H041;32;Mannelijk;Rechts;1;54;left;no;100;leftarrow;397;true;focus;yes;227988;Chrome;112.0;Windows;10;undefined;undefined;1920 x 1200;1920 x 1200
H041;32;Mannelijk;Rechts;1;55;left;no;100;leftarrow;381;true;focus;yes;229137;Chrome;112.0;Windows;10;undefined;undefined;1920 x 1200;1920 x 1200
H041;32;Mannelijk;Rechts;1;56;left;no;100;leftarrow;354;true;focus;yes;230249;Chrome;112.0;Windows;10;undefined;undefined;1920 x 1200;1920 x 1200
H041;32;Mannelijk;Rechts;1;57;left;yes;100;leftarrow;290;false;focus;yes;231302;Chrome;112.0;Windows;10;undefined;undefined;1920 x 1200;1920 x 1200
H041;32;Mannelijk;Rechts;1;58;left;no;50;leftarrow;377;true;focus;yes;232460;Chrome;112.0;Windows;10;undefined;undefined;1920 x 1200;1920 x 1200
H041;32;Mannelijk;Rechts;1;59;right;yes;50;undefined;null;true;focus;yes;234469;Chrome;112.0;Windows;10;undefined;undefined;1920 x 1200;1920 x 1200
H041;32;Mannelijk;Rechts;1;60;left;no;100;leftarrow;369;true;focus;yes;235620;Chrome;112.0;Windows;10;undefined;undefined;1920 x 1200;1920 x 1200
H041;32;Mannelijk;Rechts;1;61;left;no;100;leftarrow;393;true;focus;yes;236768;Chrome;112.0;Windows;10;undefined;undefined;1920 x 1200;1920 x 1200
H041;32;Mannelijk;Rechts;1;62;right;no;100;rightarrow;352;true;focus;yes;237877;Chrome;112.0;Windows;10;undefined;undefined;1920 x 1200;1920 x 1200
H041;32;Mannelijk;Rechts;1;63;right;no;100;rightarrow;398;true;focus;yes;239056;Chrome;112.0;Windows;10;undefined;undefined;1920 x 1200;1920 x 1200
H041;32;Mannelijk;Rechts;1;64;right;no;100;rightarrow;346;true;focus;yes;240160;Chrome;112.0;Windows;10;undefined;undefined;1920 x 1200;1920 x 1200
H041;32;Mannelijk;Rechts;1;65;right;no;100;rightarrow;373;true;focus;yes;241290;Chrome;112.0;Windows;10;undefined;undefined;1920 x 1200;1920 x 1200
H041;32;Mannelijk;Rechts;1;66;right;no;100;rightarrow;286;true;focus;yes;242352;Chrome;112.0;Windows;10;undefined;undefined;1920 x 1200;1920 x 1200
H041;32;Mannelijk;Rechts;1;67;left;yes;100;leftarrow;360;false;focus;yes;243481;Chrome;112.0;Windows;10;undefined;undefined;1920 x 1200;1920 x 1200
H041;32;Mannelijk;Rechts;1;68;right;no;50;rightarrow;260;true;focus;yes;244498;Chrome;112.0;Windows;10;undefined;undefined;1920 x 1200;1920 x 1200
H041;32;Mannelijk;Rechts;1;69;left;no;50;leftarrow;352;true;focus;yes;245624;Chrome;112.0;Windows;10;undefined;undefined;1920 x 1200;1920 x 1200
H041;32;Mannelijk;Rechts;1;70;left;no;50;leftarrow;306;true;focus;yes;246696;Chrome;112.0;Windows;10;undefined;undefined;1920 x 1200;1920 x 1200
H041;32;Mannelijk;Rechts;1;71;right;yes;50;rightarrow;309;false;focus;yes;247785;Chrome;112.0;Windows;10;undefined;undefined;1920 x 1200;1920 x 1200
H041;32;Mannelijk;Rechts;1;72;left;no;50;leftarrow;409;true;focus;yes;248955;Chrome;112.0;Windows;10;undefined;undefined;1920 x 1200;1920 x 1200
H041;32;Mannelijk;Rechts;1;73;right;no;50;rightarrow;320;true;focus;yes;250037;Chrome;112.0;Windows;10;undefined;undefined;1920 x 1200;1920 x 1200
H041;32;Mannelijk;Rechts;1;74;left;yes;50;leftarrow;296;false;focus;yes;251115;Chrome;112.0;Windows;10;undefined;undefined;1920 x 1200;1920 x 1200
H041;32;Mannelijk;Rechts;1;75;right;no;50;rightarrow;341;true;focus;yes;252224;Chrome;112.0;Windows;10;undefined;undefined;1920 x 1200;1920 x 1200
H041;32;Mannelijk;Rechts;1;76;right;yes;50;undefined;null;true;focus;yes;254255;Chrome;112.0;Windows;10;undefined;undefined;1920 x 1200;1920 x 1200
H041;32;Mannelijk;Rechts;1;77;left;no;100;leftarrow;370;true;focus;yes;255398;Chrome;112.0;Windows;10;undefined;undefined;1920 x 1200;1920 x 1200
H041;32;Mannelijk;Rechts;1;78;right;no;100;rightarrow;330;true;focus;yes;256491;Chrome;112.0;Windows;10;undefined;undefined;1920 x 1200;1920 x 1200
H041;32;Mannelijk;Rechts;1;79;left;no;100;leftarrow;286;true;focus;yes;257533;Chrome;112.0;Windows;10;undefined;undefined;1920 x 1200;1920 x 1200
H041;32;Mannelijk;Rechts;1;80;left;no;100;leftarrow;340;true;focus;yes;258651;Chrome;112.0;Windows;10;undefined;undefined;1920 x 1200;1920 x 1200
H041;32;Mannelijk;Rechts;1;81;right;no;100;rightarrow;320;true;focus;yes;259757;Chrome;112.0;Windows;10;undefined;undefined;1920 x 1200;1920 x 1200
H041;32;Mannelijk;Rechts;1;82;right;yes;100;undefined;null;true;focus;yes;261790;Chrome;112.0;Windows;10;undefined;undefined;1920 x 1200;1920 x 1200
H041;32;Mannelijk;Rechts;1;83;right;no;150;rightarrow;379;true;focus;yes;262936;Chrome;112.0;Windows;10;undefined;undefined;1920 x 1200;1920 x 1200
H041;32;Mannelijk;Rechts;1;84;left;no;150;leftarrow;323;true;focus;yes;264029;Chrome;112.0;Windows;10;undefined;undefined;1920 x 1200;1920 x 1200
H041;32;Mannelijk;Rechts;1;85;left;yes;150;leftarrow;341;false;focus;yes;265149;Chrome;112.0;Windows;10;undefined;undefined;1920 x 1200;1920 x 1200
H041;32;Mannelijk;Rechts;1;86;right;no;100;rightarrow;346;true;focus;yes;266271;Chrome;112.0;Windows;10;undefined;undefined;1920 x 1200;1920 x 1200
H041;32;Mannelijk;Rechts;1;87;left;no;100;leftarrow;405;true;focus;yes;267455;Chrome;112.0;Windows;10;undefined;undefined;1920 x 1200;1920 x 1200
H041;32;Mannelijk;Rechts;1;88;left;no;100;leftarrow;370;true;focus;yes;268590;Chrome;112.0;Windows;10;undefined;undefined;1920 x 1200;1920 x 1200
H041;32;Mannelijk;Rechts;1;89;right;no;100;rightarrow;417;true;focus;yes;269771;Chrome;112.0;Windows;10;undefined;undefined;1920 x 1200;1920 x 1200
H041;32;Mannelijk;Rechts;1;90;left;no;100;leftarrow;322;true;focus;yes;270879;Chrome;112.0;Windows;10;undefined;undefined;1920 x 1200;1920 x 1200
H041;32;Mannelijk;Rechts;1;91;right;yes;100;rightarrow;288;false;focus;yes;271946;Chrome;112.0;Windows;10;undefined;undefined;1920 x 1200;1920 x 1200
H041;32;Mannelijk;Rechts;1;92;right;no;50;rightarrow;351;true;focus;yes;273073;Chrome;112.0;Windows;10;undefined;undefined;1920 x 1200;1920 x 1200
H041;32;Mannelijk;Rechts;1;93;left;no;50;leftarrow;296;true;focus;yes;274136;Chrome;112.0;Windows;10;undefined;undefined;1920 x 1200;1920 x 1200
H041;32;Mannelijk;Rechts;1;94;right;no;50;rightarrow;304;true;focus;yes;275199;Chrome;112.0;Windows;10;undefined;undefined;1920 x 1200;1920 x 1200
H041;32;Mannelijk;Rechts;1;95;left;no;50;leftarrow;274;true;focus;yes;276240;Chrome;112.0;Windows;10;undefined;undefined;1920 x 1200;1920 x 1200
H041;32;Mannelijk;Rechts;1;96;left;yes;50;leftarrow;397;false;focus;yes;277396;Chrome;112.0;Windows;10;undefined;undefined;1920 x 1200;1920 x 1200
H041;32;Mannelijk;Rechts;1;97;left;no;50;leftarrow;390;true;focus;yes;278560;Chrome;112.0;Windows;10;undefined;undefined;1920 x 1200;1920 x 1200
H041;32;Mannelijk;Rechts;1;98;right;no;50;rightarrow;314;true;focus;yes;279649;Chrome;112.0;Windows;10;undefined;undefined;1920 x 1200;1920 x 1200
H041;32;Mannelijk;Rechts;1;99;right;no;50;rightarrow;382;true;focus;yes;280788;Chrome;112.0;Windows;10;undefined;undefined;1920 x 1200;1920 x 1200
H041;32;Mannelijk;Rechts;1;100;right;no;50;rightarrow;279;true;focus;yes;281849;Chrome;112.0;Windows;10;undefined;undefined;1920 x 1200;1920 x 1200
H041;32;Mannelijk;Rechts;1;101;left;yes;50;leftarrow;309;false;focus;yes;282942;Chrome;112.0;Windows;10;undefined;undefined;1920 x 1200;1920 x 1200
H041;32;Mannelijk;Rechts;1;102;left;no;50;leftarrow;409;true;focus;yes;284113;Chrome;112.0;Windows;10;undefined;undefined;1920 x 1200;1920 x 1200
H041;32;Mannelijk;Rechts;1;103;right;yes;50;rightarrow;337;false;focus;yes;285212;Chrome;112.0;Windows;10;undefined;undefined;1920 x 1200;1920 x 1200
H041;32;Mannelijk;Rechts;1;104;left;no;50;leftarrow;297;true;focus;yes;286275;Chrome;112.0;Windows;10;undefined;undefined;1920 x 1200;1920 x 1200
H041;32;Mannelijk;Rechts;1;105;right;no;50;rightarrow;875;true;focus;yes;287917;Chrome;112.0;Windows;10;undefined;undefined;1920 x 1200;1920 x 1200
H041;32;Mannelijk;Rechts;1;106;right;no;50;rightarrow;537;true;focus;yes;289221;Chrome;112.0;Windows;10;undefined;undefined;1920 x 1200;1920 x 1200
H041;32;Mannelijk;Rechts;1;107;right;no;50;rightarrow;363;true;focus;yes;290348;Chrome;112.0;Windows;10;undefined;undefined;1920 x 1200;1920 x 1200
H041;32;Mannelijk;Rechts;1;108;left;yes;50;undefined;null;true;focus;yes;292370;Chrome;112.0;Windows;10;undefined;undefined;1920 x 1200;1920 x 1200
H041;32;Mannelijk;Rechts;1;109;left;no;100;leftarrow;365;true;focus;yes;293518;Chrome;112.0;Windows;10;undefined;undefined;1920 x 1200;1920 x 1200
H041;32;Mannelijk;Rechts;1;110;left;no;100;leftarrow;338;true;focus;yes;294630;Chrome;112.0;Windows;10;undefined;undefined;1920 x 1200;1920 x 1200
H041;32;Mannelijk;Rechts;1;111;right;yes;100;rightarrow;336;false;focus;yes;295729;Chrome;112.0;Windows;10;undefined;undefined;1920 x 1200;1920 x 1200
H041;32;Mannelijk;Rechts;1;112;left;no;50;leftarrow;305;true;focus;yes;296801;Chrome;112.0;Windows;10;undefined;undefined;1920 x 1200;1920 x 1200
H041;32;Mannelijk;Rechts;1;113;left;no;50;leftarrow;369;true;focus;yes;297944;Chrome;112.0;Windows;10;undefined;undefined;1920 x 1200;1920 x 1200
H041;32;Mannelijk;Rechts;1;114;left;yes;50;leftarrow;355;false;focus;yes;299054;Chrome;112.0;Windows;10;undefined;undefined;1920 x 1200;1920 x 1200
H041;32;Mannelijk;Rechts;1;115;left;no;50;leftarrow;450;true;focus;yes;300267;Chrome;112.0;Windows;10;undefined;undefined;1920 x 1200;1920 x 1200
H041;32;Mannelijk;Rechts;1;116;left;no;50;leftarrow;352;true;focus;yes;301387;Chrome;112.0;Windows;10;undefined;undefined;1920 x 1200;1920 x 1200
H041;32;Mannelijk;Rechts;1;117;right;no;50;rightarrow;360;true;focus;yes;302528;Chrome;112.0;Windows;10;undefined;undefined;1920 x 1200;1920 x 1200
H041;32;Mannelijk;Rechts;1;118;right;yes;50;rightarrow;342;false;focus;yes;303650;Chrome;112.0;Windows;10;undefined;undefined;1920 x 1200;1920 x 1200
H041;32;Mannelijk;Rechts;1;119;right;no;50;rightarrow;392;true;focus;yes;304803;Chrome;112.0;Windows;10;undefined;undefined;1920 x 1200;1920 x 1200
H041;32;Mannelijk;Rechts;1;120;right;no;50;rightarrow;307;true;focus;yes;305881;Chrome;112.0;Windows;10;undefined;undefined;1920 x 1200;1920 x 1200
H041;32;Mannelijk;Rechts;1;121;left;no;50;leftarrow;497;true;focus;yes;307142;Chrome;112.0;Windows;10;undefined;undefined;1920 x 1200;1920 x 1200
H041;32;Mannelijk;Rechts;1;122;right;yes;50;rightarrow;288;false;focus;yes;308186;Chrome;112.0;Windows;10;undefined;undefined;1920 x 1200;1920 x 1200
H041;32;Mannelijk;Rechts;1;123;right;no;50;rightarrow;383;true;focus;yes;309332;Chrome;112.0;Windows;10;undefined;undefined;1920 x 1200;1920 x 1200
H041;32;Mannelijk;Rechts;1;124;left;yes;50;undefined;null;true;focus;yes;311350;Chrome;112.0;Windows;10;undefined;undefined;1920 x 1200;1920 x 1200
H041;32;Mannelijk;Rechts;1;125;right;no;100;rightarrow;292;true;focus;yes;312415;Chrome;112.0;Windows;10;undefined;undefined;1920 x 1200;1920 x 1200
H041;32;Mannelijk;Rechts;1;126;right;no;100;rightarrow;331;true;focus;yes;313520;Chrome;112.0;Windows;10;undefined;undefined;1920 x 1200;1920 x 1200
H041;32;Mannelijk;Rechts;1;127;left;no;100;rightarrow;288;false;focus;yes;314577;Chrome;112.0;Windows;10;undefined;undefined;1920 x 1200;1920 x 1200
H041;32;Mannelijk;Rechts;1;128;left;no;100;leftarrow;368;true;focus;yes;315713;Chrome;112.0;Windows;10;undefined;undefined;1920 x 1200;1920 x 1200
H041;32;Mannelijk;Rechts;2;1;right;no;100;rightarrow;283;true;focus;yes;334132;Chrome;112.0;Windows;10;undefined;undefined;1920 x 1200;1920 x 1200
H041;32;Mannelijk;Rechts;2;2;left;no;100;leftarrow;364;true;focus;yes;335252;Chrome;112.0;Windows;10;undefined;undefined;1920 x 1200;1920 x 1200
H041;32;Mannelijk;Rechts;2;3;right;no;100;rightarrow;274;true;focus;yes;336311;Chrome;112.0;Windows;10;undefined;undefined;1920 x 1200;1920 x 1200
H041;32;Mannelijk;Rechts;2;4;left;yes;100;leftarrow;244;false;focus;yes;337320;Chrome;112.0;Windows;10;undefined;undefined;1920 x 1200;1920 x 1200
H041;32;Mannelijk;Rechts;2;5;left;no;50;rightarrow;239;false;focus;yes;338323;Chrome;112.0;Windows;10;undefined;undefined;1920 x 1200;1920 x 1200
H041;32;Mannelijk;Rechts;2;6;left;no;50;leftarrow;306;true;focus;yes;339386;Chrome;112.0;Windows;10;undefined;undefined;1920 x 1200;1920 x 1200
H041;32;Mannelijk;Rechts;2;7;right;yes;50;undefined;null;true;focus;yes;341420;Chrome;112.0;Windows;10;undefined;undefined;1920 x 1200;1920 x 1200
H041;32;Mannelijk;Rechts;2;8;right;no;100;rightarrow;368;true;focus;yes;342561;Chrome;112.0;Windows;10;undefined;undefined;1920 x 1200;1920 x 1200
H041;32;Mannelijk;Rechts;2;9;left;no;100;leftarrow;349;true;focus;yes;343675;Chrome;112.0;Windows;10;undefined;undefined;1920 x 1200;1920 x 1200
H041;32;Mannelijk;Rechts;2;10;left;no;100;leftarrow;391;true;focus;yes;344850;Chrome;112.0;Windows;10;undefined;undefined;1920 x 1200;1920 x 1200
H041;32;Mannelijk;Rechts;2;11;right;no;100;rightarrow;351;true;focus;yes;345966;Chrome;112.0;Windows;10;undefined;undefined;1920 x 1200;1920 x 1200
H041;32;Mannelijk;Rechts;2;12;right;no;100;rightarrow;363;true;focus;yes;347097;Chrome;112.0;Windows;10;undefined;undefined;1920 x 1200;1920 x 1200
H041;32;Mannelijk;Rechts;2;13;right;no;100;rightarrow;379;true;focus;yes;348245;Chrome;112.0;Windows;10;undefined;undefined;1920 x 1200;1920 x 1200
H041;32;Mannelijk;Rechts;2;14;right;yes;100;rightarrow;343;false;focus;yes;349348;Chrome;112.0;Windows;10;undefined;undefined;1920 x 1200;1920 x 1200
H041;32;Mannelijk;Rechts;2;15;left;no;50;leftarrow;326;true;focus;yes;350433;Chrome;112.0;Windows;10;undefined;undefined;1920 x 1200;1920 x 1200
H041;32;Mannelijk;Rechts;2;16;left;yes;50;undefined;null;true;focus;yes;352463;Chrome;112.0;Windows;10;undefined;undefined;1920 x 1200;1920 x 1200
H041;32;Mannelijk;Rechts;2;17;right;yes;100;rightarrow;364;false;focus;yes;353594;Chrome;112.0;Windows;10;undefined;undefined;1920 x 1200;1920 x 1200
H041;32;Mannelijk;Rechts;2;18;left;no;50;leftarrow;327;true;focus;yes;354706;Chrome;112.0;Windows;10;undefined;undefined;1920 x 1200;1920 x 1200
H041;32;Mannelijk;Rechts;2;19;left;no;50;leftarrow;344;true;focus;yes;355825;Chrome;112.0;Windows;10;undefined;undefined;1920 x 1200;1920 x 1200
H041;32;Mannelijk;Rechts;2;20;right;no;50;rightarrow;344;true;focus;yes;356943;Chrome;112.0;Windows;10;undefined;undefined;1920 x 1200;1920 x 1200
H041;32;Mannelijk;Rechts;2;21;left;no;50;leftarrow;298;true;focus;yes;358021;Chrome;112.0;Windows;10;undefined;undefined;1920 x 1200;1920 x 1200
H041;32;Mannelijk;Rechts;2;22;right;no;50;rightarrow;318;true;focus;yes;359105;Chrome;112.0;Windows;10;undefined;undefined;1920 x 1200;1920 x 1200
H041;32;Mannelijk;Rechts;2;23;right;no;50;rightarrow;408;true;focus;yes;360297;Chrome;112.0;Windows;10;undefined;undefined;1920 x 1200;1920 x 1200
H041;32;Mannelijk;Rechts;2;24;left;yes;50;undefined;null;true;focus;yes;362312;Chrome;112.0;Windows;10;undefined;undefined;1920 x 1200;1920 x 1200
H041;32;Mannelijk;Rechts;2;25;left;no;100;leftarrow;378;true;focus;yes;363474;Chrome;112.0;Windows;10;undefined;undefined;1920 x 1200;1920 x 1200
H041;32;Mannelijk;Rechts;2;26;left;no;100;leftarrow;344;true;focus;yes;364578;Chrome;112.0;Windows;10;undefined;undefined;1920 x 1200;1920 x 1200
H041;32;Mannelijk;Rechts;2;27;right;yes;100;rightarrow;367;false;focus;yes;365704;Chrome;112.0;Windows;10;undefined;undefined;1920 x 1200;1920 x 1200
H041;32;Mannelijk;Rechts;2;28;left;yes;50;undefined;null;true;focus;yes;367722;Chrome;112.0;Windows;10;undefined;undefined;1920 x 1200;1920 x 1200
H041;32;Mannelijk;Rechts;2;29;left;no;100;leftarrow;393;true;focus;yes;368897;Chrome;112.0;Windows;10;undefined;undefined;1920 x 1200;1920 x 1200
H041;32;Mannelijk;Rechts;2;30;right;no;100;rightarrow;334;true;focus;yes;369994;Chrome;112.0;Windows;10;undefined;undefined;1920 x 1200;1920 x 1200
H041;32;Mannelijk;Rechts;2;31;right;no;100;rightarrow;354;true;focus;yes;371116;Chrome;112.0;Windows;10;undefined;undefined;1920 x 1200;1920 x 1200
H041;32;Mannelijk;Rechts;2;32;right;no;100;rightarrow;390;true;focus;yes;372269;Chrome;112.0;Windows;10;undefined;undefined;1920 x 1200;1920 x 1200
H041;32;Mannelijk;Rechts;2;33;left;yes;100;leftarrow;385;false;focus;yes;373435;Chrome;112.0;Windows;10;undefined;undefined;1920 x 1200;1920 x 1200
H041;32;Mannelijk;Rechts;2;34;left;no;50;leftarrow;394;true;focus;yes;374610;Chrome;112.0;Windows;10;undefined;undefined;1920 x 1200;1920 x 1200
H041;32;Mannelijk;Rechts;2;35;right;no;50;rightarrow;338;true;focus;yes;375709;Chrome;112.0;Windows;10;undefined;undefined;1920 x 1200;1920 x 1200
H041;32;Mannelijk;Rechts;2;36;left;no;50;leftarrow;323;true;focus;yes;376796;Chrome;112.0;Windows;10;undefined;undefined;1920 x 1200;1920 x 1200
H041;32;Mannelijk;Rechts;2;37;left;no;50;leftarrow;437;true;focus;yes;377996;Chrome;112.0;Windows;10;undefined;undefined;1920 x 1200;1920 x 1200
H041;32;Mannelijk;Rechts;2;38;right;no;50;rightarrow;380;true;focus;yes;379141;Chrome;112.0;Windows;10;undefined;undefined;1920 x 1200;1920 x 1200
H041;32;Mannelijk;Rechts;2;39;right;no;50;rightarrow;411;true;focus;yes;380336;Chrome;112.0;Windows;10;undefined;undefined;1920 x 1200;1920 x 1200
H041;32;Mannelijk;Rechts;2;40;right;yes;50;undefined;null;true;focus;yes;382348;Chrome;112.0;Windows;10;undefined;undefined;1920 x 1200;1920 x 1200
H041;32;Mannelijk;Rechts;2;41;left;yes;100;leftarrow;287;false;focus;yes;383418;Chrome;112.0;Windows;10;undefined;undefined;1920 x 1200;1920 x 1200
H041;32;Mannelijk;Rechts;2;42;left;no;50;leftarrow;427;true;focus;yes;384614;Chrome;112.0;Windows;10;undefined;undefined;1920 x 1200;1920 x 1200
H041;32;Mannelijk;Rechts;2;43;left;no;50;leftarrow;371;true;focus;yes;385744;Chrome;112.0;Windows;10;undefined;undefined;1920 x 1200;1920 x 1200
H041;32;Mannelijk;Rechts;2;44;right;no;50;rightarrow;359;true;focus;yes;386866;Chrome;112.0;Windows;10;undefined;undefined;1920 x 1200;1920 x 1200
H041;32;Mannelijk;Rechts;2;45;left;no;50;leftarrow;340;true;focus;yes;387981;Chrome;112.0;Windows;10;undefined;undefined;1920 x 1200;1920 x 1200
H041;32;Mannelijk;Rechts;2;46;right;yes;50;undefined;null;true;focus;yes;390010;Chrome;112.0;Windows;10;undefined;undefined;1920 x 1200;1920 x 1200
H041;32;Mannelijk;Rechts;2;47;right;no;100;rightarrow;363;true;focus;yes;391130;Chrome;112.0;Windows;10;undefined;undefined;1920 x 1200;1920 x 1200
H041;32;Mannelijk;Rechts;2;48;right;no;100;rightarrow;358;true;focus;yes;392259;Chrome;112.0;Windows;10;undefined;undefined;1920 x 1200;1920 x 1200
H041;32;Mannelijk;Rechts;2;49;left;no;100;leftarrow;383;true;focus;yes;393417;Chrome;112.0;Windows;10;undefined;undefined;1920 x 1200;1920 x 1200
H041;32;Mannelijk;Rechts;2;50;left;no;100;leftarrow;378;true;focus;yes;394552;Chrome;112.0;Windows;10;undefined;undefined;1920 x 1200;1920 x 1200
H041;32;Mannelijk;Rechts;2;51;right;no;100;rightarrow;346;true;focus;yes;395668;Chrome;112.0;Windows;10;undefined;undefined;1920 x 1200;1920 x 1200
H041;32;Mannelijk;Rechts;2;52;left;no;100;leftarrow;325;true;focus;yes;396749;Chrome;112.0;Windows;10;undefined;undefined;1920 x 1200;1920 x 1200
H041;32;Mannelijk;Rechts;2;53;right;no;100;rightarrow;322;true;focus;yes;397833;Chrome;112.0;Windows;10;undefined;undefined;1920 x 1200;1920 x 1200
H041;32;Mannelijk;Rechts;2;54;left;yes;100;leftarrow;363;false;focus;yes;398960;Chrome;112.0;Windows;10;undefined;undefined;1920 x 1200;1920 x 1200
H041;32;Mannelijk;Rechts;2;55;right;no;50;rightarrow;341;true;focus;yes;400071;Chrome;112.0;Windows;10;undefined;undefined;1920 x 1200;1920 x 1200
H041;32;Mannelijk;Rechts;2;56;right;yes;50;rightarrow;366;false;focus;yes;401198;Chrome;112.0;Windows;10;undefined;undefined;1920 x 1200;1920 x 1200
H041;32;Mannelijk;Rechts;2;57;right;no;50;rightarrow;454;true;focus;yes;402419;Chrome;112.0;Windows;10;undefined;undefined;1920 x 1200;1920 x 1200
H041;32;Mannelijk;Rechts;2;58;left;no;50;leftarrow;314;true;focus;yes;403520;Chrome;112.0;Windows;10;undefined;undefined;1920 x 1200;1920 x 1200
H041;32;Mannelijk;Rechts;2;59;right;yes;50;undefined;null;true;focus;yes;405537;Chrome;112.0;Windows;10;undefined;undefined;1920 x 1200;1920 x 1200
H041;32;Mannelijk;Rechts;2;60;right;no;100;rightarrow;358;true;focus;yes;406653;Chrome;112.0;Windows;10;undefined;undefined;1920 x 1200;1920 x 1200
H041;32;Mannelijk;Rechts;2;61;left;no;100;leftarrow;350;true;focus;yes;407763;Chrome;112.0;Windows;10;undefined;undefined;1920 x 1200;1920 x 1200
H041;32;Mannelijk;Rechts;2;62;left;yes;100;leftarrow;359;false;focus;yes;408890;Chrome;112.0;Windows;10;undefined;undefined;1920 x 1200;1920 x 1200
H041;32;Mannelijk;Rechts;2;63;left;no;50;leftarrow;398;true;focus;yes;410047;Chrome;112.0;Windows;10;undefined;undefined;1920 x 1200;1920 x 1200
H041;32;Mannelijk;Rechts;2;64;right;no;50;rightarrow;430;true;focus;yes;411251;Chrome;112.0;Windows;10;undefined;undefined;1920 x 1200;1920 x 1200
H041;32;Mannelijk;Rechts;2;65;left;yes;50;undefined;null;true;focus;yes;413274;Chrome;112.0;Windows;10;undefined;undefined;1920 x 1200;1920 x 1200
H041;32;Mannelijk;Rechts;2;66;right;yes;100;rightarrow;386;false;focus;yes;414427;Chrome;112.0;Windows;10;undefined;undefined;1920 x 1200;1920 x 1200
H041;32;Mannelijk;Rechts;2;67;left;no;50;leftarrow;377;true;focus;yes;415583;Chrome;112.0;Windows;10;undefined;undefined;1920 x 1200;1920 x 1200
H041;32;Mannelijk;Rechts;2;68;right;no;50;rightarrow;368;true;focus;yes;416713;Chrome;112.0;Windows;10;undefined;undefined;1920 x 1200;1920 x 1200
H041;32;Mannelijk;Rechts;2;69;left;no;50;leftarrow;329;true;focus;yes;417823;Chrome;112.0;Windows;10;undefined;undefined;1920 x 1200;1920 x 1200
H041;32;Mannelijk;Rechts;2;70;right;no;50;rightarrow;316;true;focus;yes;418912;Chrome;112.0;Windows;10;undefined;undefined;1920 x 1200;1920 x 1200
H041;32;Mannelijk;Rechts;2;71;right;no;50;rightarrow;361;true;focus;yes;420045;Chrome;112.0;Windows;10;undefined;undefined;1920 x 1200;1920 x 1200
H041;32;Mannelijk;Rechts;2;72;left;no;50;leftarrow;308;true;focus;yes;421124;Chrome;112.0;Windows;10;undefined;undefined;1920 x 1200;1920 x 1200
H041;32;Mannelijk;Rechts;2;74;left;no;50;leftarrow;303;true;focus;yes;423307;Chrome;112.0;Windows;10;undefined;undefined;1920 x 1200;1920 x 1200
H041;32;Mannelijk;Rechts;2;73;right;no;50;rightarrow;319;true;focus;yes;422221;Chrome;112.0;Windows;10;undefined;undefined;1920 x 1200;1920 x 1200
H041;32;Mannelijk;Rechts;2;75;left;yes;50;undefined;null;true;focus;yes;425327;Chrome;112.0;Windows;10;undefined;undefined;1920 x 1200;1920 x 1200
H041;32;Mannelijk;Rechts;2;76;right;no;100;rightarrow;398;true;focus;yes;426508;Chrome;112.0;Windows;10;undefined;undefined;1920 x 1200;1920 x 1200
H041;32;Mannelijk;Rechts;2;77;left;no;100;leftarrow;295;true;focus;yes;427561;Chrome;112.0;Windows;10;undefined;undefined;1920 x 1200;1920 x 1200
H041;32;Mannelijk;Rechts;2;78;right;yes;100;rightarrow;275;false;focus;yes;428605;Chrome;112.0;Windows;10;undefined;undefined;1920 x 1200;1920 x 1200
H041;32;Mannelijk;Rechts;2;79;left;no;50;leftarrow;309;true;focus;yes;429678;Chrome;112.0;Windows;10;undefined;undefined;1920 x 1200;1920 x 1200
H041;32;Mannelijk;Rechts;2;80;right;no;50;rightarrow;328;true;focus;yes;430782;Chrome;112.0;Windows;10;undefined;undefined;1920 x 1200;1920 x 1200
H041;32;Mannelijk;Rechts;2;81;left;yes;50;leftarrow;252;false;focus;yes;431809;Chrome;112.0;Windows;10;undefined;undefined;1920 x 1200;1920 x 1200
H041;32;Mannelijk;Rechts;2;82;right;no;50;rightarrow;527;true;focus;yes;433100;Chrome;112.0;Windows;10;undefined;undefined;1920 x 1200;1920 x 1200
H041;32;Mannelijk;Rechts;2;83;left;no;50;leftarrow;325;true;focus;yes;434184;Chrome;112.0;Windows;10;undefined;undefined;1920 x 1200;1920 x 1200
H041;32;Mannelijk;Rechts;2;84;left;no;50;leftarrow;442;true;focus;yes;435403;Chrome;112.0;Windows;10;undefined;undefined;1920 x 1200;1920 x 1200
H041;32;Mannelijk;Rechts;2;85;right;yes;50;undefined;null;true;focus;yes;437416;Chrome;112.0;Windows;10;undefined;undefined;1920 x 1200;1920 x 1200
H041;32;Mannelijk;Rechts;2;86;right;no;100;rightarrow;421;true;focus;yes;438604;Chrome;112.0;Windows;10;undefined;undefined;1920 x 1200;1920 x 1200
H041;32;Mannelijk;Rechts;2;87;right;no;100;rightarrow;349;true;focus;yes;439718;Chrome;112.0;Windows;10;undefined;undefined;1920 x 1200;1920 x 1200
H041;32;Mannelijk;Rechts;2;88;left;no;100;leftarrow;375;true;focus;yes;440861;Chrome;112.0;Windows;10;undefined;undefined;1920 x 1200;1920 x 1200
H041;32;Mannelijk;Rechts;2;89;left;no;100;leftarrow;324;true;focus;yes;441960;Chrome;112.0;Windows;10;undefined;undefined;1920 x 1200;1920 x 1200
H041;32;Mannelijk;Rechts;2;90;right;yes;100;rightarrow;335;false;focus;yes;443074;Chrome;112.0;Windows;10;undefined;undefined;1920 x 1200;1920 x 1200
H041;32;Mannelijk;Rechts;2;91;left;no;50;leftarrow;311;true;focus;yes;444152;Chrome;112.0;Windows;10;undefined;undefined;1920 x 1200;1920 x 1200
H041;32;Mannelijk;Rechts;2;92;left;yes;50;undefined;null;true;focus;yes;446164;Chrome;112.0;Windows;10;undefined;undefined;1920 x 1200;1920 x 1200
H041;32;Mannelijk;Rechts;2;93;right;no;100;rightarrow;344;true;focus;yes;447291;Chrome;112.0;Windows;10;undefined;undefined;1920 x 1200;1920 x 1200
H041;32;Mannelijk;Rechts;2;94;right;no;100;rightarrow;396;true;focus;yes;448460;Chrome;112.0;Windows;10;undefined;undefined;1920 x 1200;1920 x 1200
H041;32;Mannelijk;Rechts;2;95;left;no;100;leftarrow;392;true;focus;yes;449611;Chrome;112.0;Windows;10;undefined;undefined;1920 x 1200;1920 x 1200
H041;32;Mannelijk;Rechts;2;96;right;no;100;rightarrow;362;true;focus;yes;450753;Chrome;112.0;Windows;10;undefined;undefined;1920 x 1200;1920 x 1200
H041;32;Mannelijk;Rechts;2;97;right;no;100;rightarrow;366;true;focus;yes;451875;Chrome;112.0;Windows;10;undefined;undefined;1920 x 1200;1920 x 1200
H041;32;Mannelijk;Rechts;2;98;left;no;100;leftarrow;373;true;focus;yes;453032;Chrome;112.0;Windows;10;undefined;undefined;1920 x 1200;1920 x 1200
H041;32;Mannelijk;Rechts;2;99;right;yes;100;rightarrow;369;false;focus;yes;454167;Chrome;112.0;Windows;10;undefined;undefined;1920 x 1200;1920 x 1200
H041;32;Mannelijk;Rechts;2;100;right;no;50;rightarrow;359;true;focus;yes;455291;Chrome;112.0;Windows;10;undefined;undefined;1920 x 1200;1920 x 1200
H041;32;Mannelijk;Rechts;2;101;left;no;50;leftarrow;330;true;focus;yes;456396;Chrome;112.0;Windows;10;undefined;undefined;1920 x 1200;1920 x 1200
H041;32;Mannelijk;Rechts;2;102;left;no;50;leftarrow;371;true;focus;yes;457539;Chrome;112.0;Windows;10;undefined;undefined;1920 x 1200;1920 x 1200
H041;32;Mannelijk;Rechts;2;103;right;no;50;rightarrow;338;true;focus;yes;458645;Chrome;112.0;Windows;10;undefined;undefined;1920 x 1200;1920 x 1200
H041;32;Mannelijk;Rechts;2;104;left;yes;50;leftarrow;331;false;focus;yes;459740;Chrome;112.0;Windows;10;undefined;undefined;1920 x 1200;1920 x 1200
H041;32;Mannelijk;Rechts;2;105;left;no;50;leftarrow;377;true;focus;yes;460888;Chrome;112.0;Windows;10;undefined;undefined;1920 x 1200;1920 x 1200
H041;32;Mannelijk;Rechts;2;106;right;no;50;rightarrow;344;true;focus;yes;461988;Chrome;112.0;Windows;10;undefined;undefined;1920 x 1200;1920 x 1200
H041;32;Mannelijk;Rechts;2;107;right;yes;50;undefined;null;true;focus;yes;463998;Chrome;112.0;Windows;10;undefined;undefined;1920 x 1200;1920 x 1200
H041;32;Mannelijk;Rechts;2;108;left;no;100;leftarrow;340;true;focus;yes;465121;Chrome;112.0;Windows;10;undefined;undefined;1920 x 1200;1920 x 1200
H041;32;Mannelijk;Rechts;2;109;left;yes;100;leftarrow;333;false;focus;yes;466231;Chrome;112.0;Windows;10;undefined;undefined;1920 x 1200;1920 x 1200
H041;32;Mannelijk;Rechts;2;110;right;no;50;rightarrow;351;true;focus;yes;467351;Chrome;112.0;Windows;10;undefined;undefined;1920 x 1200;1920 x 1200
H041;32;Mannelijk;Rechts;2;111;left;no;50;leftarrow;337;true;focus;yes;468461;Chrome;112.0;Windows;10;undefined;undefined;1920 x 1200;1920 x 1200
H041;32;Mannelijk;Rechts;2;112;right;no;50;rightarrow;393;true;focus;yes;469619;Chrome;112.0;Windows;10;undefined;undefined;1920 x 1200;1920 x 1200
H041;32;Mannelijk;Rechts;2;113;right;no;50;rightarrow;350;true;focus;yes;470741;Chrome;112.0;Windows;10;undefined;undefined;1920 x 1200;1920 x 1200
H041;32;Mannelijk;Rechts;2;114;left;no;50;leftarrow;348;true;focus;yes;471856;Chrome;112.0;Windows;10;undefined;undefined;1920 x 1200;1920 x 1200
H041;32;Mannelijk;Rechts;2;115;right;no;50;rightarrow;319;true;focus;yes;472951;Chrome;112.0;Windows;10;undefined;undefined;1920 x 1200;1920 x 1200
H041;32;Mannelijk;Rechts;2;116;left;no;50;leftarrow;300;true;focus;yes;474033;Chrome;112.0;Windows;10;undefined;undefined;1920 x 1200;1920 x 1200
H041;32;Mannelijk;Rechts;2;117;left;yes;50;undefined;null;true;focus;yes;476051;Chrome;112.0;Windows;10;undefined;undefined;1920 x 1200;1920 x 1200
H041;32;Mannelijk;Rechts;2;118;right;yes;100;rightarrow;280;false;focus;yes;477098;Chrome;112.0;Windows;10;undefined;undefined;1920 x 1200;1920 x 1200
H041;32;Mannelijk;Rechts;2;119;right;no;50;rightarrow;361;true;focus;yes;478218;Chrome;112.0;Windows;10;undefined;undefined;1920 x 1200;1920 x 1200
H041;32;Mannelijk;Rechts;2;120;left;no;50;leftarrow;365;true;focus;yes;479341;Chrome;112.0;Windows;10;undefined;undefined;1920 x 1200;1920 x 1200
H041;32;Mannelijk;Rechts;2;121;right;no;50;rightarrow;384;true;focus;yes;480493;Chrome;112.0;Windows;10;undefined;undefined;1920 x 1200;1920 x 1200
H041;32;Mannelijk;Rechts;2;122;left;no;50;leftarrow;335;true;focus;yes;481598;Chrome;112.0;Windows;10;undefined;undefined;1920 x 1200;1920 x 1200
H041;32;Mannelijk;Rechts;2;123;right;no;50;rightarrow;296;true;focus;yes;482661;Chrome;112.0;Windows;10;undefined;undefined;1920 x 1200;1920 x 1200
H041;32;Mannelijk;Rechts;2;124;right;no;50;rightarrow;406;true;focus;yes;483836;Chrome;112.0;Windows;10;undefined;undefined;1920 x 1200;1920 x 1200
H041;32;Mannelijk;Rechts;2;125;left;no;50;leftarrow;332;true;focus;yes;484948;Chrome;112.0;Windows;10;undefined;undefined;1920 x 1200;1920 x 1200
H041;32;Mannelijk;Rechts;2;126;left;yes;50;undefined;null;true;focus;yes;486971;Chrome;112.0;Windows;10;undefined;undefined;1920 x 1200;1920 x 1200
H041;32;Mannelijk;Rechts;2;127;right;yes;100;rightarrow;309;false;focus;yes;488047;Chrome;112.0;Windows;10;undefined;undefined;1920 x 1200;1920 x 1200
H041;32;Mannelijk;Rechts;2;128;left;no;50;leftarrow;286;true;focus;yes;489109;Chrome;112.0;Windows;10;undefined;undefined;1920 x 1200;1920 x 1200
H041;32;Mannelijk;Rechts;3;1;right;yes;50;rightarrow;330;false;focus;yes;508468;Chrome;112.0;Windows;10;undefined;undefined;1920 x 1200;1920 x 1200
H041;32;Mannelijk;Rechts;3;2;right;no;50;rightarrow;311;true;focus;yes;509548;Chrome;112.0;Windows;10;undefined;undefined;1920 x 1200;1920 x 1200
H041;32;Mannelijk;Rechts;3;3;right;no;50;rightarrow;320;true;focus;yes;510643;Chrome;112.0;Windows;10;undefined;undefined;1920 x 1200;1920 x 1200
H041;32;Mannelijk;Rechts;3;4;left;yes;50;undefined;null;true;focus;yes;512692;Chrome;112.0;Windows;10;undefined;undefined;1920 x 1200;1920 x 1200
H041;32;Mannelijk;Rechts;3;5;left;no;100;leftarrow;388;true;focus;yes;513856;Chrome;112.0;Windows;10;undefined;undefined;1920 x 1200;1920 x 1200
H041;32;Mannelijk;Rechts;3;6;left;no;100;leftarrow;372;true;focus;yes;515014;Chrome;112.0;Windows;10;undefined;undefined;1920 x 1200;1920 x 1200
H041;32;Mannelijk;Rechts;3;7;left;no;100;leftarrow;322;true;focus;yes;516115;Chrome;112.0;Windows;10;undefined;undefined;1920 x 1200;1920 x 1200
H041;32;Mannelijk;Rechts;3;8;right;no;100;rightarrow;351;true;focus;yes;517244;Chrome;112.0;Windows;10;undefined;undefined;1920 x 1200;1920 x 1200
H041;32;Mannelijk;Rechts;3;9;left;no;100;leftarrow;344;true;focus;yes;518362;Chrome;112.0;Windows;10;undefined;undefined;1920 x 1200;1920 x 1200
H041;32;Mannelijk;Rechts;3;10;left;no;100;leftarrow;359;true;focus;yes;519497;Chrome;112.0;Windows;10;undefined;undefined;1920 x 1200;1920 x 1200
H041;32;Mannelijk;Rechts;3;11;right;no;100;rightarrow;303;true;focus;yes;520580;Chrome;112.0;Windows;10;undefined;undefined;1920 x 1200;1920 x 1200
H041;32;Mannelijk;Rechts;3;12;right;yes;100;undefined;null;true;focus;yes;522628;Chrome;112.0;Windows;10;undefined;undefined;1920 x 1200;1920 x 1200
H041;32;Mannelijk;Rechts;3;13;right;no;150;rightarrow;387;true;focus;yes;523785;Chrome;112.0;Windows;10;undefined;undefined;1920 x 1200;1920 x 1200
H041;32;Mannelijk;Rechts;3;14;right;no;150;rightarrow;321;true;focus;yes;524889;Chrome;112.0;Windows;10;undefined;undefined;1920 x 1200;1920 x 1200
H041;32;Mannelijk;Rechts;3;15;left;no;150;leftarrow;339;true;focus;yes;526008;Chrome;112.0;Windows;10;undefined;undefined;1920 x 1200;1920 x 1200
H041;32;Mannelijk;Rechts;3;16;left;yes;150;leftarrow;393;false;focus;yes;527176;Chrome;112.0;Windows;10;undefined;undefined;1920 x 1200;1920 x 1200
H041;32;Mannelijk;Rechts;3;17;right;no;100;rightarrow;272;true;focus;yes;528225;Chrome;112.0;Windows;10;undefined;undefined;1920 x 1200;1920 x 1200
H041;32;Mannelijk;Rechts;3;18;left;no;100;leftarrow;347;true;focus;yes;529345;Chrome;112.0;Windows;10;undefined;undefined;1920 x 1200;1920 x 1200
H041;32;Mannelijk;Rechts;3;19;right;yes;100;rightarrow;381;false;focus;yes;530499;Chrome;112.0;Windows;10;undefined;undefined;1920 x 1200;1920 x 1200
H041;32;Mannelijk;Rechts;3;20;right;no;50;rightarrow;413;true;focus;yes;531701;Chrome;112.0;Windows;10;undefined;undefined;1920 x 1200;1920 x 1200
H041;32;Mannelijk;Rechts;3;21;left;yes;50;leftarrow;326;false;focus;yes;532809;Chrome;112.0;Windows;10;undefined;undefined;1920 x 1200;1920 x 1200
H041;32;Mannelijk;Rechts;3;22;left;no;50;leftarrow;344;true;focus;yes;533913;Chrome;112.0;Windows;10;undefined;undefined;1920 x 1200;1920 x 1200
H041;32;Mannelijk;Rechts;3;23;left;no;50;leftarrow;364;true;focus;yes;535052;Chrome;112.0;Windows;10;undefined;undefined;1920 x 1200;1920 x 1200
H041;32;Mannelijk;Rechts;3;24;right;no;50;rightarrow;369;true;focus;yes;536187;Chrome;112.0;Windows;10;undefined;undefined;1920 x 1200;1920 x 1200
H041;32;Mannelijk;Rechts;3;25;left;yes;50;undefined;null;true;focus;yes;538211;Chrome;112.0;Windows;10;undefined;undefined;1920 x 1200;1920 x 1200
H041;32;Mannelijk;Rechts;3;26;left;no;100;leftarrow;372;true;focus;yes;539344;Chrome;112.0;Windows;10;undefined;undefined;1920 x 1200;1920 x 1200
H041;32;Mannelijk;Rechts;3;27;right;no;100;rightarrow;356;true;focus;yes;540462;Chrome;112.0;Windows;10;undefined;undefined;1920 x 1200;1920 x 1200
H041;32;Mannelijk;Rechts;3;28;left;no;100;leftarrow;349;true;focus;yes;541573;Chrome;112.0;Windows;10;undefined;undefined;1920 x 1200;1920 x 1200
H041;32;Mannelijk;Rechts;3;29;right;no;100;rightarrow;338;true;focus;yes;542678;Chrome;112.0;Windows;10;undefined;undefined;1920 x 1200;1920 x 1200
H041;32;Mannelijk;Rechts;3;30;right;yes;100;undefined;null;true;focus;yes;544694;Chrome;112.0;Windows;10;undefined;undefined;1920 x 1200;1920 x 1200
H041;32;Mannelijk;Rechts;3;31;left;no;150;leftarrow;351;true;focus;yes;545806;Chrome;112.0;Windows;10;undefined;undefined;1920 x 1200;1920 x 1200
H041;32;Mannelijk;Rechts;3;32;right;no;150;rightarrow;298;true;focus;yes;546869;Chrome;112.0;Windows;10;undefined;undefined;1920 x 1200;1920 x 1200
H041;32;Mannelijk;Rechts;3;33;left;no;150;leftarrow;228;true;focus;yes;547867;Chrome;112.0;Windows;10;undefined;undefined;1920 x 1200;1920 x 1200
H041;32;Mannelijk;Rechts;3;34;right;yes;150;rightarrow;308;false;focus;yes;548939;Chrome;112.0;Windows;10;undefined;undefined;1920 x 1200;1920 x 1200
H041;32;Mannelijk;Rechts;3;35;right;no;100;rightarrow;415;true;focus;yes;550117;Chrome;112.0;Windows;10;undefined;undefined;1920 x 1200;1920 x 1200
H041;32;Mannelijk;Rechts;3;36;left;no;100;leftarrow;370;true;focus;yes;551254;Chrome;112.0;Windows;10;undefined;undefined;1920 x 1200;1920 x 1200
H041;32;Mannelijk;Rechts;3;37;right;no;100;rightarrow;336;true;focus;yes;552355;Chrome;112.0;Windows;10;undefined;undefined;1920 x 1200;1920 x 1200
H041;32;Mannelijk;Rechts;3;38;right;no;100;rightarrow;396;true;focus;yes;553515;Chrome;112.0;Windows;10;undefined;undefined;1920 x 1200;1920 x 1200
H041;32;Mannelijk;Rechts;3;39;left;yes;100;leftarrow;360;false;focus;yes;554646;Chrome;112.0;Windows;10;undefined;undefined;1920 x 1200;1920 x 1200
H041;32;Mannelijk;Rechts;3;40;left;no;50;leftarrow;397;true;focus;yes;555816;Chrome;112.0;Windows;10;undefined;undefined;1920 x 1200;1920 x 1200
H041;32;Mannelijk;Rechts;3;41;left;no;50;leftarrow;324;true;focus;yes;556907;Chrome;112.0;Windows;10;undefined;undefined;1920 x 1200;1920 x 1200
H041;32;Mannelijk;Rechts;3;42;left;no;50;leftarrow;375;true;focus;yes;558047;Chrome;112.0;Windows;10;undefined;undefined;1920 x 1200;1920 x 1200
H041;32;Mannelijk;Rechts;3;43;right;no;50;rightarrow;375;true;focus;yes;559195;Chrome;112.0;Windows;10;undefined;undefined;1920 x 1200;1920 x 1200
H041;32;Mannelijk;Rechts;3;44;left;no;50;leftarrow;303;true;focus;yes;560256;Chrome;112.0;Windows;10;undefined;undefined;1920 x 1200;1920 x 1200
H041;32;Mannelijk;Rechts;3;45;left;yes;50;undefined;null;true;focus;yes;562277;Chrome;112.0;Windows;10;undefined;undefined;1920 x 1200;1920 x 1200
H041;32;Mannelijk;Rechts;3;46;right;no;100;rightarrow;366;true;focus;yes;563400;Chrome;112.0;Windows;10;undefined;undefined;1920 x 1200;1920 x 1200
H041;32;Mannelijk;Rechts;3;47;right;yes;100;undefined;null;true;focus;yes;565428;Chrome;112.0;Windows;10;undefined;undefined;1920 x 1200;1920 x 1200
H041;32;Mannelijk;Rechts;3;48;right;no;150;rightarrow;451;true;focus;yes;566643;Chrome;112.0;Windows;10;undefined;undefined;1920 x 1200;1920 x 1200
H041;32;Mannelijk;Rechts;3;49;left;no;150;leftarrow;333;true;focus;yes;567736;Chrome;112.0;Windows;10;undefined;undefined;1920 x 1200;1920 x 1200
H041;32;Mannelijk;Rechts;3;50;right;no;150;rightarrow;302;true;focus;yes;568805;Chrome;112.0;Windows;10;undefined;undefined;1920 x 1200;1920 x 1200
H041;32;Mannelijk;Rechts;3;51;right;no;150;rightarrow;346;true;focus;yes;569919;Chrome;112.0;Windows;10;undefined;undefined;1920 x 1200;1920 x 1200
H041;32;Mannelijk;Rechts;3;52;left;no;150;leftarrow;368;true;focus;yes;571056;Chrome;112.0;Windows;10;undefined;undefined;1920 x 1200;1920 x 1200
H041;32;Mannelijk;Rechts;3;53;right;yes;150;rightarrow;307;false;focus;yes;572130;Chrome;112.0;Windows;10;undefined;undefined;1920 x 1200;1920 x 1200
H041;32;Mannelijk;Rechts;3;54;right;no;100;rightarrow;396;true;focus;yes;573299;Chrome;112.0;Windows;10;undefined;undefined;1920 x 1200;1920 x 1200
H041;32;Mannelijk;Rechts;3;55;left;no;100;leftarrow;359;true;focus;yes;574422;Chrome;112.0;Windows;10;undefined;undefined;1920 x 1200;1920 x 1200
H041;32;Mannelijk;Rechts;3;56;left;yes;100;undefined;null;true;focus;yes;576474;Chrome;112.0;Windows;10;undefined;undefined;1920 x 1200;1920 x 1200
H041;32;Mannelijk;Rechts;3;57;right;no;150;rightarrow;339;true;focus;yes;577573;Chrome;112.0;Windows;10;undefined;undefined;1920 x 1200;1920 x 1200
H041;32;Mannelijk;Rechts;3;58;right;no;150;rightarrow;366;true;focus;yes;578702;Chrome;112.0;Windows;10;undefined;undefined;1920 x 1200;1920 x 1200
H041;32;Mannelijk;Rechts;3;59;right;no;150;rightarrow;301;true;focus;yes;579767;Chrome;112.0;Windows;10;undefined;undefined;1920 x 1200;1920 x 1200
H041;32;Mannelijk;Rechts;3;60;left;yes;150;leftarrow;342;false;focus;yes;580883;Chrome;112.0;Windows;10;undefined;undefined;1920 x 1200;1920 x 1200
H041;32;Mannelijk;Rechts;3;61;left;no;100;leftarrow;382;true;focus;yes;582028;Chrome;112.0;Windows;10;undefined;undefined;1920 x 1200;1920 x 1200
H041;32;Mannelijk;Rechts;3;62;left;no;100;leftarrow;351;true;focus;yes;583151;Chrome;112.0;Windows;10;undefined;undefined;1920 x 1200;1920 x 1200
H041;32;Mannelijk;Rechts;3;63;right;yes;100;undefined;null;true;focus;yes;585181;Chrome;112.0;Windows;10;undefined;undefined;1920 x 1200;1920 x 1200
H041;32;Mannelijk;Rechts;3;64;left;no;150;leftarrow;352;true;focus;yes;586292;Chrome;112.0;Windows;10;undefined;undefined;1920 x 1200;1920 x 1200
H041;32;Mannelijk;Rechts;3;65;right;no;150;rightarrow;337;true;focus;yes;587387;Chrome;112.0;Windows;10;undefined;undefined;1920 x 1200;1920 x 1200
H041;32;Mannelijk;Rechts;3;66;left;no;150;leftarrow;275;true;focus;yes;588425;Chrome;112.0;Windows;10;undefined;undefined;1920 x 1200;1920 x 1200
H041;32;Mannelijk;Rechts;3;67;left;yes;150;leftarrow;372;false;focus;yes;589566;Chrome;112.0;Windows;10;undefined;undefined;1920 x 1200;1920 x 1200
H041;32;Mannelijk;Rechts;3;68;left;no;100;leftarrow;374;true;focus;yes;590703;Chrome;112.0;Windows;10;undefined;undefined;1920 x 1200;1920 x 1200
H041;32;Mannelijk;Rechts;3;69;right;no;100;rightarrow;508;true;focus;yes;591968;Chrome;112.0;Windows;10;undefined;undefined;1920 x 1200;1920 x 1200
H041;32;Mannelijk;Rechts;3;70;right;no;100;rightarrow;370;true;focus;yes;593098;Chrome;112.0;Windows;10;undefined;undefined;1920 x 1200;1920 x 1200
H041;32;Mannelijk;Rechts;3;71;right;yes;100;rightarrow;326;false;focus;yes;594180;Chrome;112.0;Windows;10;undefined;undefined;1920 x 1200;1920 x 1200
H041;32;Mannelijk;Rechts;3;72;left;no;50;leftarrow;295;true;focus;yes;595231;Chrome;112.0;Windows;10;undefined;undefined;1920 x 1200;1920 x 1200
H041;32;Mannelijk;Rechts;3;73;right;no;50;rightarrow;309;true;focus;yes;596307;Chrome;112.0;Windows;10;undefined;undefined;1920 x 1200;1920 x 1200
H041;32;Mannelijk;Rechts;3;74;right;yes;50;undefined;null;true;focus;yes;598321;Chrome;112.0;Windows;10;undefined;undefined;1920 x 1200;1920 x 1200
H041;32;Mannelijk;Rechts;3;75;right;no;100;rightarrow;380;true;focus;yes;599466;Chrome;112.0;Windows;10;undefined;undefined;1920 x 1200;1920 x 1200
H041;32;Mannelijk;Rechts;3;76;left;no;100;leftarrow;338;true;focus;yes;600574;Chrome;112.0;Windows;10;undefined;undefined;1920 x 1200;1920 x 1200
H041;32;Mannelijk;Rechts;3;77;left;no;100;leftarrow;360;true;focus;yes;601697;Chrome;112.0;Windows;10;undefined;undefined;1920 x 1200;1920 x 1200
H041;32;Mannelijk;Rechts;3;78;left;no;100;leftarrow;389;true;focus;yes;602853;Chrome;112.0;Windows;10;undefined;undefined;1920 x 1200;1920 x 1200
H041;32;Mannelijk;Rechts;3;79;right;no;100;rightarrow;338;true;focus;yes;603956;Chrome;112.0;Windows;10;undefined;undefined;1920 x 1200;1920 x 1200
H041;32;Mannelijk;Rechts;3;80;left;yes;100;leftarrow;327;false;focus;yes;605045;Chrome;112.0;Windows;10;undefined;undefined;1920 x 1200;1920 x 1200
H041;32;Mannelijk;Rechts;3;81;right;no;50;rightarrow;294;true;focus;yes;606112;Chrome;112.0;Windows;10;undefined;undefined;1920 x 1200;1920 x 1200
H041;32;Mannelijk;Rechts;3;82;left;no;50;leftarrow;366;true;focus;yes;607239;Chrome;112.0;Windows;10;undefined;undefined;1920 x 1200;1920 x 1200
H041;32;Mannelijk;Rechts;3;83;left;yes;50;undefined;null;true;focus;yes;609282;Chrome;112.0;Windows;10;undefined;undefined;1920 x 1200;1920 x 1200
H041;32;Mannelijk;Rechts;3;84;right;yes;100;rightarrow;298;false;focus;yes;610351;Chrome;112.0;Windows;10;undefined;undefined;1920 x 1200;1920 x 1200
H041;32;Mannelijk;Rechts;3;85;left;no;50;leftarrow;378;true;focus;yes;611501;Chrome;112.0;Windows;10;undefined;undefined;1920 x 1200;1920 x 1200
H041;32;Mannelijk;Rechts;3;86;right;no;50;rightarrow;335;true;focus;yes;612600;Chrome;112.0;Windows;10;undefined;undefined;1920 x 1200;1920 x 1200
H041;32;Mannelijk;Rechts;3;87;left;no;50;leftarrow;315;true;focus;yes;613688;Chrome;112.0;Windows;10;undefined;undefined;1920 x 1200;1920 x 1200
H041;32;Mannelijk;Rechts;3;88;right;no;50;rightarrow;329;true;focus;yes;614787;Chrome;112.0;Windows;10;undefined;undefined;1920 x 1200;1920 x 1200
H041;32;Mannelijk;Rechts;3;89;left;no;50;leftarrow;295;true;focus;yes;615853;Chrome;112.0;Windows;10;undefined;undefined;1920 x 1200;1920 x 1200
H041;32;Mannelijk;Rechts;3;90;right;no;50;rightarrow;355;true;focus;yes;616984;Chrome;112.0;Windows;10;undefined;undefined;1920 x 1200;1920 x 1200
H041;32;Mannelijk;Rechts;3;91;left;no;50;leftarrow;317;true;focus;yes;618067;Chrome;112.0;Windows;10;undefined;undefined;1920 x 1200;1920 x 1200
H041;32;Mannelijk;Rechts;3;92;left;yes;50;undefined;null;true;focus;yes;620091;Chrome;112.0;Windows;10;undefined;undefined;1920 x 1200;1920 x 1200
H041;32;Mannelijk;Rechts;3;93;right;no;100;rightarrow;326;true;focus;yes;621178;Chrome;112.0;Windows;10;undefined;undefined;1920 x 1200;1920 x 1200
H041;32;Mannelijk;Rechts;3;94;left;no;100;leftarrow;257;true;focus;yes;622201;Chrome;112.0;Windows;10;undefined;undefined;1920 x 1200;1920 x 1200
H041;32;Mannelijk;Rechts;3;95;right;no;100;rightarrow;298;true;focus;yes;623275;Chrome;112.0;Windows;10;undefined;undefined;1920 x 1200;1920 x 1200
H041;32;Mannelijk;Rechts;3;96;right;yes;100;leftarrow;261;false;focus;yes;624307;Chrome;112.0;Windows;10;undefined;undefined;1920 x 1200;1920 x 1200
H041;32;Mannelijk;Rechts;3;97;left;yes;50;undefined;null;true;focus;yes;626323;Chrome;112.0;Windows;10;undefined;undefined;1920 x 1200;1920 x 1200
H041;32;Mannelijk;Rechts;3;98;right;no;100;rightarrow;314;true;focus;yes;627408;Chrome;112.0;Windows;10;undefined;undefined;1920 x 1200;1920 x 1200
H041;32;Mannelijk;Rechts;3;99;left;no;100;leftarrow;312;true;focus;yes;628486;Chrome;112.0;Windows;10;undefined;undefined;1920 x 1200;1920 x 1200
H041;32;Mannelijk;Rechts;3;100;left;no;100;leftarrow;441;true;focus;yes;629697;Chrome;112.0;Windows;10;undefined;undefined;1920 x 1200;1920 x 1200
H041;32;Mannelijk;Rechts;3;101;left;no;100;leftarrow;372;true;focus;yes;630840;Chrome;112.0;Windows;10;undefined;undefined;1920 x 1200;1920 x 1200
H041;32;Mannelijk;Rechts;3;102;right;yes;100;undefined;null;true;focus;yes;632865;Chrome;112.0;Windows;10;undefined;undefined;1920 x 1200;1920 x 1200
H041;32;Mannelijk;Rechts;3;103;right;no;150;rightarrow;345;true;focus;yes;633982;Chrome;112.0;Windows;10;undefined;undefined;1920 x 1200;1920 x 1200
H041;32;Mannelijk;Rechts;3;104;right;no;150;rightarrow;373;true;focus;yes;635125;Chrome;112.0;Windows;10;undefined;undefined;1920 x 1200;1920 x 1200
H041;32;Mannelijk;Rechts;3;105;right;no;150;rightarrow;320;true;focus;yes;636214;Chrome;112.0;Windows;10;undefined;undefined;1920 x 1200;1920 x 1200
H041;32;Mannelijk;Rechts;3;106;left;no;150;leftarrow;352;true;focus;yes;637334;Chrome;112.0;Windows;10;undefined;undefined;1920 x 1200;1920 x 1200
H041;32;Mannelijk;Rechts;3;107;right;yes;150;rightarrow;320;false;focus;yes;638418;Chrome;112.0;Windows;10;undefined;undefined;1920 x 1200;1920 x 1200
H041;32;Mannelijk;Rechts;3;108;right;no;100;rightarrow;359;true;focus;yes;639551;Chrome;112.0;Windows;10;undefined;undefined;1920 x 1200;1920 x 1200
H041;32;Mannelijk;Rechts;3;109;left;yes;100;leftarrow;367;false;focus;yes;640690;Chrome;112.0;Windows;10;undefined;undefined;1920 x 1200;1920 x 1200
H041;32;Mannelijk;Rechts;3;110;left;no;50;leftarrow;395;true;focus;yes;641864;Chrome;112.0;Windows;10;undefined;undefined;1920 x 1200;1920 x 1200
H041;32;Mannelijk;Rechts;3;111;left;no;50;leftarrow;374;true;focus;yes;642998;Chrome;112.0;Windows;10;undefined;undefined;1920 x 1200;1920 x 1200
H041;32;Mannelijk;Rechts;3;112;right;no;50;rightarrow;322;true;focus;yes;644080;Chrome;112.0;Windows;10;undefined;undefined;1920 x 1200;1920 x 1200
H041;32;Mannelijk;Rechts;3;113;right;no;50;rightarrow;386;true;focus;yes;645240;Chrome;112.0;Windows;10;undefined;undefined;1920 x 1200;1920 x 1200
H041;32;Mannelijk;Rechts;3;114;left;no;50;leftarrow;353;true;focus;yes;646368;Chrome;112.0;Windows;10;undefined;undefined;1920 x 1200;1920 x 1200
H041;32;Mannelijk;Rechts;3;115;right;no;50;rightarrow;362;true;focus;yes;647512;Chrome;112.0;Windows;10;undefined;undefined;1920 x 1200;1920 x 1200
H041;32;Mannelijk;Rechts;3;116;left;yes;50;undefined;null;true;focus;yes;649565;Chrome;112.0;Windows;10;undefined;undefined;1920 x 1200;1920 x 1200
H041;32;Mannelijk;Rechts;3;117;left;no;100;leftarrow;417;true;focus;yes;650752;Chrome;112.0;Windows;10;undefined;undefined;1920 x 1200;1920 x 1200
H041;32;Mannelijk;Rechts;3;118;left;no;100;leftarrow;440;true;focus;yes;651975;Chrome;112.0;Windows;10;undefined;undefined;1920 x 1200;1920 x 1200
H041;32;Mannelijk;Rechts;3;119;right;yes;100;rightarrow;352;false;focus;yes;653102;Chrome;112.0;Windows;10;undefined;undefined;1920 x 1200;1920 x 1200
H041;32;Mannelijk;Rechts;3;120;right;no;50;rightarrow;420;true;focus;yes;654300;Chrome;112.0;Windows;10;undefined;undefined;1920 x 1200;1920 x 1200
H041;32;Mannelijk;Rechts;3;121;left;yes;50;undefined;null;true;focus;yes;656349;Chrome;112.0;Windows;10;undefined;undefined;1920 x 1200;1920 x 1200
H041;32;Mannelijk;Rechts;3;122;left;no;100;leftarrow;391;true;focus;yes;657507;Chrome;112.0;Windows;10;undefined;undefined;1920 x 1200;1920 x 1200
H041;32;Mannelijk;Rechts;3;123;left;no;100;leftarrow;400;true;focus;yes;658665;Chrome;112.0;Windows;10;undefined;undefined;1920 x 1200;1920 x 1200
H041;32;Mannelijk;Rechts;3;124;right;no;100;rightarrow;375;true;focus;yes;659808;Chrome;112.0;Windows;10;undefined;undefined;1920 x 1200;1920 x 1200
H041;32;Mannelijk;Rechts;3;125;right;no;100;rightarrow;366;true;focus;yes;660932;Chrome;112.0;Windows;10;undefined;undefined;1920 x 1200;1920 x 1200
H041;32;Mannelijk;Rechts;3;126;left;no;100;leftarrow;385;true;focus;yes;662086;Chrome;112.0;Windows;10;undefined;undefined;1920 x 1200;1920 x 1200
H041;32;Mannelijk;Rechts;3;127;right;no;100;rightarrow;315;true;focus;yes;663162;Chrome;112.0;Windows;10;undefined;undefined;1920 x 1200;1920 x 1200
H041;32;Mannelijk;Rechts;3;128;right;yes;100;rightarrow;354;false;focus;yes;664286;Chrome;112.0;Windows;10;undefined;undefined;1920 x 1200;1920 x 1200
H041;32;Mannelijk;Rechts;4;1;right;yes;50;rightarrow;337;false;focus;yes;683829;Chrome;112.0;Windows;10;undefined;undefined;1920 x 1200;1920 x 1200
H041;32;Mannelijk;Rechts;4;2;left;yes;50;leftarrow;393;false;focus;yes;684987;Chrome;112.0;Windows;10;undefined;undefined;1920 x 1200;1920 x 1200
H041;32;Mannelijk;Rechts;4;3;left;no;50;leftarrow;452;true;focus;yes;686210;Chrome;112.0;Windows;10;undefined;undefined;1920 x 1200;1920 x 1200
H041;32;Mannelijk;Rechts;4;4;left;no;50;leftarrow;373;true;focus;yes;687342;Chrome;112.0;Windows;10;undefined;undefined;1920 x 1200;1920 x 1200
H041;32;Mannelijk;Rechts;4;5;right;no;50;rightarrow;326;true;focus;yes;688429;Chrome;112.0;Windows;10;undefined;undefined;1920 x 1200;1920 x 1200
H041;32;Mannelijk;Rechts;4;6;left;no;50;leftarrow;332;true;focus;yes;689533;Chrome;112.0;Windows;10;undefined;undefined;1920 x 1200;1920 x 1200
H041;32;Mannelijk;Rechts;4;7;right;no;50;rightarrow;311;true;focus;yes;690611;Chrome;112.0;Windows;10;undefined;undefined;1920 x 1200;1920 x 1200
H041;32;Mannelijk;Rechts;4;8;right;no;50;rightarrow;352;true;focus;yes;691717;Chrome;112.0;Windows;10;undefined;undefined;1920 x 1200;1920 x 1200
H041;32;Mannelijk;Rechts;4;9;left;no;50;leftarrow;370;true;focus;yes;692856;Chrome;112.0;Windows;10;undefined;undefined;1920 x 1200;1920 x 1200
H041;32;Mannelijk;Rechts;4;10;left;yes;50;undefined;null;true;focus;yes;694888;Chrome;112.0;Windows;10;undefined;undefined;1920 x 1200;1920 x 1200
H041;32;Mannelijk;Rechts;4;11;left;no;100;leftarrow;330;true;focus;yes;695990;Chrome;112.0;Windows;10;undefined;undefined;1920 x 1200;1920 x 1200
H041;32;Mannelijk;Rechts;4;12;right;yes;100;rightarrow;347;false;focus;yes;697106;Chrome;112.0;Windows;10;undefined;undefined;1920 x 1200;1920 x 1200
H041;32;Mannelijk;Rechts;4;13;right;no;50;rightarrow;410;true;focus;yes;698294;Chrome;112.0;Windows;10;undefined;undefined;1920 x 1200;1920 x 1200
H041;32;Mannelijk;Rechts;4;14;right;no;50;rightarrow;369;true;focus;yes;699427;Chrome;112.0;Windows;10;undefined;undefined;1920 x 1200;1920 x 1200
H041;32;Mannelijk;Rechts;4;15;left;no;50;leftarrow;350;true;focus;yes;700537;Chrome;112.0;Windows;10;undefined;undefined;1920 x 1200;1920 x 1200
H041;32;Mannelijk;Rechts;4;16;right;no;50;rightarrow;353;true;focus;yes;701649;Chrome;112.0;Windows;10;undefined;undefined;1920 x 1200;1920 x 1200
H041;32;Mannelijk;Rechts;4;17;right;no;50;rightarrow;347;true;focus;yes;702775;Chrome;112.0;Windows;10;undefined;undefined;1920 x 1200;1920 x 1200
H041;32;Mannelijk;Rechts;4;18;right;yes;50;undefined;null;true;focus;yes;704801;Chrome;112.0;Windows;10;undefined;undefined;1920 x 1200;1920 x 1200
H041;32;Mannelijk;Rechts;4;19;left;no;100;leftarrow;313;true;focus;yes;705880;Chrome;112.0;Windows;10;undefined;undefined;1920 x 1200;1920 x 1200
H041;32;Mannelijk;Rechts;4;20;left;no;100;leftarrow;324;true;focus;yes;706977;Chrome;112.0;Windows;10;undefined;undefined;1920 x 1200;1920 x 1200
H041;32;Mannelijk;Rechts;4;21;right;no;100;rightarrow;367;true;focus;yes;708112;Chrome;112.0;Windows;10;undefined;undefined;1920 x 1200;1920 x 1200
H041;32;Mannelijk;Rechts;4;22;right;no;100;rightarrow;332;true;focus;yes;709217;Chrome;112.0;Windows;10;undefined;undefined;1920 x 1200;1920 x 1200
H041;32;Mannelijk;Rechts;4;23;left;no;100;leftarrow;329;true;focus;yes;710303;Chrome;112.0;Windows;10;undefined;undefined;1920 x 1200;1920 x 1200
H041;32;Mannelijk;Rechts;4;24;left;yes;100;undefined;null;true;focus;yes;712324;Chrome;112.0;Windows;10;undefined;undefined;1920 x 1200;1920 x 1200
H041;32;Mannelijk;Rechts;4;25;right;yes;150;rightarrow;318;false;focus;yes;713409;Chrome;112.0;Windows;10;undefined;undefined;1920 x 1200;1920 x 1200
H041;32;Mannelijk;Rechts;4;26;left;no;100;leftarrow;403;true;focus;yes;714576;Chrome;112.0;Windows;10;undefined;undefined;1920 x 1200;1920 x 1200
H041;32;Mannelijk;Rechts;4;27;left;no;100;leftarrow;387;true;focus;yes;715732;Chrome;112.0;Windows;10;undefined;undefined;1920 x 1200;1920 x 1200
H041;32;Mannelijk;Rechts;4;28;right;no;100;rightarrow;308;true;focus;yes;716801;Chrome;112.0;Windows;10;undefined;undefined;1920 x 1200;1920 x 1200
H041;32;Mannelijk;Rechts;4;29;right;no;100;rightarrow;366;true;focus;yes;717930;Chrome;112.0;Windows;10;undefined;undefined;1920 x 1200;1920 x 1200
H041;32;Mannelijk;Rechts;4;30;left;yes;100;leftarrow;330;false;focus;yes;719033;Chrome;112.0;Windows;10;undefined;undefined;1920 x 1200;1920 x 1200
H041;32;Mannelijk;Rechts;4;31;right;no;50;rightarrow;396;true;focus;yes;720183;Chrome;112.0;Windows;10;undefined;undefined;1920 x 1200;1920 x 1200
H041;32;Mannelijk;Rechts;4;32;left;no;50;leftarrow;367;true;focus;yes;721312;Chrome;112.0;Windows;10;undefined;undefined;1920 x 1200;1920 x 1200
H041;32;Mannelijk;Rechts;4;33;right;no;50;rightarrow;324;true;focus;yes;722397;Chrome;112.0;Windows;10;undefined;undefined;1920 x 1200;1920 x 1200
H041;32;Mannelijk;Rechts;4;34;left;yes;50;undefined;null;true;focus;yes;724426;Chrome;112.0;Windows;10;undefined;undefined;1920 x 1200;1920 x 1200
H041;32;Mannelijk;Rechts;4;35;right;no;100;rightarrow;327;true;focus;yes;725525;Chrome;112.0;Windows;10;undefined;undefined;1920 x 1200;1920 x 1200
H041;32;Mannelijk;Rechts;4;36;right;no;100;rightarrow;376;true;focus;yes;726664;Chrome;112.0;Windows;10;undefined;undefined;1920 x 1200;1920 x 1200
H041;32;Mannelijk;Rechts;4;37;left;no;100;leftarrow;398;true;focus;yes;727835;Chrome;112.0;Windows;10;undefined;undefined;1920 x 1200;1920 x 1200
H041;32;Mannelijk;Rechts;4;38;left;no;100;leftarrow;376;true;focus;yes;728966;Chrome;112.0;Windows;10;undefined;undefined;1920 x 1200;1920 x 1200
H041;32;Mannelijk;Rechts;4;39;left;no;100;leftarrow;374;true;focus;yes;730103;Chrome;112.0;Windows;10;undefined;undefined;1920 x 1200;1920 x 1200
H041;32;Mannelijk;Rechts;4;40;right;yes;100;rightarrow;340;false;focus;yes;731209;Chrome;112.0;Windows;10;undefined;undefined;1920 x 1200;1920 x 1200
H041;32;Mannelijk;Rechts;4;41;right;no;50;rightarrow;348;true;focus;yes;732331;Chrome;112.0;Windows;10;undefined;undefined;1920 x 1200;1920 x 1200
H041;32;Mannelijk;Rechts;4;42;left;no;50;leftarrow;445;true;focus;yes;733544;Chrome;112.0;Windows;10;undefined;undefined;1920 x 1200;1920 x 1200
H041;32;Mannelijk;Rechts;4;43;left;yes;50;undefined;null;true;focus;yes;735569;Chrome;112.0;Windows;10;undefined;undefined;1920 x 1200;1920 x 1200
H041;32;Mannelijk;Rechts;4;44;left;no;100;leftarrow;430;true;focus;yes;736768;Chrome;112.0;Windows;10;undefined;undefined;1920 x 1200;1920 x 1200
H041;32;Mannelijk;Rechts;4;45;right;yes;100;undefined;null;true;focus;yes;738802;Chrome;112.0;Windows;10;undefined;undefined;1920 x 1200;1920 x 1200
H041;32;Mannelijk;Rechts;4;46;right;no;150;rightarrow;358;true;focus;yes;739941;Chrome;112.0;Windows;10;undefined;undefined;1920 x 1200;1920 x 1200
H041;32;Mannelijk;Rechts;4;47;left;no;150;leftarrow;328;true;focus;yes;741040;Chrome;112.0;Windows;10;undefined;undefined;1920 x 1200;1920 x 1200
H041;32;Mannelijk;Rechts;4;48;right;no;150;rightarrow;338;true;focus;yes;742150;Chrome;112.0;Windows;10;undefined;undefined;1920 x 1200;1920 x 1200
H041;32;Mannelijk;Rechts;4;49;right;no;150;rightarrow;393;true;focus;yes;743306;Chrome;112.0;Windows;10;undefined;undefined;1920 x 1200;1920 x 1200
H041;32;Mannelijk;Rechts;4;50;right;yes;150;rightarrow;341;false;focus;yes;744418;Chrome;112.0;Windows;10;undefined;undefined;1920 x 1200;1920 x 1200
H041;32;Mannelijk;Rechts;4;51;left;no;100;leftarrow;334;true;focus;yes;745512;Chrome;112.0;Windows;10;undefined;undefined;1920 x 1200;1920 x 1200
H041;32;Mannelijk;Rechts;4;52;left;yes;100;undefined;null;true;focus;yes;747547;Chrome;112.0;Windows;10;undefined;undefined;1920 x 1200;1920 x 1200
H041;32;Mannelijk;Rechts;4;53;right;no;150;rightarrow;307;true;focus;yes;748629;Chrome;112.0;Windows;10;undefined;undefined;1920 x 1200;1920 x 1200
H041;32;Mannelijk;Rechts;4;54;left;no;150;leftarrow;282;true;focus;yes;749680;Chrome;112.0;Windows;10;undefined;undefined;1920 x 1200;1920 x 1200
H041;32;Mannelijk;Rechts;4;55;right;no;150;rightarrow;330;true;focus;yes;750775;Chrome;112.0;Windows;10;undefined;undefined;1920 x 1200;1920 x 1200
H041;32;Mannelijk;Rechts;4;56;left;no;150;leftarrow;264;true;focus;yes;751804;Chrome;112.0;Windows;10;undefined;undefined;1920 x 1200;1920 x 1200
H041;32;Mannelijk;Rechts;4;57;right;no;150;rightarrow;284;true;focus;yes;752846;Chrome;112.0;Windows;10;undefined;undefined;1920 x 1200;1920 x 1200
H041;32;Mannelijk;Rechts;4;58;right;no;150;rightarrow;390;true;focus;yes;754007;Chrome;112.0;Windows;10;undefined;undefined;1920 x 1200;1920 x 1200
H041;32;Mannelijk;Rechts;4;59;left;no;150;leftarrow;349;true;focus;yes;755123;Chrome;112.0;Windows;10;undefined;undefined;1920 x 1200;1920 x 1200
H041;32;Mannelijk;Rechts;4;60;left;no;150;leftarrow;384;true;focus;yes;756267;Chrome;112.0;Windows;10;undefined;undefined;1920 x 1200;1920 x 1200
H041;32;Mannelijk;Rechts;4;61;left;yes;150;leftarrow;334;false;focus;yes;757370;Chrome;112.0;Windows;10;undefined;undefined;1920 x 1200;1920 x 1200
H041;32;Mannelijk;Rechts;4;62;left;no;100;leftarrow;430;true;focus;yes;758576;Chrome;112.0;Windows;10;undefined;undefined;1920 x 1200;1920 x 1200
H041;32;Mannelijk;Rechts;4;63;right;no;100;rightarrow;362;true;focus;yes;759711;Chrome;112.0;Windows;10;undefined;undefined;1920 x 1200;1920 x 1200
H041;32;Mannelijk;Rechts;4;64;right;yes;100;rightarrow;350;false;focus;yes;760828;Chrome;112.0;Windows;10;undefined;undefined;1920 x 1200;1920 x 1200
H041;32;Mannelijk;Rechts;4;65;right;no;50;rightarrow;374;true;focus;yes;761969;Chrome;112.0;Windows;10;undefined;undefined;1920 x 1200;1920 x 1200
H041;32;Mannelijk;Rechts;4;66;right;no;50;rightarrow;306;true;focus;yes;763051;Chrome;112.0;Windows;10;undefined;undefined;1920 x 1200;1920 x 1200
H041;32;Mannelijk;Rechts;4;67;right;no;50;rightarrow;330;true;focus;yes;764145;Chrome;112.0;Windows;10;undefined;undefined;1920 x 1200;1920 x 1200
H041;32;Mannelijk;Rechts;4;68;left;no;50;leftarrow;355;true;focus;yes;765270;Chrome;112.0;Windows;10;undefined;undefined;1920 x 1200;1920 x 1200
H041;32;Mannelijk;Rechts;4;69;left;no;50;leftarrow;366;true;focus;yes;766406;Chrome;112.0;Windows;10;undefined;undefined;1920 x 1200;1920 x 1200
H041;32;Mannelijk;Rechts;4;70;left;yes;50;undefined;null;true;focus;yes;768437;Chrome;112.0;Windows;10;undefined;undefined;1920 x 1200;1920 x 1200
H041;32;Mannelijk;Rechts;4;71;right;yes;100;rightarrow;267;false;focus;yes;769475;Chrome;112.0;Windows;10;undefined;undefined;1920 x 1200;1920 x 1200
H041;32;Mannelijk;Rechts;4;72;left;no;50;leftarrow;350;true;focus;yes;770599;Chrome;112.0;Windows;10;undefined;undefined;1920 x 1200;1920 x 1200
H041;32;Mannelijk;Rechts;4;73;left;no;50;leftarrow;322;true;focus;yes;771685;Chrome;112.0;Windows;10;undefined;undefined;1920 x 1200;1920 x 1200
H041;32;Mannelijk;Rechts;4;74;left;yes;50;leftarrow;370;false;focus;yes;772825;Chrome;112.0;Windows;10;undefined;undefined;1920 x 1200;1920 x 1200
H041;32;Mannelijk;Rechts;4;75;right;no;50;rightarrow;301;true;focus;yes;773895;Chrome;112.0;Windows;10;undefined;undefined;1920 x 1200;1920 x 1200
H041;32;Mannelijk;Rechts;4;76;left;no;50;leftarrow;340;true;focus;yes;775001;Chrome;112.0;Windows;10;undefined;undefined;1920 x 1200;1920 x 1200
H041;32;Mannelijk;Rechts;4;77;right;no;50;rightarrow;349;true;focus;yes;776116;Chrome;112.0;Windows;10;undefined;undefined;1920 x 1200;1920 x 1200
H041;32;Mannelijk;Rechts;4;78;right;yes;50;undefined;null;true;focus;yes;778151;Chrome;112.0;Windows;10;undefined;undefined;1920 x 1200;1920 x 1200
H041;32;Mannelijk;Rechts;4;79;right;no;100;rightarrow;348;true;focus;yes;779270;Chrome;112.0;Windows;10;undefined;undefined;1920 x 1200;1920 x 1200
H041;32;Mannelijk;Rechts;4;80;left;no;100;leftarrow;424;true;focus;yes;780461;Chrome;112.0;Windows;10;undefined;undefined;1920 x 1200;1920 x 1200
H041;32;Mannelijk;Rechts;4;81;right;no;100;rightarrow;314;true;focus;yes;781546;Chrome;112.0;Windows;10;undefined;undefined;1920 x 1200;1920 x 1200
H041;32;Mannelijk;Rechts;4;82;left;no;100;leftarrow;330;true;focus;yes;782637;Chrome;112.0;Windows;10;undefined;undefined;1920 x 1200;1920 x 1200
H041;32;Mannelijk;Rechts;4;83;left;yes;100;rightarrow;304;false;focus;yes;783711;Chrome;112.0;Windows;10;undefined;undefined;1920 x 1200;1920 x 1200
H041;32;Mannelijk;Rechts;4;84;right;no;50;leftarrow;331;false;focus;yes;784818;Chrome;112.0;Windows;10;undefined;undefined;1920 x 1200;1920 x 1200
H041;32;Mannelijk;Rechts;4;85;left;no;50;leftarrow;369;true;focus;yes;785956;Chrome;112.0;Windows;10;undefined;undefined;1920 x 1200;1920 x 1200
H041;32;Mannelijk;Rechts;4;86;right;no;50;rightarrow;347;true;focus;yes;787074;Chrome;112.0;Windows;10;undefined;undefined;1920 x 1200;1920 x 1200
H041;32;Mannelijk;Rechts;4;87;left;no;50;leftarrow;266;true;focus;yes;788108;Chrome;112.0;Windows;10;undefined;undefined;1920 x 1200;1920 x 1200
H041;32;Mannelijk;Rechts;4;88;right;yes;50;undefined;null;true;focus;yes;790123;Chrome;112.0;Windows;10;undefined;undefined;1920 x 1200;1920 x 1200
H041;32;Mannelijk;Rechts;4;89;left;no;100;leftarrow;314;true;focus;yes;791199;Chrome;112.0;Windows;10;undefined;undefined;1920 x 1200;1920 x 1200
H041;32;Mannelijk;Rechts;4;90;right;no;100;rightarrow;272;true;focus;yes;792228;Chrome;112.0;Windows;10;undefined;undefined;1920 x 1200;1920 x 1200
H041;32;Mannelijk;Rechts;4;91;left;no;100;leftarrow;228;true;focus;yes;793220;Chrome;112.0;Windows;10;undefined;undefined;1920 x 1200;1920 x 1200
H041;32;Mannelijk;Rechts;4;92;right;yes;100;rightarrow;302;false;focus;yes;794283;Chrome;112.0;Windows;10;undefined;undefined;1920 x 1200;1920 x 1200
H041;32;Mannelijk;Rechts;4;93;right;no;50;rightarrow;497;true;focus;yes;795549;Chrome;112.0;Windows;10;undefined;undefined;1920 x 1200;1920 x 1200
H041;32;Mannelijk;Rechts;4;95;right;no;100;rightarrow;293;true;focus;yes;798621;Chrome;112.0;Windows;10;undefined;undefined;1920 x 1200;1920 x 1200
H041;32;Mannelijk;Rechts;4;98;left;yes;150;leftarrow;358;false;focus;yes;802881;Chrome;112.0;Windows;10;undefined;undefined;1920 x 1200;1920 x 1200
H041;32;Mannelijk;Rechts;4;96;left;no;100;leftarrow;357;true;focus;yes;799737;Chrome;112.0;Windows;10;undefined;undefined;1920 x 1200;1920 x 1200
H041;32;Mannelijk;Rechts;4;94;left;yes;50;undefined;null;true;focus;yes;797566;Chrome;112.0;Windows;10;undefined;undefined;1920 x 1200;1920 x 1200
H041;32;Mannelijk;Rechts;4;97;right;yes;100;undefined;null;true;focus;yes;801764;Chrome;112.0;Windows;10;undefined;undefined;1920 x 1200;1920 x 1200
H041;32;Mannelijk;Rechts;4;100;left;no;100;leftarrow;380;true;focus;yes;805122;Chrome;112.0;Windows;10;undefined;undefined;1920 x 1200;1920 x 1200
H041;32;Mannelijk;Rechts;4;101;left;no;100;leftarrow;461;true;focus;yes;806353;Chrome;112.0;Windows;10;undefined;undefined;1920 x 1200;1920 x 1200
H041;32;Mannelijk;Rechts;4;102;right;no;100;rightarrow;283;true;focus;yes;807407;Chrome;112.0;Windows;10;undefined;undefined;1920 x 1200;1920 x 1200
H041;32;Mannelijk;Rechts;4;103;left;no;100;leftarrow;308;true;focus;yes;808487;Chrome;112.0;Windows;10;undefined;undefined;1920 x 1200;1920 x 1200
H041;32;Mannelijk;Rechts;4;105;right;no;100;rightarrow;389;true;focus;yes;810728;Chrome;112.0;Windows;10;undefined;undefined;1920 x 1200;1920 x 1200
H041;32;Mannelijk;Rechts;4;104;right;no;100;rightarrow;316;true;focus;yes;809568;Chrome;112.0;Windows;10;undefined;undefined;1920 x 1200;1920 x 1200
H041;32;Mannelijk;Rechts;4;99;right;no;100;rightarrow;331;true;focus;yes;803970;Chrome;112.0;Windows;10;undefined;undefined;1920 x 1200;1920 x 1200
H041;32;Mannelijk;Rechts;4;106;right;yes;100;undefined;null;true;focus;yes;812741;Chrome;112.0;Windows;10;undefined;undefined;1920 x 1200;1920 x 1200
H041;32;Mannelijk;Rechts;4;107;left;no;150;leftarrow;349;true;focus;yes;813851;Chrome;112.0;Windows;10;undefined;undefined;1920 x 1200;1920 x 1200
H041;32;Mannelijk;Rechts;4;108;left;no;150;leftarrow;358;true;focus;yes;814979;Chrome;112.0;Windows;10;undefined;undefined;1920 x 1200;1920 x 1200
H041;32;Mannelijk;Rechts;4;109;right;no;150;rightarrow;340;true;focus;yes;816091;Chrome;112.0;Windows;10;undefined;undefined;1920 x 1200;1920 x 1200
H041;32;Mannelijk;Rechts;4;110;left;yes;150;leftarrow;321;false;focus;yes;817175;Chrome;112.0;Windows;10;undefined;undefined;1920 x 1200;1920 x 1200
H041;32;Mannelijk;Rechts;4;111;right;no;100;rightarrow;390;true;focus;yes;818331;Chrome;112.0;Windows;10;undefined;undefined;1920 x 1200;1920 x 1200
H041;32;Mannelijk;Rechts;4;112;left;no;100;leftarrow;332;true;focus;yes;819434;Chrome;112.0;Windows;10;undefined;undefined;1920 x 1200;1920 x 1200
H041;32;Mannelijk;Rechts;4;113;right;no;100;rightarrow;324;true;focus;yes;820521;Chrome;112.0;Windows;10;undefined;undefined;1920 x 1200;1920 x 1200
H041;32;Mannelijk;Rechts;4;114;left;no;100;leftarrow;343;true;focus;yes;821630;Chrome;112.0;Windows;10;undefined;undefined;1920 x 1200;1920 x 1200
H041;32;Mannelijk;Rechts;4;115;left;no;100;leftarrow;419;true;focus;yes;822817;Chrome;112.0;Windows;10;undefined;undefined;1920 x 1200;1920 x 1200
H041;32;Mannelijk;Rechts;4;116;right;no;100;rightarrow;311;true;focus;yes;823899;Chrome;112.0;Windows;10;undefined;undefined;1920 x 1200;1920 x 1200
H041;32;Mannelijk;Rechts;4;117;left;no;100;leftarrow;316;true;focus;yes;824994;Chrome;112.0;Windows;10;undefined;undefined;1920 x 1200;1920 x 1200
H041;32;Mannelijk;Rechts;4;118;left;yes;100;undefined;null;true;focus;yes;827027;Chrome;112.0;Windows;10;undefined;undefined;1920 x 1200;1920 x 1200
H041;32;Mannelijk;Rechts;4;119;right;no;150;rightarrow;365;true;focus;yes;828163;Chrome;112.0;Windows;10;undefined;undefined;1920 x 1200;1920 x 1200
H041;32;Mannelijk;Rechts;4;120;right;yes;150;undefined;null;true;focus;yes;830190;Chrome;112.0;Windows;10;undefined;undefined;1920 x 1200;1920 x 1200
H041;32;Mannelijk;Rechts;4;121;left;no;200;leftarrow;305;true;focus;yes;831257;Chrome;112.0;Windows;10;undefined;undefined;1920 x 1200;1920 x 1200
H041;32;Mannelijk;Rechts;4;122;left;yes;200;leftarrow;432;false;focus;yes;832455;Chrome;112.0;Windows;10;undefined;undefined;1920 x 1200;1920 x 1200
H041;32;Mannelijk;Rechts;4;123;left;no;150;leftarrow;393;true;focus;yes;833613;Chrome;112.0;Windows;10;undefined;undefined;1920 x 1200;1920 x 1200
H041;32;Mannelijk;Rechts;4;124;left;no;150;leftarrow;409;true;focus;yes;834792;Chrome;112.0;Windows;10;undefined;undefined;1920 x 1200;1920 x 1200
H041;32;Mannelijk;Rechts;4;125;right;no;150;rightarrow;363;true;focus;yes;835926;Chrome;112.0;Windows;10;undefined;undefined;1920 x 1200;1920 x 1200
H041;32;Mannelijk;Rechts;4;126;right;no;150;rightarrow;352;true;focus;yes;837048;Chrome;112.0;Windows;10;undefined;undefined;1920 x 1200;1920 x 1200
H041;32;Mannelijk;Rechts;4;127;right;yes;150;rightarrow;400;false;focus;yes;838215;Chrome;112.0;Windows;10;undefined;undefined;1920 x 1200;1920 x 1200
H041;32;Mannelijk;Rechts;4;128;right;no;100;rightarrow;402;true;focus;yes;839383;Chrome;112.0;Windows;10;undefined;undefined;1920 x 1200;1920 x 1200
H041;32;Mannelijk;Rechts;5;1;right;yes;100;rightarrow;418;false;focus;yes;862026;Chrome;112.0;Windows;10;undefined;undefined;1920 x 1200;1920 x 1200
H041;32;Mannelijk;Rechts;5;2;left;no;50;leftarrow;357;true;focus;yes;863155;Chrome;112.0;Windows;10;undefined;undefined;1920 x 1200;1920 x 1200
H041;32;Mannelijk;Rechts;5;3;left;yes;50;undefined;null;true;focus;yes;865182;Chrome;112.0;Windows;10;undefined;undefined;1920 x 1200;1920 x 1200
H041;32;Mannelijk;Rechts;5;4;right;no;100;rightarrow;307;true;focus;yes;866270;Chrome;112.0;Windows;10;undefined;undefined;1920 x 1200;1920 x 1200
H041;32;Mannelijk;Rechts;5;5;right;no;100;rightarrow;315;true;focus;yes;867364;Chrome;112.0;Windows;10;undefined;undefined;1920 x 1200;1920 x 1200
H041;32;Mannelijk;Rechts;5;6;right;no;100;rightarrow;311;true;focus;yes;868450;Chrome;112.0;Windows;10;undefined;undefined;1920 x 1200;1920 x 1200
H041;32;Mannelijk;Rechts;5;7;left;no;100;leftarrow;340;true;focus;yes;869545;Chrome;112.0;Windows;10;undefined;undefined;1920 x 1200;1920 x 1200
H041;32;Mannelijk;Rechts;5;8;left;no;100;leftarrow;356;true;focus;yes;870670;Chrome;112.0;Windows;10;undefined;undefined;1920 x 1200;1920 x 1200
H041;32;Mannelijk;Rechts;5;9;right;no;100;rightarrow;317;true;focus;yes;871741;Chrome;112.0;Windows;10;undefined;undefined;1920 x 1200;1920 x 1200
H041;32;Mannelijk;Rechts;5;10;left;no;100;leftarrow;290;true;focus;yes;872794;Chrome;112.0;Windows;10;undefined;undefined;1920 x 1200;1920 x 1200
H041;32;Mannelijk;Rechts;5;11;right;no;100;rightarrow;293;true;focus;yes;873849;Chrome;112.0;Windows;10;undefined;undefined;1920 x 1200;1920 x 1200
H041;32;Mannelijk;Rechts;5;12;left;yes;100;leftarrow;309;false;focus;yes;874921;Chrome;112.0;Windows;10;undefined;undefined;1920 x 1200;1920 x 1200
H041;32;Mannelijk;Rechts;5;13;left;no;50;leftarrow;395;true;focus;yes;876086;Chrome;112.0;Windows;10;undefined;undefined;1920 x 1200;1920 x 1200
H041;32;Mannelijk;Rechts;5;14;left;no;50;leftarrow;382;true;focus;yes;877234;Chrome;112.0;Windows;10;undefined;undefined;1920 x 1200;1920 x 1200
H041;32;Mannelijk;Rechts;5;15;right;no;50;rightarrow;331;true;focus;yes;878341;Chrome;112.0;Windows;10;undefined;undefined;1920 x 1200;1920 x 1200
H041;32;Mannelijk;Rechts;5;16;right;yes;50;undefined;null;true;focus;yes;880361;Chrome;112.0;Windows;10;undefined;undefined;1920 x 1200;1920 x 1200
H041;32;Mannelijk;Rechts;5;17;right;no;100;rightarrow;378;true;focus;yes;881501;Chrome;112.0;Windows;10;undefined;undefined;1920 x 1200;1920 x 1200
H041;32;Mannelijk;Rechts;5;18;left;no;100;leftarrow;352;true;focus;yes;882608;Chrome;112.0;Windows;10;undefined;undefined;1920 x 1200;1920 x 1200
H041;32;Mannelijk;Rechts;5;19;left;no;100;leftarrow;387;true;focus;yes;883772;Chrome;112.0;Windows;10;undefined;undefined;1920 x 1200;1920 x 1200
H041;32;Mannelijk;Rechts;5;20;right;no;100;rightarrow;358;true;focus;yes;884896;Chrome;112.0;Windows;10;undefined;undefined;1920 x 1200;1920 x 1200
H041;32;Mannelijk;Rechts;5;21;left;yes;100;leftarrow;331;false;focus;yes;886001;Chrome;112.0;Windows;10;undefined;undefined;1920 x 1200;1920 x 1200
H041;32;Mannelijk;Rechts;5;22;left;no;50;leftarrow;384;true;focus;yes;887144;Chrome;112.0;Windows;10;undefined;undefined;1920 x 1200;1920 x 1200
H041;32;Mannelijk;Rechts;5;23;right;no;50;rightarrow;321;true;focus;yes;888233;Chrome;112.0;Windows;10;undefined;undefined;1920 x 1200;1920 x 1200
H041;32;Mannelijk;Rechts;5;24;right;yes;50;undefined;null;true;focus;yes;890241;Chrome;112.0;Windows;10;undefined;undefined;1920 x 1200;1920 x 1200
H041;32;Mannelijk;Rechts;5;25;right;no;100;rightarrow;425;true;focus;yes;891434;Chrome;112.0;Windows;10;undefined;undefined;1920 x 1200;1920 x 1200
H041;32;Mannelijk;Rechts;5;26;right;no;100;rightarrow;335;true;focus;yes;892549;Chrome;112.0;Windows;10;undefined;undefined;1920 x 1200;1920 x 1200
H041;32;Mannelijk;Rechts;5;27;right;no;100;rightarrow;359;true;focus;yes;893665;Chrome;112.0;Windows;10;undefined;undefined;1920 x 1200;1920 x 1200
H041;32;Mannelijk;Rechts;5;28;left;no;100;leftarrow;364;true;focus;yes;894802;Chrome;112.0;Windows;10;undefined;undefined;1920 x 1200;1920 x 1200
H041;32;Mannelijk;Rechts;5;29;left;no;100;leftarrow;428;true;focus;yes;895992;Chrome;112.0;Windows;10;undefined;undefined;1920 x 1200;1920 x 1200
H041;32;Mannelijk;Rechts;5;30;left;yes;100;undefined;null;true;focus;yes;898027;Chrome;112.0;Windows;10;undefined;undefined;1920 x 1200;1920 x 1200
H041;32;Mannelijk;Rechts;5;31;left;no;150;leftarrow;354;true;focus;yes;899147;Chrome;112.0;Windows;10;undefined;undefined;1920 x 1200;1920 x 1200
H041;32;Mannelijk;Rechts;5;32;right;yes;150;rightarrow;353;false;focus;yes;900272;Chrome;112.0;Windows;10;undefined;undefined;1920 x 1200;1920 x 1200
H041;32;Mannelijk;Rechts;5;33;left;yes;100;leftarrow;363;false;focus;yes;901401;Chrome;112.0;Windows;10;undefined;undefined;1920 x 1200;1920 x 1200
H041;32;Mannelijk;Rechts;5;34;right;no;50;rightarrow;359;true;focus;yes;902527;Chrome;112.0;Windows;10;undefined;undefined;1920 x 1200;1920 x 1200
H041;32;Mannelijk;Rechts;5;35;left;no;50;leftarrow;299;true;focus;yes;903597;Chrome;112.0;Windows;10;undefined;undefined;1920 x 1200;1920 x 1200
H041;32;Mannelijk;Rechts;5;36;left;no;50;leftarrow;401;true;focus;yes;904759;Chrome;112.0;Windows;10;undefined;undefined;1920 x 1200;1920 x 1200
H041;32;Mannelijk;Rechts;5;37;right;yes;50;rightarrow;322;false;focus;yes;905850;Chrome;112.0;Windows;10;undefined;undefined;1920 x 1200;1920 x 1200
H041;32;Mannelijk;Rechts;5;38;right;no;50;rightarrow;577;true;focus;yes;907197;Chrome;112.0;Windows;10;undefined;undefined;1920 x 1200;1920 x 1200
H041;32;Mannelijk;Rechts;5;39;right;no;50;rightarrow;393;true;focus;yes;908356;Chrome;112.0;Windows;10;undefined;undefined;1920 x 1200;1920 x 1200
H041;32;Mannelijk;Rechts;5;40;left;no;50;leftarrow;364;true;focus;yes;909476;Chrome;112.0;Windows;10;undefined;undefined;1920 x 1200;1920 x 1200
H041;32;Mannelijk;Rechts;5;41;right;no;50;rightarrow;361;true;focus;yes;910611;Chrome;112.0;Windows;10;undefined;undefined;1920 x 1200;1920 x 1200
H041;32;Mannelijk;Rechts;5;42;left;no;50;leftarrow;379;true;focus;yes;911757;Chrome;112.0;Windows;10;undefined;undefined;1920 x 1200;1920 x 1200
H041;32;Mannelijk;Rechts;5;43;right;yes;50;undefined;null;true;focus;yes;913779;Chrome;112.0;Windows;10;undefined;undefined;1920 x 1200;1920 x 1200
H041;32;Mannelijk;Rechts;5;44;right;no;100;rightarrow;382;true;focus;yes;914920;Chrome;112.0;Windows;10;undefined;undefined;1920 x 1200;1920 x 1200
H041;32;Mannelijk;Rechts;5;45;left;no;100;rightarrow;373;false;focus;yes;916066;Chrome;112.0;Windows;10;undefined;undefined;1920 x 1200;1920 x 1200
H041;32;Mannelijk;Rechts;5;46;left;yes;100;undefined;null;true;focus;yes;918092;Chrome;112.0;Windows;10;undefined;undefined;1920 x 1200;1920 x 1200
H041;32;Mannelijk;Rechts;5;47;left;no;150;leftarrow;414;true;focus;yes;919265;Chrome;112.0;Windows;10;undefined;undefined;1920 x 1200;1920 x 1200
H041;32;Mannelijk;Rechts;5;48;right;no;150;rightarrow;296;true;focus;yes;920328;Chrome;112.0;Windows;10;undefined;undefined;1920 x 1200;1920 x 1200
H041;32;Mannelijk;Rechts;5;49;right;no;150;rightarrow;371;true;focus;yes;921463;Chrome;112.0;Windows;10;undefined;undefined;1920 x 1200;1920 x 1200
H041;32;Mannelijk;Rechts;5;50;left;yes;150;leftarrow;337;false;focus;yes;922577;Chrome;112.0;Windows;10;undefined;undefined;1920 x 1200;1920 x 1200
H041;32;Mannelijk;Rechts;5;51;right;no;100;rightarrow;422;true;focus;yes;923772;Chrome;112.0;Windows;10;undefined;undefined;1920 x 1200;1920 x 1200
H041;32;Mannelijk;Rechts;5;52;right;yes;100;rightarrow;391;false;focus;yes;924929;Chrome;112.0;Windows;10;undefined;undefined;1920 x 1200;1920 x 1200
H041;32;Mannelijk;Rechts;5;53;left;no;50;leftarrow;375;true;focus;yes;926068;Chrome;112.0;Windows;10;undefined;undefined;1920 x 1200;1920 x 1200
H041;32;Mannelijk;Rechts;5;54;left;no;50;leftarrow;407;true;focus;yes;927237;Chrome;112.0;Windows;10;undefined;undefined;1920 x 1200;1920 x 1200
H041;32;Mannelijk;Rechts;5;55;left;no;50;leftarrow;402;true;focus;yes;928410;Chrome;112.0;Windows;10;undefined;undefined;1920 x 1200;1920 x 1200
H041;32;Mannelijk;Rechts;5;56;right;no;50;rightarrow;417;true;focus;yes;929595;Chrome;112.0;Windows;10;undefined;undefined;1920 x 1200;1920 x 1200
H041;32;Mannelijk;Rechts;5;57;left;no;50;leftarrow;363;true;focus;yes;930726;Chrome;112.0;Windows;10;undefined;undefined;1920 x 1200;1920 x 1200
H041;32;Mannelijk;Rechts;5;58;left;yes;50;undefined;null;true;focus;yes;932743;Chrome;112.0;Windows;10;undefined;undefined;1920 x 1200;1920 x 1200
H041;32;Mannelijk;Rechts;5;59;right;yes;100;rightarrow;281;false;focus;yes;933781;Chrome;112.0;Windows;10;undefined;undefined;1920 x 1200;1920 x 1200
H041;32;Mannelijk;Rechts;5;60;right;no;50;rightarrow;427;true;focus;yes;934977;Chrome;112.0;Windows;10;undefined;undefined;1920 x 1200;1920 x 1200
H041;32;Mannelijk;Rechts;5;61;right;no;50;rightarrow;362;true;focus;yes;936110;Chrome;112.0;Windows;10;undefined;undefined;1920 x 1200;1920 x 1200
H041;32;Mannelijk;Rechts;5;62;right;no;50;rightarrow;335;true;focus;yes;937215;Chrome;112.0;Windows;10;undefined;undefined;1920 x 1200;1920 x 1200
H041;32;Mannelijk;Rechts;5;63;left;no;50;leftarrow;346;true;focus;yes;938331;Chrome;112.0;Windows;10;undefined;undefined;1920 x 1200;1920 x 1200
H041;32;Mannelijk;Rechts;5;64;left;no;50;leftarrow;421;true;focus;yes;939519;Chrome;112.0;Windows;10;undefined;undefined;1920 x 1200;1920 x 1200
H041;32;Mannelijk;Rechts;5;65;left;yes;50;undefined;null;true;focus;yes;941547;Chrome;112.0;Windows;10;undefined;undefined;1920 x 1200;1920 x 1200
H041;32;Mannelijk;Rechts;5;66;right;no;100;rightarrow;372;true;focus;yes;942700;Chrome;112.0;Windows;10;undefined;undefined;1920 x 1200;1920 x 1200
H041;32;Mannelijk;Rechts;5;67;left;no;100;leftarrow;365;true;focus;yes;943843;Chrome;112.0;Windows;10;undefined;undefined;1920 x 1200;1920 x 1200
H041;32;Mannelijk;Rechts;5;68;right;no;100;rightarrow;384;true;focus;yes;945012;Chrome;112.0;Windows;10;undefined;undefined;1920 x 1200;1920 x 1200
H041;32;Mannelijk;Rechts;5;69;right;no;100;rightarrow;385;true;focus;yes;946178;Chrome;112.0;Windows;10;undefined;undefined;1920 x 1200;1920 x 1200
H041;32;Mannelijk;Rechts;5;70;left;no;100;leftarrow;397;true;focus;yes;947345;Chrome;112.0;Windows;10;undefined;undefined;1920 x 1200;1920 x 1200
H041;32;Mannelijk;Rechts;5;71;right;yes;100;rightarrow;318;false;focus;yes;948436;Chrome;112.0;Windows;10;undefined;undefined;1920 x 1200;1920 x 1200
H041;32;Mannelijk;Rechts;5;72;left;no;50;leftarrow;339;true;focus;yes;949544;Chrome;112.0;Windows;10;undefined;undefined;1920 x 1200;1920 x 1200
H041;32;Mannelijk;Rechts;5;73;left;yes;50;undefined;null;true;focus;yes;951565;Chrome;112.0;Windows;10;undefined;undefined;1920 x 1200;1920 x 1200
H041;32;Mannelijk;Rechts;5;74;right;no;100;rightarrow;379;true;focus;yes;952699;Chrome;112.0;Windows;10;undefined;undefined;1920 x 1200;1920 x 1200
H041;32;Mannelijk;Rechts;5;75;right;no;100;rightarrow;453;true;focus;yes;953931;Chrome;112.0;Windows;10;undefined;undefined;1920 x 1200;1920 x 1200
H041;32;Mannelijk;Rechts;5;76;right;no;100;rightarrow;403;true;focus;yes;955091;Chrome;112.0;Windows;10;undefined;undefined;1920 x 1200;1920 x 1200
H041;32;Mannelijk;Rechts;5;77;left;no;100;leftarrow;432;true;focus;yes;956289;Chrome;112.0;Windows;10;undefined;undefined;1920 x 1200;1920 x 1200
H041;32;Mannelijk;Rechts;5;78;left;no;100;leftarrow;451;true;focus;yes;957501;Chrome;112.0;Windows;10;undefined;undefined;1920 x 1200;1920 x 1200
H041;32;Mannelijk;Rechts;5;79;left;no;100;leftarrow;415;true;focus;yes;958680;Chrome;112.0;Windows;10;undefined;undefined;1920 x 1200;1920 x 1200
H041;32;Mannelijk;Rechts;5;80;right;yes;100;undefined;null;true;focus;yes;960703;Chrome;112.0;Windows;10;undefined;undefined;1920 x 1200;1920 x 1200
H041;32;Mannelijk;Rechts;5;81;right;no;150;rightarrow;390;true;focus;yes;961862;Chrome;112.0;Windows;10;undefined;undefined;1920 x 1200;1920 x 1200
H041;32;Mannelijk;Rechts;5;82;right;no;150;rightarrow;333;true;focus;yes;962961;Chrome;112.0;Windows;10;undefined;undefined;1920 x 1200;1920 x 1200
H041;32;Mannelijk;Rechts;5;83;right;no;150;rightarrow;427;true;focus;yes;964155;Chrome;112.0;Windows;10;undefined;undefined;1920 x 1200;1920 x 1200
H041;32;Mannelijk;Rechts;5;84;left;no;150;leftarrow;466;true;focus;yes;965403;Chrome;112.0;Windows;10;undefined;undefined;1920 x 1200;1920 x 1200
H041;32;Mannelijk;Rechts;5;85;right;yes;150;rightarrow;378;false;focus;yes;966548;Chrome;112.0;Windows;10;undefined;undefined;1920 x 1200;1920 x 1200
H041;32;Mannelijk;Rechts;5;86;left;yes;100;leftarrow;341;false;focus;yes;967643;Chrome;112.0;Windows;10;undefined;undefined;1920 x 1200;1920 x 1200
H041;32;Mannelijk;Rechts;5;87;left;no;50;leftarrow;409;true;focus;yes;968822;Chrome;112.0;Windows;10;undefined;undefined;1920 x 1200;1920 x 1200
H041;32;Mannelijk;Rechts;5;88;left;no;50;leftarrow;398;true;focus;yes;969993;Chrome;112.0;Windows;10;undefined;undefined;1920 x 1200;1920 x 1200
H041;32;Mannelijk;Rechts;5;89;right;no;50;rightarrow;480;true;focus;yes;971239;Chrome;112.0;Windows;10;undefined;undefined;1920 x 1200;1920 x 1200
H041;32;Mannelijk;Rechts;5;90;right;yes;50;undefined;null;true;focus;yes;973263;Chrome;112.0;Windows;10;undefined;undefined;1920 x 1200;1920 x 1200
H041;32;Mannelijk;Rechts;5;91;left;no;100;leftarrow;378;true;focus;yes;974420;Chrome;112.0;Windows;10;undefined;undefined;1920 x 1200;1920 x 1200
H041;32;Mannelijk;Rechts;5;92;left;yes;100;undefined;null;true;focus;yes;976441;Chrome;112.0;Windows;10;undefined;undefined;1920 x 1200;1920 x 1200
H041;32;Mannelijk;Rechts;5;93;right;no;150;rightarrow;342;true;focus;yes;977542;Chrome;112.0;Windows;10;undefined;undefined;1920 x 1200;1920 x 1200
H041;32;Mannelijk;Rechts;5;94;right;no;150;rightarrow;505;true;focus;yes;978809;Chrome;112.0;Windows;10;undefined;undefined;1920 x 1200;1920 x 1200
H041;32;Mannelijk;Rechts;5;95;left;no;150;leftarrow;490;true;focus;yes;980083;Chrome;112.0;Windows;10;undefined;undefined;1920 x 1200;1920 x 1200
H041;32;Mannelijk;Rechts;5;96;left;no;150;leftarrow;379;true;focus;yes;981237;Chrome;112.0;Windows;10;undefined;undefined;1920 x 1200;1920 x 1200
H041;32;Mannelijk;Rechts;5;97;right;no;150;rightarrow;411;true;focus;yes;982419;Chrome;112.0;Windows;10;undefined;undefined;1920 x 1200;1920 x 1200
H041;32;Mannelijk;Rechts;5;98;left;no;150;rightarrow;758;false;focus;yes;983937;Chrome;112.0;Windows;10;undefined;undefined;1920 x 1200;1920 x 1200
H041;32;Mannelijk;Rechts;5;99;right;no;150;rightarrow;355;true;focus;yes;985062;Chrome;112.0;Windows;10;undefined;undefined;1920 x 1200;1920 x 1200
H041;32;Mannelijk;Rechts;5;100;right;yes;150;rightarrow;366;false;focus;yes;986199;Chrome;112.0;Windows;10;undefined;undefined;1920 x 1200;1920 x 1200
H041;32;Mannelijk;Rechts;5;101;left;no;100;leftarrow;379;true;focus;yes;987357;Chrome;112.0;Windows;10;undefined;undefined;1920 x 1200;1920 x 1200
H041;32;Mannelijk;Rechts;5;102;left;yes;100;leftarrow;352;false;focus;yes;988496;Chrome;112.0;Windows;10;undefined;undefined;1920 x 1200;1920 x 1200
H041;32;Mannelijk;Rechts;5;103;right;no;50;rightarrow;308;true;focus;yes;989570;Chrome;112.0;Windows;10;undefined;undefined;1920 x 1200;1920 x 1200
H041;32;Mannelijk;Rechts;5;104;left;no;50;leftarrow;398;true;focus;yes;990729;Chrome;112.0;Windows;10;undefined;undefined;1920 x 1200;1920 x 1200
H041;32;Mannelijk;Rechts;5;105;left;no;50;leftarrow;383;true;focus;yes;991880;Chrome;112.0;Windows;10;undefined;undefined;1920 x 1200;1920 x 1200
H041;32;Mannelijk;Rechts;5;106;right;no;50;rightarrow;341;true;focus;yes;992990;Chrome;112.0;Windows;10;undefined;undefined;1920 x 1200;1920 x 1200
H041;32;Mannelijk;Rechts;5;107;right;no;50;rightarrow;455;true;focus;yes;994207;Chrome;112.0;Windows;10;undefined;undefined;1920 x 1200;1920 x 1200
H041;32;Mannelijk;Rechts;5;108;right;no;50;rightarrow;348;true;focus;yes;995312;Chrome;112.0;Windows;10;undefined;undefined;1920 x 1200;1920 x 1200
H041;32;Mannelijk;Rechts;5;109;left;no;50;leftarrow;388;true;focus;yes;996470;Chrome;112.0;Windows;10;undefined;undefined;1920 x 1200;1920 x 1200
H041;32;Mannelijk;Rechts;5;110;left;yes;50;undefined;null;true;focus;yes;998498;Chrome;112.0;Windows;10;undefined;undefined;1920 x 1200;1920 x 1200
H041;32;Mannelijk;Rechts;5;111;left;no;100;leftarrow;388;true;focus;yes;999648;Chrome;112.0;Windows;10;undefined;undefined;1920 x 1200;1920 x 1200
H041;32;Mannelijk;Rechts;5;112;right;yes;100;undefined;null;true;focus;yes;1001665;Chrome;112.0;Windows;10;undefined;undefined;1920 x 1200;1920 x 1200
H041;32;Mannelijk;Rechts;5;113;left;no;150;leftarrow;371;true;focus;yes;1002797;Chrome;112.0;Windows;10;undefined;undefined;1920 x 1200;1920 x 1200
H041;32;Mannelijk;Rechts;5;114;right;no;150;rightarrow;607;true;focus;yes;1004167;Chrome;112.0;Windows;10;undefined;undefined;1920 x 1200;1920 x 1200
H041;32;Mannelijk;Rechts;5;115;left;yes;150;leftarrow;370;false;focus;yes;1005304;Chrome;112.0;Windows;10;undefined;undefined;1920 x 1200;1920 x 1200
H041;32;Mannelijk;Rechts;5;116;right;no;100;rightarrow;389;true;focus;yes;1006459;Chrome;112.0;Windows;10;undefined;undefined;1920 x 1200;1920 x 1200
H041;32;Mannelijk;Rechts;5;117;left;no;100;leftarrow;440;true;focus;yes;1007659;Chrome;112.0;Windows;10;undefined;undefined;1920 x 1200;1920 x 1200
H041;32;Mannelijk;Rechts;5;118;right;yes;100;undefined;null;true;focus;yes;1009696;Chrome;112.0;Windows;10;undefined;undefined;1920 x 1200;1920 x 1200
H041;32;Mannelijk;Rechts;5;119;right;no;150;rightarrow;393;true;focus;yes;1010852;Chrome;112.0;Windows;10;undefined;undefined;1920 x 1200;1920 x 1200
H041;32;Mannelijk;Rechts;5;120;left;no;150;leftarrow;436;true;focus;yes;1012059;Chrome;112.0;Windows;10;undefined;undefined;1920 x 1200;1920 x 1200
H041;32;Mannelijk;Rechts;5;121;left;no;150;leftarrow;380;true;focus;yes;1013200;Chrome;112.0;Windows;10;undefined;undefined;1920 x 1200;1920 x 1200
H041;32;Mannelijk;Rechts;5;122;right;no;150;rightarrow;339;true;focus;yes;1014310;Chrome;112.0;Windows;10;undefined;undefined;1920 x 1200;1920 x 1200
H041;32;Mannelijk;Rechts;5;123;left;no;150;leftarrow;430;true;focus;yes;1015502;Chrome;112.0;Windows;10;undefined;undefined;1920 x 1200;1920 x 1200
H041;32;Mannelijk;Rechts;5;124;left;no;150;leftarrow;392;true;focus;yes;1016664;Chrome;112.0;Windows;10;undefined;undefined;1920 x 1200;1920 x 1200
H041;32;Mannelijk;Rechts;5;125;right;no;150;rightarrow;364;true;focus;yes;1017788;Chrome;112.0;Windows;10;undefined;undefined;1920 x 1200;1920 x 1200
H041;32;Mannelijk;Rechts;5;126;right;yes;150;rightarrow;402;false;focus;yes;1018951;Chrome;112.0;Windows;10;undefined;undefined;1920 x 1200;1920 x 1200
H041;32;Mannelijk;Rechts;5;127;left;yes;100;leftarrow;373;false;focus;yes;1020096;Chrome;112.0;Windows;10;undefined;undefined;1920 x 1200;1920 x 1200
H041;32;Mannelijk;Rechts;5;128;right;no;50;rightarrow;448;true;focus;yes;1021311;Chrome;112.0;Windows;10;undefined;undefined;1920 x 1200;1920 x 1200
H041;32;Mannelijk;Rechts;6;1;left;no;50;leftarrow;428;true;focus;yes;1041862;Chrome;112.0;Windows;10;undefined;undefined;1920 x 1200;1920 x 1200
H041;32;Mannelijk;Rechts;6;2;right;no;50;rightarrow;277;true;focus;yes;1042912;Chrome;112.0;Windows;10;undefined;undefined;1920 x 1200;1920 x 1200
H041;32;Mannelijk;Rechts;6;3;left;no;50;leftarrow;325;true;focus;yes;1043999;Chrome;112.0;Windows;10;undefined;undefined;1920 x 1200;1920 x 1200
H041;32;Mannelijk;Rechts;6;4;left;yes;50;undefined;null;true;focus;yes;1046017;Chrome;112.0;Windows;10;undefined;undefined;1920 x 1200;1920 x 1200
H041;32;Mannelijk;Rechts;6;5;right;no;100;rightarrow;329;true;focus;yes;1047111;Chrome;112.0;Windows;10;undefined;undefined;1920 x 1200;1920 x 1200
H041;32;Mannelijk;Rechts;6;6;right;yes;100;rightarrow;382;false;focus;yes;1048260;Chrome;112.0;Windows;10;undefined;undefined;1920 x 1200;1920 x 1200
H041;32;Mannelijk;Rechts;6;7;right;no;50;rightarrow;378;true;focus;yes;1049412;Chrome;112.0;Windows;10;undefined;undefined;1920 x 1200;1920 x 1200
H041;32;Mannelijk;Rechts;6;8;left;no;50;leftarrow;352;true;focus;yes;1050537;Chrome;112.0;Windows;10;undefined;undefined;1920 x 1200;1920 x 1200
H041;32;Mannelijk;Rechts;6;9;left;no;50;leftarrow;373;true;focus;yes;1051669;Chrome;112.0;Windows;10;undefined;undefined;1920 x 1200;1920 x 1200
H041;32;Mannelijk;Rechts;6;10;left;no;50;leftarrow;337;true;focus;yes;1052775;Chrome;112.0;Windows;10;undefined;undefined;1920 x 1200;1920 x 1200
H041;32;Mannelijk;Rechts;6;11;right;yes;50;rightarrow;293;false;focus;yes;1053844;Chrome;112.0;Windows;10;undefined;undefined;1920 x 1200;1920 x 1200
H041;32;Mannelijk;Rechts;6;12;left;yes;50;leftarrow;342;false;focus;yes;1054947;Chrome;112.0;Windows;10;undefined;undefined;1920 x 1200;1920 x 1200
H041;32;Mannelijk;Rechts;6;13;left;no;50;leftarrow;376;true;focus;yes;1056081;Chrome;112.0;Windows;10;undefined;undefined;1920 x 1200;1920 x 1200
H041;32;Mannelijk;Rechts;6;14;right;no;50;rightarrow;345;true;focus;yes;1057191;Chrome;112.0;Windows;10;undefined;undefined;1920 x 1200;1920 x 1200
H041;32;Mannelijk;Rechts;6;15;right;no;50;rightarrow;353;true;focus;yes;1058311;Chrome;112.0;Windows;10;undefined;undefined;1920 x 1200;1920 x 1200
H041;32;Mannelijk;Rechts;6;16;right;no;50;rightarrow;376;true;focus;yes;1059469;Chrome;112.0;Windows;10;undefined;undefined;1920 x 1200;1920 x 1200
H041;32;Mannelijk;Rechts;6;17;right;no;50;rightarrow;323;true;focus;yes;1060566;Chrome;112.0;Windows;10;undefined;undefined;1920 x 1200;1920 x 1200
H041;32;Mannelijk;Rechts;6;18;right;no;50;rightarrow;368;true;focus;yes;1061711;Chrome;112.0;Windows;10;undefined;undefined;1920 x 1200;1920 x 1200
H041;32;Mannelijk;Rechts;6;19;right;yes;50;undefined;null;true;focus;yes;1063747;Chrome;112.0;Windows;10;undefined;undefined;1920 x 1200;1920 x 1200
H041;32;Mannelijk;Rechts;6;20;left;no;100;leftarrow;300;true;focus;yes;1064828;Chrome;112.0;Windows;10;undefined;undefined;1920 x 1200;1920 x 1200
H041;32;Mannelijk;Rechts;6;21;right;no;100;rightarrow;350;true;focus;yes;1065963;Chrome;112.0;Windows;10;undefined;undefined;1920 x 1200;1920 x 1200
H041;32;Mannelijk;Rechts;6;22;left;no;100;leftarrow;432;true;focus;yes;1067165;Chrome;112.0;Windows;10;undefined;undefined;1920 x 1200;1920 x 1200
H041;32;Mannelijk;Rechts;6;23;left;no;100;leftarrow;360;true;focus;yes;1068308;Chrome;112.0;Windows;10;undefined;undefined;1920 x 1200;1920 x 1200
H041;32;Mannelijk;Rechts;6;24;left;yes;100;rightarrow;285;false;focus;yes;1069365;Chrome;112.0;Windows;10;undefined;undefined;1920 x 1200;1920 x 1200
H041;32;Mannelijk;Rechts;6;25;right;no;50;rightarrow;374;true;focus;yes;1070507;Chrome;112.0;Windows;10;undefined;undefined;1920 x 1200;1920 x 1200
