participantID;age;gender;handedness;block_i;trial_i;stim;signal;SSD;response;rt;correct;focus;Fullscreen;time_elapsed;browser_name;browser_version;os_name;os_version;tablet;mobile;screen_resolution;window_resolution
H017;19;Vrouwelijk;Rechts;0;1;right;yes;200;rightarrow;315;false;focus;yes;176520;Chrome;112.0;macOS;10.15.7;undefined;undefined;1440 x 900;1440 x 900
H017;19;Vrouwelijk;Rechts;0;2;right;no;150;rightarrow;400;true;focus;yes;178443;Chrome;112.0;macOS;10.15.7;undefined;undefined;1440 x 900;1440 x 900
H017;19;Vrouwelijk;Rechts;0;3;left;no;150;leftarrow;488;true;focus;yes;180467;Chrome;112.0;macOS;10.15.7;undefined;undefined;1440 x 900;1440 x 900
H017;19;Vrouwelijk;Rechts;0;4;left;no;150;leftarrow;437;true;focus;yes;182437;Chrome;112.0;macOS;10.15.7;undefined;undefined;1440 x 900;1440 x 900
H017;19;Vrouwelijk;Rechts;0;5;left;yes;150;leftarrow;441;false;focus;yes;184404;Chrome;112.0;macOS;10.15.7;undefined;undefined;1440 x 900;1440 x 900
H017;19;Vrouwelijk;Rechts;0;6;left;no;100;leftarrow;459;true;focus;yes;186388;Chrome;112.0;macOS;10.15.7;undefined;undefined;1440 x 900;1440 x 900
H017;19;Vrouwelijk;Rechts;0;7;right;no;100;rightarrow;434;true;focus;yes;188345;Chrome;112.0;macOS;10.15.7;undefined;undefined;1440 x 900;1440 x 900
H017;19;Vrouwelijk;Rechts;0;8;right;no;100;rightarrow;415;true;focus;yes;190291;Chrome;112.0;macOS;10.15.7;undefined;undefined;1440 x 900;1440 x 900
H017;19;Vrouwelijk;Rechts;1;1;right;no;100;rightarrow;395;true;focus;yes;210398;Chrome;112.0;macOS;10.15.7;undefined;undefined;1440 x 900;1440 x 900
H017;19;Vrouwelijk;Rechts;1;2;right;no;100;rightarrow;386;true;focus;yes;211541;Chrome;112.0;macOS;10.15.7;undefined;undefined;1440 x 900;1440 x 900
H017;19;Vrouwelijk;Rechts;1;3;left;yes;100;undefined;null;true;focus;yes;213560;Chrome;112.0;macOS;10.15.7;undefined;undefined;1440 x 900;1440 x 900
H017;19;Vrouwelijk;Rechts;1;4;right;yes;150;rightarrow;403;false;focus;yes;214732;Chrome;112.0;macOS;10.15.7;undefined;undefined;1440 x 900;1440 x 900
H017;19;Vrouwelijk;Rechts;1;5;left;no;100;leftarrow;383;true;focus;yes;215878;Chrome;112.0;macOS;10.15.7;undefined;undefined;1440 x 900;1440 x 900
H017;19;Vrouwelijk;Rechts;1;6;left;no;100;leftarrow;448;true;focus;yes;217083;Chrome;112.0;macOS;10.15.7;undefined;undefined;1440 x 900;1440 x 900
H017;19;Vrouwelijk;Rechts;1;7;left;no;100;leftarrow;404;true;focus;yes;218251;Chrome;112.0;macOS;10.15.7;undefined;undefined;1440 x 900;1440 x 900
H017;19;Vrouwelijk;Rechts;1;8;right;no;100;rightarrow;375;true;focus;yes;219390;Chrome;112.0;macOS;10.15.7;undefined;undefined;1440 x 900;1440 x 900
H017;19;Vrouwelijk;Rechts;1;9;left;no;100;leftarrow;449;true;focus;yes;220596;Chrome;112.0;macOS;10.15.7;undefined;undefined;1440 x 900;1440 x 900
H017;19;Vrouwelijk;Rechts;1;10;left;no;100;leftarrow;474;true;focus;yes;221830;Chrome;112.0;macOS;10.15.7;undefined;undefined;1440 x 900;1440 x 900
H017;19;Vrouwelijk;Rechts;1;11;right;no;100;rightarrow;404;true;focus;yes;222991;Chrome;112.0;macOS;10.15.7;undefined;undefined;1440 x 900;1440 x 900
H017;19;Vrouwelijk;Rechts;1;12;left;no;100;rightarrow;378;false;focus;yes;224137;Chrome;112.0;macOS;10.15.7;undefined;undefined;1440 x 900;1440 x 900
H017;19;Vrouwelijk;Rechts;1;13;left;yes;100;leftarrow;490;false;focus;yes;225394;Chrome;112.0;macOS;10.15.7;undefined;undefined;1440 x 900;1440 x 900
H017;19;Vrouwelijk;Rechts;1;14;right;yes;50;rightarrow;422;false;focus;yes;226577;Chrome;112.0;macOS;10.15.7;undefined;undefined;1440 x 900;1440 x 900
H017;19;Vrouwelijk;Rechts;1;15;right;no;50;rightarrow;481;true;focus;yes;227820;Chrome;112.0;macOS;10.15.7;undefined;undefined;1440 x 900;1440 x 900
H017;19;Vrouwelijk;Rechts;1;16;right;no;50;rightarrow;416;true;focus;yes;228999;Chrome;112.0;macOS;10.15.7;undefined;undefined;1440 x 900;1440 x 900
H017;19;Vrouwelijk;Rechts;1;17;right;no;50;rightarrow;394;true;focus;yes;230157;Chrome;112.0;macOS;10.15.7;undefined;undefined;1440 x 900;1440 x 900
H017;19;Vrouwelijk;Rechts;1;18;right;no;50;rightarrow;440;true;focus;yes;231360;Chrome;112.0;macOS;10.15.7;undefined;undefined;1440 x 900;1440 x 900
H017;19;Vrouwelijk;Rechts;1;19;right;no;50;rightarrow;369;true;focus;yes;232496;Chrome;112.0;macOS;10.15.7;undefined;undefined;1440 x 900;1440 x 900
H017;19;Vrouwelijk;Rechts;1;20;left;yes;50;leftarrow;457;false;focus;yes;233720;Chrome;112.0;macOS;10.15.7;undefined;undefined;1440 x 900;1440 x 900
H017;19;Vrouwelijk;Rechts;1;21;left;no;50;leftarrow;392;true;focus;yes;234879;Chrome;112.0;macOS;10.15.7;undefined;undefined;1440 x 900;1440 x 900
H017;19;Vrouwelijk;Rechts;1;22;left;no;50;leftarrow;389;true;focus;yes;236036;Chrome;112.0;macOS;10.15.7;undefined;undefined;1440 x 900;1440 x 900
H017;19;Vrouwelijk;Rechts;1;23;right;yes;50;undefined;null;true;focus;yes;238056;Chrome;112.0;macOS;10.15.7;undefined;undefined;1440 x 900;1440 x 900
H017;19;Vrouwelijk;Rechts;1;24;left;no;100;leftarrow;445;true;focus;yes;239272;Chrome;112.0;macOS;10.15.7;undefined;undefined;1440 x 900;1440 x 900
H017;19;Vrouwelijk;Rechts;1;25;left;no;100;leftarrow;405;true;focus;yes;240445;Chrome;112.0;macOS;10.15.7;undefined;undefined;1440 x 900;1440 x 900
H017;19;Vrouwelijk;Rechts;1;26;right;no;100;rightarrow;428;true;focus;yes;241635;Chrome;112.0;macOS;10.15.7;undefined;undefined;1440 x 900;1440 x 900
H017;19;Vrouwelijk;Rechts;1;27;left;no;100;rightarrow;436;false;focus;yes;242836;Chrome;112.0;macOS;10.15.7;undefined;undefined;1440 x 900;1440 x 900
H017;19;Vrouwelijk;Rechts;1;28;right;no;100;rightarrow;414;true;focus;yes;244013;Chrome;112.0;macOS;10.15.7;undefined;undefined;1440 x 900;1440 x 900
H017;19;Vrouwelijk;Rechts;1;29;left;no;100;leftarrow;402;true;focus;yes;245174;Chrome;112.0;macOS;10.15.7;undefined;undefined;1440 x 900;1440 x 900
H017;19;Vrouwelijk;Rechts;1;30;left;yes;100;undefined;null;true;focus;yes;247187;Chrome;112.0;macOS;10.15.7;undefined;undefined;1440 x 900;1440 x 900
H017;19;Vrouwelijk;Rechts;1;31;right;no;150;rightarrow;466;true;focus;yes;248417;Chrome;112.0;macOS;10.15.7;undefined;undefined;1440 x 900;1440 x 900
H017;19;Vrouwelijk;Rechts;1;32;right;yes;150;undefined;null;true;focus;yes;250439;Chrome;112.0;macOS;10.15.7;undefined;undefined;1440 x 900;1440 x 900
H017;19;Vrouwelijk;Rechts;1;33;right;yes;200;rightarrow;371;false;focus;yes;251569;Chrome;112.0;macOS;10.15.7;undefined;undefined;1440 x 900;1440 x 900
H017;19;Vrouwelijk;Rechts;1;34;left;no;150;leftarrow;447;true;focus;yes;252781;Chrome;112.0;macOS;10.15.7;undefined;undefined;1440 x 900;1440 x 900
H017;19;Vrouwelijk;Rechts;1;35;right;no;150;rightarrow;456;true;focus;yes;254006;Chrome;112.0;macOS;10.15.7;undefined;undefined;1440 x 900;1440 x 900
H017;19;Vrouwelijk;Rechts;1;36;left;no;150;leftarrow;408;true;focus;yes;255175;Chrome;112.0;macOS;10.15.7;undefined;undefined;1440 x 900;1440 x 900
H017;19;Vrouwelijk;Rechts;1;37;right;no;150;rightarrow;418;true;focus;yes;256364;Chrome;112.0;macOS;10.15.7;undefined;undefined;1440 x 900;1440 x 900
H017;19;Vrouwelijk;Rechts;1;38;right;no;150;rightarrow;396;true;focus;yes;257521;Chrome;112.0;macOS;10.15.7;undefined;undefined;1440 x 900;1440 x 900
H017;19;Vrouwelijk;Rechts;1;39;left;no;150;leftarrow;502;true;focus;yes;258789;Chrome;112.0;macOS;10.15.7;undefined;undefined;1440 x 900;1440 x 900
H017;19;Vrouwelijk;Rechts;1;40;left;yes;150;leftarrow;439;false;focus;yes;259989;Chrome;112.0;macOS;10.15.7;undefined;undefined;1440 x 900;1440 x 900
H017;19;Vrouwelijk;Rechts;1;41;left;no;100;leftarrow;486;true;focus;yes;261236;Chrome;112.0;macOS;10.15.7;undefined;undefined;1440 x 900;1440 x 900
H017;19;Vrouwelijk;Rechts;1;42;left;no;100;leftarrow;376;true;focus;yes;262370;Chrome;112.0;macOS;10.15.7;undefined;undefined;1440 x 900;1440 x 900
H017;19;Vrouwelijk;Rechts;1;43;right;no;100;rightarrow;427;true;focus;yes;263562;Chrome;112.0;macOS;10.15.7;undefined;undefined;1440 x 900;1440 x 900
H017;19;Vrouwelijk;Rechts;1;44;left;no;100;leftarrow;419;true;focus;yes;264744;Chrome;112.0;macOS;10.15.7;undefined;undefined;1440 x 900;1440 x 900
H017;19;Vrouwelijk;Rechts;1;45;right;no;100;rightarrow;458;true;focus;yes;265969;Chrome;112.0;macOS;10.15.7;undefined;undefined;1440 x 900;1440 x 900
H017;19;Vrouwelijk;Rechts;1;46;left;yes;100;undefined;null;true;focus;yes;267987;Chrome;112.0;macOS;10.15.7;undefined;undefined;1440 x 900;1440 x 900
H017;19;Vrouwelijk;Rechts;1;47;right;yes;150;rightarrow;441;false;focus;yes;269194;Chrome;112.0;macOS;10.15.7;undefined;undefined;1440 x 900;1440 x 900
H017;19;Vrouwelijk;Rechts;1;48;right;no;100;rightarrow;441;true;focus;yes;270396;Chrome;112.0;macOS;10.15.7;undefined;undefined;1440 x 900;1440 x 900
H017;19;Vrouwelijk;Rechts;1;49;right;no;100;rightarrow;389;true;focus;yes;271550;Chrome;112.0;macOS;10.15.7;undefined;undefined;1440 x 900;1440 x 900
H017;19;Vrouwelijk;Rechts;1;50;left;yes;100;undefined;null;true;focus;yes;273566;Chrome;112.0;macOS;10.15.7;undefined;undefined;1440 x 900;1440 x 900
H017;19;Vrouwelijk;Rechts;1;51;left;no;150;leftarrow;506;true;focus;yes;274835;Chrome;112.0;macOS;10.15.7;undefined;undefined;1440 x 900;1440 x 900
H017;19;Vrouwelijk;Rechts;1;52;left;no;150;leftarrow;384;true;focus;yes;275984;Chrome;112.0;macOS;10.15.7;undefined;undefined;1440 x 900;1440 x 900
H017;19;Vrouwelijk;Rechts;1;53;right;no;150;rightarrow;451;true;focus;yes;277202;Chrome;112.0;macOS;10.15.7;undefined;undefined;1440 x 900;1440 x 900
H017;19;Vrouwelijk;Rechts;1;54;left;no;150;leftarrow;458;true;focus;yes;278425;Chrome;112.0;macOS;10.15.7;undefined;undefined;1440 x 900;1440 x 900
H017;19;Vrouwelijk;Rechts;1;55;right;yes;150;rightarrow;466;false;focus;yes;279657;Chrome;112.0;macOS;10.15.7;undefined;undefined;1440 x 900;1440 x 900
H017;19;Vrouwelijk;Rechts;1;56;right;no;100;rightarrow;455;true;focus;yes;280878;Chrome;112.0;macOS;10.15.7;undefined;undefined;1440 x 900;1440 x 900
H017;19;Vrouwelijk;Rechts;1;57;right;no;100;rightarrow;396;true;focus;yes;282035;Chrome;112.0;macOS;10.15.7;undefined;undefined;1440 x 900;1440 x 900
H017;19;Vrouwelijk;Rechts;1;58;left;yes;100;leftarrow;418;false;focus;yes;283217;Chrome;112.0;macOS;10.15.7;undefined;undefined;1440 x 900;1440 x 900
H017;19;Vrouwelijk;Rechts;1;59;left;no;50;leftarrow;380;true;focus;yes;284362;Chrome;112.0;macOS;10.15.7;undefined;undefined;1440 x 900;1440 x 900
H017;19;Vrouwelijk;Rechts;1;60;right;yes;50;undefined;null;true;focus;yes;286371;Chrome;112.0;macOS;10.15.7;undefined;undefined;1440 x 900;1440 x 900
H017;19;Vrouwelijk;Rechts;1;61;left;no;100;leftarrow;390;true;focus;yes;287524;Chrome;112.0;macOS;10.15.7;undefined;undefined;1440 x 900;1440 x 900
H017;19;Vrouwelijk;Rechts;1;62;left;no;100;leftarrow;405;true;focus;yes;288690;Chrome;112.0;macOS;10.15.7;undefined;undefined;1440 x 900;1440 x 900
H017;19;Vrouwelijk;Rechts;1;63;right;no;100;rightarrow;532;true;focus;yes;289980;Chrome;112.0;macOS;10.15.7;undefined;undefined;1440 x 900;1440 x 900
H017;19;Vrouwelijk;Rechts;1;64;right;no;100;rightarrow;431;true;focus;yes;291173;Chrome;112.0;macOS;10.15.7;undefined;undefined;1440 x 900;1440 x 900
H017;19;Vrouwelijk;Rechts;1;66;left;no;50;leftarrow;508;true;focus;yes;293594;Chrome;112.0;macOS;10.15.7;undefined;undefined;1440 x 900;1440 x 900
H017;19;Vrouwelijk;Rechts;1;65;left;yes;100;leftarrow;388;false;focus;yes;292322;Chrome;112.0;macOS;10.15.7;undefined;undefined;1440 x 900;1440 x 900
H017;19;Vrouwelijk;Rechts;1;67;left;no;50;leftarrow;401;true;focus;yes;294759;Chrome;112.0;macOS;10.15.7;undefined;undefined;1440 x 900;1440 x 900
H017;19;Vrouwelijk;Rechts;1;68;right;no;50;rightarrow;436;true;focus;yes;295963;Chrome;112.0;macOS;10.15.7;undefined;undefined;1440 x 900;1440 x 900
H017;19;Vrouwelijk;Rechts;1;69;right;yes;50;undefined;null;true;focus;yes;297983;Chrome;112.0;macOS;10.15.7;undefined;undefined;1440 x 900;1440 x 900
H017;19;Vrouwelijk;Rechts;1;70;right;no;100;rightarrow;367;true;focus;yes;299120;Chrome;112.0;macOS;10.15.7;undefined;undefined;1440 x 900;1440 x 900
H017;19;Vrouwelijk;Rechts;1;71;right;no;100;rightarrow;397;true;focus;yes;300284;Chrome;112.0;macOS;10.15.7;undefined;undefined;1440 x 900;1440 x 900
H017;19;Vrouwelijk;Rechts;1;72;left;no;100;leftarrow;472;true;focus;yes;301519;Chrome;112.0;macOS;10.15.7;undefined;undefined;1440 x 900;1440 x 900
H017;19;Vrouwelijk;Rechts;1;73;left;no;100;leftarrow;345;true;focus;yes;302620;Chrome;112.0;macOS;10.15.7;undefined;undefined;1440 x 900;1440 x 900
H017;19;Vrouwelijk;Rechts;1;74;right;yes;100;rightarrow;474;false;focus;yes;303854;Chrome;112.0;macOS;10.15.7;undefined;undefined;1440 x 900;1440 x 900
H017;19;Vrouwelijk;Rechts;1;75;right;no;50;rightarrow;381;true;focus;yes;304996;Chrome;112.0;macOS;10.15.7;undefined;undefined;1440 x 900;1440 x 900
H017;19;Vrouwelijk;Rechts;1;76;left;no;50;leftarrow;470;true;focus;yes;306229;Chrome;112.0;macOS;10.15.7;undefined;undefined;1440 x 900;1440 x 900
H017;19;Vrouwelijk;Rechts;1;77;left;no;50;leftarrow;372;true;focus;yes;307363;Chrome;112.0;macOS;10.15.7;undefined;undefined;1440 x 900;1440 x 900
H017;19;Vrouwelijk;Rechts;1;78;left;yes;50;undefined;null;true;focus;yes;309379;Chrome;112.0;macOS;10.15.7;undefined;undefined;1440 x 900;1440 x 900
H017;19;Vrouwelijk;Rechts;1;79;right;no;100;rightarrow;577;true;focus;yes;310721;Chrome;112.0;macOS;10.15.7;undefined;undefined;1440 x 900;1440 x 900
H017;19;Vrouwelijk;Rechts;1;80;right;no;100;rightarrow;353;true;focus;yes;311838;Chrome;112.0;macOS;10.15.7;undefined;undefined;1440 x 900;1440 x 900
H017;19;Vrouwelijk;Rechts;1;81;left;no;100;rightarrow;387;false;focus;yes;312984;Chrome;112.0;macOS;10.15.7;undefined;undefined;1440 x 900;1440 x 900
H017;19;Vrouwelijk;Rechts;1;82;left;no;100;leftarrow;473;true;focus;yes;314223;Chrome;112.0;macOS;10.15.7;undefined;undefined;1440 x 900;1440 x 900
H017;19;Vrouwelijk;Rechts;1;83;right;yes;100;rightarrow;424;false;focus;yes;315408;Chrome;112.0;macOS;10.15.7;undefined;undefined;1440 x 900;1440 x 900
H017;19;Vrouwelijk;Rechts;1;84;left;no;50;leftarrow;435;true;focus;yes;316610;Chrome;112.0;macOS;10.15.7;undefined;undefined;1440 x 900;1440 x 900
H017;19;Vrouwelijk;Rechts;1;85;left;yes;50;undefined;null;true;focus;yes;318629;Chrome;112.0;macOS;10.15.7;undefined;undefined;1440 x 900;1440 x 900
H017;19;Vrouwelijk;Rechts;1;86;right;no;100;rightarrow;474;true;focus;yes;319864;Chrome;112.0;macOS;10.15.7;undefined;undefined;1440 x 900;1440 x 900
H017;19;Vrouwelijk;Rechts;1;87;right;no;100;rightarrow;366;true;focus;yes;320997;Chrome;112.0;macOS;10.15.7;undefined;undefined;1440 x 900;1440 x 900
H017;19;Vrouwelijk;Rechts;1;88;right;no;100;rightarrow;396;true;focus;yes;322151;Chrome;112.0;macOS;10.15.7;undefined;undefined;1440 x 900;1440 x 900
H017;19;Vrouwelijk;Rechts;1;89;left;no;100;leftarrow;492;true;focus;yes;323410;Chrome;112.0;macOS;10.15.7;undefined;undefined;1440 x 900;1440 x 900
H017;19;Vrouwelijk;Rechts;1;90;right;no;100;rightarrow;448;true;focus;yes;324624;Chrome;112.0;macOS;10.15.7;undefined;undefined;1440 x 900;1440 x 900
H017;19;Vrouwelijk;Rechts;1;91;right;yes;100;rightarrow;397;false;focus;yes;325787;Chrome;112.0;macOS;10.15.7;undefined;undefined;1440 x 900;1440 x 900
H017;19;Vrouwelijk;Rechts;1;92;left;yes;50;leftarrow;520;false;focus;yes;327071;Chrome;112.0;macOS;10.15.7;undefined;undefined;1440 x 900;1440 x 900
H017;19;Vrouwelijk;Rechts;1;93;left;no;50;leftarrow;395;true;focus;yes;328235;Chrome;112.0;macOS;10.15.7;undefined;undefined;1440 x 900;1440 x 900
H017;19;Vrouwelijk;Rechts;1;94;right;no;50;rightarrow;449;true;focus;yes;329449;Chrome;112.0;macOS;10.15.7;undefined;undefined;1440 x 900;1440 x 900
H017;19;Vrouwelijk;Rechts;1;95;right;no;50;rightarrow;406;true;focus;yes;330617;Chrome;112.0;macOS;10.15.7;undefined;undefined;1440 x 900;1440 x 900
H017;19;Vrouwelijk;Rechts;1;96;left;no;50;leftarrow;446;true;focus;yes;331829;Chrome;112.0;macOS;10.15.7;undefined;undefined;1440 x 900;1440 x 900
H017;19;Vrouwelijk;Rechts;1;97;right;no;50;rightarrow;412;true;focus;yes;333003;Chrome;112.0;macOS;10.15.7;undefined;undefined;1440 x 900;1440 x 900
H017;19;Vrouwelijk;Rechts;1;98;left;no;50;leftarrow;418;true;focus;yes;334186;Chrome;112.0;macOS;10.15.7;undefined;undefined;1440 x 900;1440 x 900
H017;19;Vrouwelijk;Rechts;1;99;left;no;50;leftarrow;526;true;focus;yes;335477;Chrome;112.0;macOS;10.15.7;undefined;undefined;1440 x 900;1440 x 900
H017;19;Vrouwelijk;Rechts;1;100;left;yes;50;undefined;null;true;focus;yes;337496;Chrome;112.0;macOS;10.15.7;undefined;undefined;1440 x 900;1440 x 900
H017;19;Vrouwelijk;Rechts;1;101;right;yes;100;rightarrow;560;false;focus;yes;338825;Chrome;112.0;macOS;10.15.7;undefined;undefined;1440 x 900;1440 x 900
H017;19;Vrouwelijk;Rechts;1;102;right;no;50;rightarrow;450;true;focus;yes;340041;Chrome;112.0;macOS;10.15.7;undefined;undefined;1440 x 900;1440 x 900
H017;19;Vrouwelijk;Rechts;1;103;right;no;50;rightarrow;427;true;focus;yes;341236;Chrome;112.0;macOS;10.15.7;undefined;undefined;1440 x 900;1440 x 900
H017;19;Vrouwelijk;Rechts;1;104;left;no;50;leftarrow;451;true;focus;yes;342450;Chrome;112.0;macOS;10.15.7;undefined;undefined;1440 x 900;1440 x 900
H017;19;Vrouwelijk;Rechts;1;105;right;no;50;rightarrow;454;true;focus;yes;343670;Chrome;112.0;macOS;10.15.7;undefined;undefined;1440 x 900;1440 x 900
H017;19;Vrouwelijk;Rechts;1;106;left;no;50;leftarrow;461;true;focus;yes;344893;Chrome;112.0;macOS;10.15.7;undefined;undefined;1440 x 900;1440 x 900
H017;19;Vrouwelijk;Rechts;1;107;right;no;50;rightarrow;489;true;focus;yes;346144;Chrome;112.0;macOS;10.15.7;undefined;undefined;1440 x 900;1440 x 900
H017;19;Vrouwelijk;Rechts;1;108;left;no;50;leftarrow;519;true;focus;yes;347431;Chrome;112.0;macOS;10.15.7;undefined;undefined;1440 x 900;1440 x 900
H017;19;Vrouwelijk;Rechts;1;109;right;yes;50;undefined;null;true;focus;yes;349444;Chrome;112.0;macOS;10.15.7;undefined;undefined;1440 x 900;1440 x 900
H017;19;Vrouwelijk;Rechts;1;110;left;no;100;leftarrow;485;true;focus;yes;350696;Chrome;112.0;macOS;10.15.7;undefined;undefined;1440 x 900;1440 x 900
H017;19;Vrouwelijk;Rechts;1;111;right;no;100;rightarrow;442;true;focus;yes;351905;Chrome;112.0;macOS;10.15.7;undefined;undefined;1440 x 900;1440 x 900
H017;19;Vrouwelijk;Rechts;1;112;left;yes;100;undefined;null;true;focus;yes;353928;Chrome;112.0;macOS;10.15.7;undefined;undefined;1440 x 900;1440 x 900
H017;19;Vrouwelijk;Rechts;1;113;right;no;150;rightarrow;443;true;focus;yes;355142;Chrome;112.0;macOS;10.15.7;undefined;undefined;1440 x 900;1440 x 900
H017;19;Vrouwelijk;Rechts;1;114;left;no;150;leftarrow;461;true;focus;yes;356360;Chrome;112.0;macOS;10.15.7;undefined;undefined;1440 x 900;1440 x 900
H017;19;Vrouwelijk;Rechts;1;115;left;yes;150;leftarrow;443;false;focus;yes;357567;Chrome;112.0;macOS;10.15.7;undefined;undefined;1440 x 900;1440 x 900
H017;19;Vrouwelijk;Rechts;1;116;right;yes;100;undefined;null;true;focus;yes;359600;Chrome;112.0;macOS;10.15.7;undefined;undefined;1440 x 900;1440 x 900
H017;19;Vrouwelijk;Rechts;1;117;right;no;150;rightarrow;440;true;focus;yes;360811;Chrome;112.0;macOS;10.15.7;undefined;undefined;1440 x 900;1440 x 900
H017;19;Vrouwelijk;Rechts;1;118;right;no;150;rightarrow;388;true;focus;yes;361963;Chrome;112.0;macOS;10.15.7;undefined;undefined;1440 x 900;1440 x 900
H017;19;Vrouwelijk;Rechts;1;119;left;no;150;leftarrow;461;true;focus;yes;363184;Chrome;112.0;macOS;10.15.7;undefined;undefined;1440 x 900;1440 x 900
H017;19;Vrouwelijk;Rechts;1;120;left;no;150;leftarrow;415;true;focus;yes;364376;Chrome;112.0;macOS;10.15.7;undefined;undefined;1440 x 900;1440 x 900
H017;19;Vrouwelijk;Rechts;1;121;right;no;150;rightarrow;485;true;focus;yes;365624;Chrome;112.0;macOS;10.15.7;undefined;undefined;1440 x 900;1440 x 900
H017;19;Vrouwelijk;Rechts;1;122;right;yes;150;rightarrow;408;false;focus;yes;366795;Chrome;112.0;macOS;10.15.7;undefined;undefined;1440 x 900;1440 x 900
H017;19;Vrouwelijk;Rechts;1;123;left;no;100;leftarrow;414;true;focus;yes;367973;Chrome;112.0;macOS;10.15.7;undefined;undefined;1440 x 900;1440 x 900
H017;19;Vrouwelijk;Rechts;1;124;left;no;100;leftarrow;382;true;focus;yes;369117;Chrome;112.0;macOS;10.15.7;undefined;undefined;1440 x 900;1440 x 900
H017;19;Vrouwelijk;Rechts;1;125;right;no;100;rightarrow;635;true;focus;yes;370510;Chrome;112.0;macOS;10.15.7;undefined;undefined;1440 x 900;1440 x 900
H017;19;Vrouwelijk;Rechts;1;126;left;yes;100;undefined;null;true;focus;yes;372528;Chrome;112.0;macOS;10.15.7;undefined;undefined;1440 x 900;1440 x 900
H017;19;Vrouwelijk;Rechts;1;127;left;no;150;leftarrow;453;true;focus;yes;373752;Chrome;112.0;macOS;10.15.7;undefined;undefined;1440 x 900;1440 x 900
H017;19;Vrouwelijk;Rechts;1;128;right;no;150;rightarrow;456;true;focus;yes;374976;Chrome;112.0;macOS;10.15.7;undefined;undefined;1440 x 900;1440 x 900
H017;19;Vrouwelijk;Rechts;2;1;right;yes;150;rightarrow;508;false;focus;yes;394888;Chrome;112.0;macOS;10.15.7;undefined;undefined;1440 x 900;1440 x 900
H017;19;Vrouwelijk;Rechts;2;2;left;no;100;leftarrow;485;true;focus;yes;396141;Chrome;112.0;macOS;10.15.7;undefined;undefined;1440 x 900;1440 x 900
H017;19;Vrouwelijk;Rechts;2;3;right;no;100;rightarrow;476;true;focus;yes;397379;Chrome;112.0;macOS;10.15.7;undefined;undefined;1440 x 900;1440 x 900
H017;19;Vrouwelijk;Rechts;2;4;left;no;100;leftarrow;463;true;focus;yes;398602;Chrome;112.0;macOS;10.15.7;undefined;undefined;1440 x 900;1440 x 900
H017;19;Vrouwelijk;Rechts;2;5;right;no;100;rightarrow;433;true;focus;yes;399800;Chrome;112.0;macOS;10.15.7;undefined;undefined;1440 x 900;1440 x 900
H017;19;Vrouwelijk;Rechts;2;6;right;no;100;rightarrow;403;true;focus;yes;400971;Chrome;112.0;macOS;10.15.7;undefined;undefined;1440 x 900;1440 x 900
H017;19;Vrouwelijk;Rechts;2;7;left;no;100;leftarrow;427;true;focus;yes;402157;Chrome;112.0;macOS;10.15.7;undefined;undefined;1440 x 900;1440 x 900
H017;19;Vrouwelijk;Rechts;2;8;left;yes;100;undefined;null;true;focus;yes;404192;Chrome;112.0;macOS;10.15.7;undefined;undefined;1440 x 900;1440 x 900
H017;19;Vrouwelijk;Rechts;2;9;right;yes;150;undefined;null;true;focus;yes;406220;Chrome;112.0;macOS;10.15.7;undefined;undefined;1440 x 900;1440 x 900
H017;19;Vrouwelijk;Rechts;2;10;left;no;200;leftarrow;469;true;focus;yes;407456;Chrome;112.0;macOS;10.15.7;undefined;undefined;1440 x 900;1440 x 900
H017;19;Vrouwelijk;Rechts;2;11;left;yes;200;leftarrow;419;false;focus;yes;408642;Chrome;112.0;macOS;10.15.7;undefined;undefined;1440 x 900;1440 x 900
H017;19;Vrouwelijk;Rechts;2;12;right;no;150;rightarrow;431;true;focus;yes;409838;Chrome;112.0;macOS;10.15.7;undefined;undefined;1440 x 900;1440 x 900
H017;19;Vrouwelijk;Rechts;2;13;right;no;150;rightarrow;444;true;focus;yes;411044;Chrome;112.0;macOS;10.15.7;undefined;undefined;1440 x 900;1440 x 900
H017;19;Vrouwelijk;Rechts;2;14;right;no;150;rightarrow;401;true;focus;yes;412208;Chrome;112.0;macOS;10.15.7;undefined;undefined;1440 x 900;1440 x 900
H017;19;Vrouwelijk;Rechts;2;15;left;no;150;leftarrow;440;true;focus;yes;413416;Chrome;112.0;macOS;10.15.7;undefined;undefined;1440 x 900;1440 x 900
H017;19;Vrouwelijk;Rechts;2;16;left;no;150;leftarrow;404;true;focus;yes;414583;Chrome;112.0;macOS;10.15.7;undefined;undefined;1440 x 900;1440 x 900
H017;19;Vrouwelijk;Rechts;2;17;left;no;150;leftarrow;394;true;focus;yes;415741;Chrome;112.0;macOS;10.15.7;undefined;undefined;1440 x 900;1440 x 900
H017;19;Vrouwelijk;Rechts;2;18;left;no;150;leftarrow;390;true;focus;yes;416895;Chrome;112.0;macOS;10.15.7;undefined;undefined;1440 x 900;1440 x 900
H017;19;Vrouwelijk;Rechts;2;19;right;no;150;rightarrow;438;true;focus;yes;418104;Chrome;112.0;macOS;10.15.7;undefined;undefined;1440 x 900;1440 x 900
H017;19;Vrouwelijk;Rechts;2;20;left;no;150;leftarrow;438;true;focus;yes;419305;Chrome;112.0;macOS;10.15.7;undefined;undefined;1440 x 900;1440 x 900
H017;19;Vrouwelijk;Rechts;2;21;right;yes;150;undefined;null;true;focus;yes;421328;Chrome;112.0;macOS;10.15.7;undefined;undefined;1440 x 900;1440 x 900
H017;19;Vrouwelijk;Rechts;2;22;left;yes;200;undefined;null;true;focus;yes;423359;Chrome;112.0;macOS;10.15.7;undefined;undefined;1440 x 900;1440 x 900
H017;19;Vrouwelijk;Rechts;2;23;right;no;250;rightarrow;484;true;focus;yes;424618;Chrome;112.0;macOS;10.15.7;undefined;undefined;1440 x 900;1440 x 900
H017;19;Vrouwelijk;Rechts;2;24;right;no;250;rightarrow;411;true;focus;yes;425786;Chrome;112.0;macOS;10.15.7;undefined;undefined;1440 x 900;1440 x 900
H017;19;Vrouwelijk;Rechts;2;25;right;no;250;rightarrow;412;true;focus;yes;426963;Chrome;112.0;macOS;10.15.7;undefined;undefined;1440 x 900;1440 x 900
H017;19;Vrouwelijk;Rechts;2;26;left;no;250;leftarrow;461;true;focus;yes;428185;Chrome;112.0;macOS;10.15.7;undefined;undefined;1440 x 900;1440 x 900
H017;19;Vrouwelijk;Rechts;2;27;left;no;250;leftarrow;381;true;focus;yes;429328;Chrome;112.0;macOS;10.15.7;undefined;undefined;1440 x 900;1440 x 900
H017;19;Vrouwelijk;Rechts;2;28;left;yes;250;leftarrow;373;false;focus;yes;430468;Chrome;112.0;macOS;10.15.7;undefined;undefined;1440 x 900;1440 x 900
H017;19;Vrouwelijk;Rechts;2;29;right;yes;200;rightarrow;383;false;focus;yes;431624;Chrome;112.0;macOS;10.15.7;undefined;undefined;1440 x 900;1440 x 900
H017;19;Vrouwelijk;Rechts;2;30;right;no;150;rightarrow;426;true;focus;yes;432817;Chrome;112.0;macOS;10.15.7;undefined;undefined;1440 x 900;1440 x 900
H017;19;Vrouwelijk;Rechts;2;31;left;no;150;leftarrow;455;true;focus;yes;434039;Chrome;112.0;macOS;10.15.7;undefined;undefined;1440 x 900;1440 x 900
H017;19;Vrouwelijk;Rechts;2;32;right;no;150;rightarrow;458;true;focus;yes;435266;Chrome;112.0;macOS;10.15.7;undefined;undefined;1440 x 900;1440 x 900
H017;19;Vrouwelijk;Rechts;2;33;right;yes;150;rightarrow;438;false;focus;yes;436479;Chrome;112.0;macOS;10.15.7;undefined;undefined;1440 x 900;1440 x 900
H017;19;Vrouwelijk;Rechts;2;34;right;no;100;rightarrow;415;true;focus;yes;437662;Chrome;112.0;macOS;10.15.7;undefined;undefined;1440 x 900;1440 x 900
H017;19;Vrouwelijk;Rechts;2;35;left;no;100;leftarrow;445;true;focus;yes;438868;Chrome;112.0;macOS;10.15.7;undefined;undefined;1440 x 900;1440 x 900
H017;19;Vrouwelijk;Rechts;2;36;left;yes;100;undefined;null;true;focus;yes;440888;Chrome;112.0;macOS;10.15.7;undefined;undefined;1440 x 900;1440 x 900
H017;19;Vrouwelijk;Rechts;2;37;left;no;150;leftarrow;447;true;focus;yes;442106;Chrome;112.0;macOS;10.15.7;undefined;undefined;1440 x 900;1440 x 900
H017;19;Vrouwelijk;Rechts;2;38;right;no;150;rightarrow;464;true;focus;yes;443331;Chrome;112.0;macOS;10.15.7;undefined;undefined;1440 x 900;1440 x 900
H017;19;Vrouwelijk;Rechts;2;44;right;no;150;rightarrow;436;true;focus;yes;450540;Chrome;112.0;macOS;10.15.7;undefined;undefined;1440 x 900;1440 x 900
H017;19;Vrouwelijk;Rechts;2;40;left;no;150;leftarrow;439;true;focus;yes;445735;Chrome;112.0;macOS;10.15.7;undefined;undefined;1440 x 900;1440 x 900
H017;19;Vrouwelijk;Rechts;2;41;right;no;150;rightarrow;395;true;focus;yes;446900;Chrome;112.0;macOS;10.15.7;undefined;undefined;1440 x 900;1440 x 900
H017;19;Vrouwelijk;Rechts;2;39;right;no;150;rightarrow;433;true;focus;yes;444528;Chrome;112.0;macOS;10.15.7;undefined;undefined;1440 x 900;1440 x 900
H017;19;Vrouwelijk;Rechts;2;43;left;no;150;leftarrow;440;true;focus;yes;449337;Chrome;112.0;macOS;10.15.7;undefined;undefined;1440 x 900;1440 x 900
H017;19;Vrouwelijk;Rechts;2;42;left;no;150;leftarrow;464;true;focus;yes;448128;Chrome;112.0;macOS;10.15.7;undefined;undefined;1440 x 900;1440 x 900
H017;19;Vrouwelijk;Rechts;2;45;right;no;150;rightarrow;397;true;focus;yes;451700;Chrome;112.0;macOS;10.15.7;undefined;undefined;1440 x 900;1440 x 900
H017;19;Vrouwelijk;Rechts;2;46;left;no;150;leftarrow;493;true;focus;yes;452967;Chrome;112.0;macOS;10.15.7;undefined;undefined;1440 x 900;1440 x 900
H017;19;Vrouwelijk;Rechts;2;47;right;yes;150;rightarrow;411;false;focus;yes;454138;Chrome;112.0;macOS;10.15.7;undefined;undefined;1440 x 900;1440 x 900
H017;19;Vrouwelijk;Rechts;2;48;left;yes;100;leftarrow;369;false;focus;yes;455273;Chrome;112.0;macOS;10.15.7;undefined;undefined;1440 x 900;1440 x 900
H017;19;Vrouwelijk;Rechts;2;49;left;no;50;leftarrow;447;true;focus;yes;456497;Chrome;112.0;macOS;10.15.7;undefined;undefined;1440 x 900;1440 x 900
H017;19;Vrouwelijk;Rechts;2;50;left;yes;50;undefined;null;true;focus;yes;458520;Chrome;112.0;macOS;10.15.7;undefined;undefined;1440 x 900;1440 x 900
H017;19;Vrouwelijk;Rechts;2;51;right;yes;100;undefined;null;true;focus;yes;460552;Chrome;112.0;macOS;10.15.7;undefined;undefined;1440 x 900;1440 x 900
H017;19;Vrouwelijk;Rechts;2;52;right;no;150;rightarrow;433;true;focus;yes;461760;Chrome;112.0;macOS;10.15.7;undefined;undefined;1440 x 900;1440 x 900
H017;19;Vrouwelijk;Rechts;2;53;left;no;150;leftarrow;457;true;focus;yes;462985;Chrome;112.0;macOS;10.15.7;undefined;undefined;1440 x 900;1440 x 900
H017;19;Vrouwelijk;Rechts;2;54;right;no;150;rightarrow;481;true;focus;yes;464242;Chrome;112.0;macOS;10.15.7;undefined;undefined;1440 x 900;1440 x 900
H017;19;Vrouwelijk;Rechts;2;55;right;no;150;rightarrow;451;true;focus;yes;465458;Chrome;112.0;macOS;10.15.7;undefined;undefined;1440 x 900;1440 x 900
H017;19;Vrouwelijk;Rechts;2;56;left;no;150;leftarrow;486;true;focus;yes;466708;Chrome;112.0;macOS;10.15.7;undefined;undefined;1440 x 900;1440 x 900
H017;19;Vrouwelijk;Rechts;2;57;left;no;150;leftarrow;463;true;focus;yes;467934;Chrome;112.0;macOS;10.15.7;undefined;undefined;1440 x 900;1440 x 900
H017;19;Vrouwelijk;Rechts;2;58;left;no;150;leftarrow;390;true;focus;yes;469095;Chrome;112.0;macOS;10.15.7;undefined;undefined;1440 x 900;1440 x 900
H017;19;Vrouwelijk;Rechts;2;59;right;no;150;rightarrow;457;true;focus;yes;470331;Chrome;112.0;macOS;10.15.7;undefined;undefined;1440 x 900;1440 x 900
H017;19;Vrouwelijk;Rechts;2;60;left;yes;150;undefined;null;true;focus;yes;472352;Chrome;112.0;macOS;10.15.7;undefined;undefined;1440 x 900;1440 x 900
H017;19;Vrouwelijk;Rechts;2;61;right;no;200;rightarrow;524;true;focus;yes;473647;Chrome;112.0;macOS;10.15.7;undefined;undefined;1440 x 900;1440 x 900
H017;19;Vrouwelijk;Rechts;2;62;right;no;200;rightarrow;431;true;focus;yes;474858;Chrome;112.0;macOS;10.15.7;undefined;undefined;1440 x 900;1440 x 900
H017;19;Vrouwelijk;Rechts;2;63;left;no;200;leftarrow;449;true;focus;yes;476065;Chrome;112.0;macOS;10.15.7;undefined;undefined;1440 x 900;1440 x 900
H017;19;Vrouwelijk;Rechts;2;64;right;yes;200;rightarrow;463;false;focus;yes;477294;Chrome;112.0;macOS;10.15.7;undefined;undefined;1440 x 900;1440 x 900
H017;19;Vrouwelijk;Rechts;2;65;right;no;150;rightarrow;458;true;focus;yes;478509;Chrome;112.0;macOS;10.15.7;undefined;undefined;1440 x 900;1440 x 900
H017;19;Vrouwelijk;Rechts;2;66;left;no;150;leftarrow;496;true;focus;yes;479767;Chrome;112.0;macOS;10.15.7;undefined;undefined;1440 x 900;1440 x 900
H017;19;Vrouwelijk;Rechts;2;67;right;no;150;rightarrow;414;true;focus;yes;480959;Chrome;112.0;macOS;10.15.7;undefined;undefined;1440 x 900;1440 x 900
H017;19;Vrouwelijk;Rechts;2;68;left;yes;150;undefined;null;true;focus;yes;482976;Chrome;112.0;macOS;10.15.7;undefined;undefined;1440 x 900;1440 x 900
H017;19;Vrouwelijk;Rechts;2;69;right;no;200;rightarrow;443;true;focus;yes;484191;Chrome;112.0;macOS;10.15.7;undefined;undefined;1440 x 900;1440 x 900
H017;19;Vrouwelijk;Rechts;2;70;left;no;200;leftarrow;413;true;focus;yes;485364;Chrome;112.0;macOS;10.15.7;undefined;undefined;1440 x 900;1440 x 900
H017;19;Vrouwelijk;Rechts;2;71;right;yes;200;rightarrow;426;false;focus;yes;486563;Chrome;112.0;macOS;10.15.7;undefined;undefined;1440 x 900;1440 x 900
H017;19;Vrouwelijk;Rechts;2;72;left;no;150;leftarrow;447;true;focus;yes;487770;Chrome;112.0;macOS;10.15.7;undefined;undefined;1440 x 900;1440 x 900
H017;19;Vrouwelijk;Rechts;2;73;right;no;150;rightarrow;418;true;focus;yes;488950;Chrome;112.0;macOS;10.15.7;undefined;undefined;1440 x 900;1440 x 900
H017;19;Vrouwelijk;Rechts;2;74;right;yes;150;rightarrow;436;false;focus;yes;490156;Chrome;112.0;macOS;10.15.7;undefined;undefined;1440 x 900;1440 x 900
H017;19;Vrouwelijk;Rechts;2;75;right;no;100;rightarrow;403;true;focus;yes;491332;Chrome;112.0;macOS;10.15.7;undefined;undefined;1440 x 900;1440 x 900
H017;19;Vrouwelijk;Rechts;2;76;left;no;100;leftarrow;494;true;focus;yes;492585;Chrome;112.0;macOS;10.15.7;undefined;undefined;1440 x 900;1440 x 900
H017;19;Vrouwelijk;Rechts;2;77;left;no;100;leftarrow;465;true;focus;yes;493812;Chrome;112.0;macOS;10.15.7;undefined;undefined;1440 x 900;1440 x 900
H017;19;Vrouwelijk;Rechts;2;78;left;no;100;leftarrow;542;true;focus;yes;495118;Chrome;112.0;macOS;10.15.7;undefined;undefined;1440 x 900;1440 x 900
H017;19;Vrouwelijk;Rechts;2;79;left;yes;100;undefined;null;true;focus;yes;497136;Chrome;112.0;macOS;10.15.7;undefined;undefined;1440 x 900;1440 x 900
H017;19;Vrouwelijk;Rechts;2;80;right;no;150;rightarrow;459;true;focus;yes;498370;Chrome;112.0;macOS;10.15.7;undefined;undefined;1440 x 900;1440 x 900
H017;19;Vrouwelijk;Rechts;2;81;left;no;150;rightarrow;430;false;focus;yes;499560;Chrome;112.0;macOS;10.15.7;undefined;undefined;1440 x 900;1440 x 900
H017;19;Vrouwelijk;Rechts;2;82;right;no;150;rightarrow;456;true;focus;yes;500791;Chrome;112.0;macOS;10.15.7;undefined;undefined;1440 x 900;1440 x 900
H017;19;Vrouwelijk;Rechts;2;83;left;no;150;leftarrow;424;true;focus;yes;501983;Chrome;112.0;macOS;10.15.7;undefined;undefined;1440 x 900;1440 x 900
H017;19;Vrouwelijk;Rechts;2;84;right;no;150;rightarrow;441;true;focus;yes;503193;Chrome;112.0;macOS;10.15.7;undefined;undefined;1440 x 900;1440 x 900
H017;19;Vrouwelijk;Rechts;2;85;left;no;150;leftarrow;455;true;focus;yes;504423;Chrome;112.0;macOS;10.15.7;undefined;undefined;1440 x 900;1440 x 900
H017;19;Vrouwelijk;Rechts;2;86;left;yes;150;leftarrow;409;false;focus;yes;505611;Chrome;112.0;macOS;10.15.7;undefined;undefined;1440 x 900;1440 x 900
H017;19;Vrouwelijk;Rechts;2;87;right;yes;100;undefined;null;true;focus;yes;507639;Chrome;112.0;macOS;10.15.7;undefined;undefined;1440 x 900;1440 x 900
H017;19;Vrouwelijk;Rechts;2;88;right;no;150;rightarrow;440;true;focus;yes;508859;Chrome;112.0;macOS;10.15.7;undefined;undefined;1440 x 900;1440 x 900
H017;19;Vrouwelijk;Rechts;2;89;right;no;150;rightarrow;447;true;focus;yes;510080;Chrome;112.0;macOS;10.15.7;undefined;undefined;1440 x 900;1440 x 900
H017;19;Vrouwelijk;Rechts;2;90;left;no;150;leftarrow;465;true;focus;yes;511313;Chrome;112.0;macOS;10.15.7;undefined;undefined;1440 x 900;1440 x 900
H017;19;Vrouwelijk;Rechts;2;91;right;no;150;rightarrow;468;true;focus;yes;512557;Chrome;112.0;macOS;10.15.7;undefined;undefined;1440 x 900;1440 x 900
H017;19;Vrouwelijk;Rechts;2;92;left;no;150;leftarrow;450;true;focus;yes;513777;Chrome;112.0;macOS;10.15.7;undefined;undefined;1440 x 900;1440 x 900
H017;19;Vrouwelijk;Rechts;2;93;right;no;150;rightarrow;499;true;focus;yes;515042;Chrome;112.0;macOS;10.15.7;undefined;undefined;1440 x 900;1440 x 900
H017;19;Vrouwelijk;Rechts;2;94;right;yes;150;rightarrow;412;false;focus;yes;516228;Chrome;112.0;macOS;10.15.7;undefined;undefined;1440 x 900;1440 x 900
H017;19;Vrouwelijk;Rechts;2;95;left;yes;100;leftarrow;474;false;focus;yes;517461;Chrome;112.0;macOS;10.15.7;undefined;undefined;1440 x 900;1440 x 900
H017;19;Vrouwelijk;Rechts;2;96;left;no;50;leftarrow;482;true;focus;yes;518705;Chrome;112.0;macOS;10.15.7;undefined;undefined;1440 x 900;1440 x 900
H017;19;Vrouwelijk;Rechts;2;97;left;no;50;leftarrow;411;true;focus;yes;519882;Chrome;112.0;macOS;10.15.7;undefined;undefined;1440 x 900;1440 x 900
H017;19;Vrouwelijk;Rechts;2;98;right;no;50;rightarrow;474;true;focus;yes;521122;Chrome;112.0;macOS;10.15.7;undefined;undefined;1440 x 900;1440 x 900
H017;19;Vrouwelijk;Rechts;2;99;left;no;50;leftarrow;486;true;focus;yes;522372;Chrome;112.0;macOS;10.15.7;undefined;undefined;1440 x 900;1440 x 900
H017;19;Vrouwelijk;Rechts;2;100;right;no;50;rightarrow;435;true;focus;yes;523581;Chrome;112.0;macOS;10.15.7;undefined;undefined;1440 x 900;1440 x 900
H017;19;Vrouwelijk;Rechts;2;101;right;no;50;rightarrow;428;true;focus;yes;524772;Chrome;112.0;macOS;10.15.7;undefined;undefined;1440 x 900;1440 x 900
H017;19;Vrouwelijk;Rechts;2;102;left;no;50;leftarrow;510;true;focus;yes;526045;Chrome;112.0;macOS;10.15.7;undefined;undefined;1440 x 900;1440 x 900
H017;19;Vrouwelijk;Rechts;2;103;right;yes;50;undefined;null;true;focus;yes;528072;Chrome;112.0;macOS;10.15.7;undefined;undefined;1440 x 900;1440 x 900
H017;19;Vrouwelijk;Rechts;2;104;left;yes;100;undefined;null;true;focus;yes;530102;Chrome;112.0;macOS;10.15.7;undefined;undefined;1440 x 900;1440 x 900
H017;19;Vrouwelijk;Rechts;2;105;left;no;150;leftarrow;452;true;focus;yes;531319;Chrome;112.0;macOS;10.15.7;undefined;undefined;1440 x 900;1440 x 900
H017;19;Vrouwelijk;Rechts;2;106;left;yes;150;leftarrow;434;false;focus;yes;532521;Chrome;112.0;macOS;10.15.7;undefined;undefined;1440 x 900;1440 x 900
H017;19;Vrouwelijk;Rechts;2;107;right;no;100;rightarrow;475;true;focus;yes;533771;Chrome;112.0;macOS;10.15.7;undefined;undefined;1440 x 900;1440 x 900
H017;19;Vrouwelijk;Rechts;2;108;right;yes;100;undefined;null;true;focus;yes;535792;Chrome;112.0;macOS;10.15.7;undefined;undefined;1440 x 900;1440 x 900
H017;19;Vrouwelijk;Rechts;2;109;right;no;150;rightarrow;443;true;focus;yes;537006;Chrome;112.0;macOS;10.15.7;undefined;undefined;1440 x 900;1440 x 900
H017;19;Vrouwelijk;Rechts;2;110;left;no;150;leftarrow;471;true;focus;yes;538238;Chrome;112.0;macOS;10.15.7;undefined;undefined;1440 x 900;1440 x 900
H017;19;Vrouwelijk;Rechts;2;111;left;no;150;leftarrow;398;true;focus;yes;539414;Chrome;112.0;macOS;10.15.7;undefined;undefined;1440 x 900;1440 x 900
H017;19;Vrouwelijk;Rechts;2;112;right;no;150;rightarrow;426;true;focus;yes;540612;Chrome;112.0;macOS;10.15.7;undefined;undefined;1440 x 900;1440 x 900
H017;19;Vrouwelijk;Rechts;2;113;left;no;150;leftarrow;499;true;focus;yes;541881;Chrome;112.0;macOS;10.15.7;undefined;undefined;1440 x 900;1440 x 900
H017;19;Vrouwelijk;Rechts;2;114;right;yes;150;rightarrow;484;false;focus;yes;543133;Chrome;112.0;macOS;10.15.7;undefined;undefined;1440 x 900;1440 x 900
H017;19;Vrouwelijk;Rechts;2;115;right;no;100;rightarrow;497;true;focus;yes;544392;Chrome;112.0;macOS;10.15.7;undefined;undefined;1440 x 900;1440 x 900
H017;19;Vrouwelijk;Rechts;2;116;right;no;100;rightarrow;428;true;focus;yes;545598;Chrome;112.0;macOS;10.15.7;undefined;undefined;1440 x 900;1440 x 900
H017;19;Vrouwelijk;Rechts;2;117;right;no;100;rightarrow;406;true;focus;yes;546784;Chrome;112.0;macOS;10.15.7;undefined;undefined;1440 x 900;1440 x 900
H017;19;Vrouwelijk;Rechts;2;118;left;no;100;leftarrow;499;true;focus;yes;548061;Chrome;112.0;macOS;10.15.7;undefined;undefined;1440 x 900;1440 x 900
H017;19;Vrouwelijk;Rechts;2;119;left;yes;100;undefined;null;true;focus;yes;550096;Chrome;112.0;macOS;10.15.7;undefined;undefined;1440 x 900;1440 x 900
H017;19;Vrouwelijk;Rechts;2;120;left;no;150;leftarrow;445;true;focus;yes;551316;Chrome;112.0;macOS;10.15.7;undefined;undefined;1440 x 900;1440 x 900
H017;19;Vrouwelijk;Rechts;2;121;right;no;150;rightarrow;421;true;focus;yes;552508;Chrome;112.0;macOS;10.15.7;undefined;undefined;1440 x 900;1440 x 900
H017;19;Vrouwelijk;Rechts;2;122;right;yes;150;undefined;null;true;focus;yes;554528;Chrome;112.0;macOS;10.15.7;undefined;undefined;1440 x 900;1440 x 900
H017;19;Vrouwelijk;Rechts;2;123;left;no;200;leftarrow;467;true;focus;yes;555775;Chrome;112.0;macOS;10.15.7;undefined;undefined;1440 x 900;1440 x 900
H017;19;Vrouwelijk;Rechts;2;124;left;no;200;leftarrow;449;true;focus;yes;556995;Chrome;112.0;macOS;10.15.7;undefined;undefined;1440 x 900;1440 x 900
H017;19;Vrouwelijk;Rechts;2;125;right;no;200;rightarrow;461;true;focus;yes;558221;Chrome;112.0;macOS;10.15.7;undefined;undefined;1440 x 900;1440 x 900
H017;19;Vrouwelijk;Rechts;2;126;left;yes;200;leftarrow;416;false;focus;yes;559399;Chrome;112.0;macOS;10.15.7;undefined;undefined;1440 x 900;1440 x 900
H017;19;Vrouwelijk;Rechts;2;127;left;no;150;leftarrow;437;true;focus;yes;560614;Chrome;112.0;macOS;10.15.7;undefined;undefined;1440 x 900;1440 x 900
H017;19;Vrouwelijk;Rechts;2;128;right;no;150;rightarrow;471;true;focus;yes;561857;Chrome;112.0;macOS;10.15.7;undefined;undefined;1440 x 900;1440 x 900
H017;19;Vrouwelijk;Rechts;3;1;right;yes;150;rightarrow;505;false;focus;yes;581026;Chrome;112.0;macOS;10.15.7;undefined;undefined;1440 x 900;1440 x 900
H017;19;Vrouwelijk;Rechts;3;2;left;no;100;leftarrow;439;true;focus;yes;582241;Chrome;112.0;macOS;10.15.7;undefined;undefined;1440 x 900;1440 x 900
H017;19;Vrouwelijk;Rechts;3;3;left;no;100;leftarrow;428;true;focus;yes;583436;Chrome;112.0;macOS;10.15.7;undefined;undefined;1440 x 900;1440 x 900
H017;19;Vrouwelijk;Rechts;3;4;right;no;100;rightarrow;458;true;focus;yes;584668;Chrome;112.0;macOS;10.15.7;undefined;undefined;1440 x 900;1440 x 900
H017;19;Vrouwelijk;Rechts;3;5;right;no;100;rightarrow;568;true;focus;yes;586010;Chrome;112.0;macOS;10.15.7;undefined;undefined;1440 x 900;1440 x 900
H017;19;Vrouwelijk;Rechts;3;6;left;yes;100;undefined;null;true;focus;yes;588048;Chrome;112.0;macOS;10.15.7;undefined;undefined;1440 x 900;1440 x 900
H017;19;Vrouwelijk;Rechts;3;7;left;no;150;leftarrow;481;true;focus;yes;589300;Chrome;112.0;macOS;10.15.7;undefined;undefined;1440 x 900;1440 x 900
H017;19;Vrouwelijk;Rechts;3;8;right;no;150;rightarrow;436;true;focus;yes;590509;Chrome;112.0;macOS;10.15.7;undefined;undefined;1440 x 900;1440 x 900
H017;19;Vrouwelijk;Rechts;3;9;left;no;150;leftarrow;469;true;focus;yes;591741;Chrome;112.0;macOS;10.15.7;undefined;undefined;1440 x 900;1440 x 900
H017;19;Vrouwelijk;Rechts;3;10;left;no;150;leftarrow;493;true;focus;yes;593006;Chrome;112.0;macOS;10.15.7;undefined;undefined;1440 x 900;1440 x 900
H017;19;Vrouwelijk;Rechts;3;11;left;yes;150;leftarrow;462;false;focus;yes;594240;Chrome;112.0;macOS;10.15.7;undefined;undefined;1440 x 900;1440 x 900
H017;19;Vrouwelijk;Rechts;3;12;right;yes;100;rightarrow;494;false;focus;yes;595509;Chrome;112.0;macOS;10.15.7;undefined;undefined;1440 x 900;1440 x 900
H017;19;Vrouwelijk;Rechts;3;13;right;no;50;rightarrow;432;true;focus;yes;596705;Chrome;112.0;macOS;10.15.7;undefined;undefined;1440 x 900;1440 x 900
H017;19;Vrouwelijk;Rechts;3;14;left;no;50;leftarrow;488;true;focus;yes;597959;Chrome;112.0;macOS;10.15.7;undefined;undefined;1440 x 900;1440 x 900
H017;19;Vrouwelijk;Rechts;3;15;right;no;50;rightarrow;467;true;focus;yes;599194;Chrome;112.0;macOS;10.15.7;undefined;undefined;1440 x 900;1440 x 900
H017;19;Vrouwelijk;Rechts;3;16;right;no;50;rightarrow;456;true;focus;yes;600415;Chrome;112.0;macOS;10.15.7;undefined;undefined;1440 x 900;1440 x 900
H017;19;Vrouwelijk;Rechts;3;17;left;no;50;leftarrow;574;true;focus;yes;601757;Chrome;112.0;macOS;10.15.7;undefined;undefined;1440 x 900;1440 x 900
H017;19;Vrouwelijk;Rechts;3;18;left;yes;50;undefined;null;true;focus;yes;603774;Chrome;112.0;macOS;10.15.7;undefined;undefined;1440 x 900;1440 x 900
H017;19;Vrouwelijk;Rechts;3;19;right;no;100;rightarrow;596;true;focus;yes;605147;Chrome;112.0;macOS;10.15.7;undefined;undefined;1440 x 900;1440 x 900
H017;19;Vrouwelijk;Rechts;3;20;right;no;100;rightarrow;374;true;focus;yes;606296;Chrome;112.0;macOS;10.15.7;undefined;undefined;1440 x 900;1440 x 900
H017;19;Vrouwelijk;Rechts;3;21;left;no;100;rightarrow;379;false;focus;yes;607452;Chrome;112.0;macOS;10.15.7;undefined;undefined;1440 x 900;1440 x 900
H017;19;Vrouwelijk;Rechts;3;22;right;yes;100;rightarrow;497;false;focus;yes;608712;Chrome;112.0;macOS;10.15.7;undefined;undefined;1440 x 900;1440 x 900
H017;19;Vrouwelijk;Rechts;3;23;left;no;50;leftarrow;450;true;focus;yes;609941;Chrome;112.0;macOS;10.15.7;undefined;undefined;1440 x 900;1440 x 900
H017;19;Vrouwelijk;Rechts;3;24;right;no;50;rightarrow;480;true;focus;yes;611194;Chrome;112.0;macOS;10.15.7;undefined;undefined;1440 x 900;1440 x 900
H017;19;Vrouwelijk;Rechts;3;25;right;no;50;rightarrow;434;true;focus;yes;612389;Chrome;112.0;macOS;10.15.7;undefined;undefined;1440 x 900;1440 x 900
H017;19;Vrouwelijk;Rechts;3;26;right;no;50;rightarrow;414;true;focus;yes;613565;Chrome;112.0;macOS;10.15.7;undefined;undefined;1440 x 900;1440 x 900
H017;19;Vrouwelijk;Rechts;3;27;right;yes;50;undefined;null;true;focus;yes;615584;Chrome;112.0;macOS;10.15.7;undefined;undefined;1440 x 900;1440 x 900
H017;19;Vrouwelijk;Rechts;3;28;left;yes;100;undefined;null;true;focus;yes;617616;Chrome;112.0;macOS;10.15.7;undefined;undefined;1440 x 900;1440 x 900
H017;19;Vrouwelijk;Rechts;3;29;left;no;150;leftarrow;442;true;focus;yes;618829;Chrome;112.0;macOS;10.15.7;undefined;undefined;1440 x 900;1440 x 900
H017;19;Vrouwelijk;Rechts;3;30;left;no;150;leftarrow;440;true;focus;yes;620042;Chrome;112.0;macOS;10.15.7;undefined;undefined;1440 x 900;1440 x 900
H017;19;Vrouwelijk;Rechts;3;31;left;no;150;leftarrow;442;true;focus;yes;621250;Chrome;112.0;macOS;10.15.7;undefined;undefined;1440 x 900;1440 x 900
H017;19;Vrouwelijk;Rechts;3;32;right;no;150;rightarrow;477;true;focus;yes;622492;Chrome;112.0;macOS;10.15.7;undefined;undefined;1440 x 900;1440 x 900
H017;19;Vrouwelijk;Rechts;3;33;left;no;150;leftarrow;497;true;focus;yes;623762;Chrome;112.0;macOS;10.15.7;undefined;undefined;1440 x 900;1440 x 900
H017;19;Vrouwelijk;Rechts;3;34;right;yes;150;undefined;null;true;focus;yes;625784;Chrome;112.0;macOS;10.15.7;undefined;undefined;1440 x 900;1440 x 900
H017;19;Vrouwelijk;Rechts;3;35;right;no;200;rightarrow;450;true;focus;yes;627006;Chrome;112.0;macOS;10.15.7;undefined;undefined;1440 x 900;1440 x 900
H017;19;Vrouwelijk;Rechts;3;36;right;no;200;rightarrow;426;true;focus;yes;628203;Chrome;112.0;macOS;10.15.7;undefined;undefined;1440 x 900;1440 x 900
H017;19;Vrouwelijk;Rechts;3;37;left;no;200;leftarrow;459;true;focus;yes;629422;Chrome;112.0;macOS;10.15.7;undefined;undefined;1440 x 900;1440 x 900
H017;19;Vrouwelijk;Rechts;3;38;left;no;200;leftarrow;421;true;focus;yes;630604;Chrome;112.0;macOS;10.15.7;undefined;undefined;1440 x 900;1440 x 900
H017;19;Vrouwelijk;Rechts;3;39;right;no;200;rightarrow;493;true;focus;yes;631861;Chrome;112.0;macOS;10.15.7;undefined;undefined;1440 x 900;1440 x 900
H017;19;Vrouwelijk;Rechts;3;40;left;yes;200;leftarrow;423;false;focus;yes;633054;Chrome;112.0;macOS;10.15.7;undefined;undefined;1440 x 900;1440 x 900
H017;19;Vrouwelijk;Rechts;3;41;left;no;150;leftarrow;506;true;focus;yes;634332;Chrome;112.0;macOS;10.15.7;undefined;undefined;1440 x 900;1440 x 900
H017;19;Vrouwelijk;Rechts;3;42;right;yes;150;undefined;null;true;focus;yes;636347;Chrome;112.0;macOS;10.15.7;undefined;undefined;1440 x 900;1440 x 900
H017;19;Vrouwelijk;Rechts;3;43;left;no;200;leftarrow;476;true;focus;yes;637591;Chrome;112.0;macOS;10.15.7;undefined;undefined;1440 x 900;1440 x 900
H017;19;Vrouwelijk;Rechts;3;44;left;no;200;leftarrow;420;true;focus;yes;638780;Chrome;112.0;macOS;10.15.7;undefined;undefined;1440 x 900;1440 x 900
H017;19;Vrouwelijk;Rechts;3;45;left;yes;200;leftarrow;434;false;focus;yes;639974;Chrome;112.0;macOS;10.15.7;undefined;undefined;1440 x 900;1440 x 900
H017;19;Vrouwelijk;Rechts;3;46;right;no;150;rightarrow;482;true;focus;yes;641225;Chrome;112.0;macOS;10.15.7;undefined;undefined;1440 x 900;1440 x 900
H017;19;Vrouwelijk;Rechts;3;47;right;no;150;rightarrow;446;true;focus;yes;642447;Chrome;112.0;macOS;10.15.7;undefined;undefined;1440 x 900;1440 x 900
H017;19;Vrouwelijk;Rechts;3;48;right;no;150;rightarrow;448;true;focus;yes;643664;Chrome;112.0;macOS;10.15.7;undefined;undefined;1440 x 900;1440 x 900
H017;19;Vrouwelijk;Rechts;3;49;right;no;150;rightarrow;416;true;focus;yes;644848;Chrome;112.0;macOS;10.15.7;undefined;undefined;1440 x 900;1440 x 900
H017;19;Vrouwelijk;Rechts;3;50;right;no;150;rightarrow;438;true;focus;yes;646053;Chrome;112.0;macOS;10.15.7;undefined;undefined;1440 x 900;1440 x 900
H017;19;Vrouwelijk;Rechts;3;51;right;no;150;rightarrow;436;true;focus;yes;647247;Chrome;112.0;macOS;10.15.7;undefined;undefined;1440 x 900;1440 x 900
H017;19;Vrouwelijk;Rechts;3;52;left;yes;150;undefined;null;true;focus;yes;649275;Chrome;112.0;macOS;10.15.7;undefined;undefined;1440 x 900;1440 x 900
H017;19;Vrouwelijk;Rechts;3;53;left;no;200;leftarrow;444;true;focus;yes;650492;Chrome;112.0;macOS;10.15.7;undefined;undefined;1440 x 900;1440 x 900
H017;19;Vrouwelijk;Rechts;3;54;right;yes;200;undefined;null;true;focus;yes;652507;Chrome;112.0;macOS;10.15.7;undefined;undefined;1440 x 900;1440 x 900
H017;19;Vrouwelijk;Rechts;3;55;left;no;250;leftarrow;494;true;focus;yes;653769;Chrome;112.0;macOS;10.15.7;undefined;undefined;1440 x 900;1440 x 900
H017;19;Vrouwelijk;Rechts;3;56;left;no;250;leftarrow;419;true;focus;yes;654950;Chrome;112.0;macOS;10.15.7;undefined;undefined;1440 x 900;1440 x 900
H017;19;Vrouwelijk;Rechts;3;57;right;yes;250;rightarrow;470;false;focus;yes;656182;Chrome;112.0;macOS;10.15.7;undefined;undefined;1440 x 900;1440 x 900
H017;19;Vrouwelijk;Rechts;3;58;right;no;200;rightarrow;448;true;focus;yes;657411;Chrome;112.0;macOS;10.15.7;undefined;undefined;1440 x 900;1440 x 900
H017;19;Vrouwelijk;Rechts;3;59;right;no;200;rightarrow;439;true;focus;yes;658614;Chrome;112.0;macOS;10.15.7;undefined;undefined;1440 x 900;1440 x 900
H017;19;Vrouwelijk;Rechts;3;60;right;no;200;rightarrow;417;true;focus;yes;659802;Chrome;112.0;macOS;10.15.7;undefined;undefined;1440 x 900;1440 x 900
H017;19;Vrouwelijk;Rechts;3;61;left;no;200;leftarrow;484;true;focus;yes;661062;Chrome;112.0;macOS;10.15.7;undefined;undefined;1440 x 900;1440 x 900
H017;19;Vrouwelijk;Rechts;3;62;left;no;200;leftarrow;436;true;focus;yes;662259;Chrome;112.0;macOS;10.15.7;undefined;undefined;1440 x 900;1440 x 900
H017;19;Vrouwelijk;Rechts;3;63;left;yes;200;leftarrow;433;false;focus;yes;663458;Chrome;112.0;macOS;10.15.7;undefined;undefined;1440 x 900;1440 x 900
H017;19;Vrouwelijk;Rechts;3;64;left;no;150;leftarrow;429;true;focus;yes;664653;Chrome;112.0;macOS;10.15.7;undefined;undefined;1440 x 900;1440 x 900
H017;19;Vrouwelijk;Rechts;3;65;left;no;150;leftarrow;423;true;focus;yes;665839;Chrome;112.0;macOS;10.15.7;undefined;undefined;1440 x 900;1440 x 900
H017;19;Vrouwelijk;Rechts;3;66;left;no;150;leftarrow;413;true;focus;yes;667017;Chrome;112.0;macOS;10.15.7;undefined;undefined;1440 x 900;1440 x 900
H017;19;Vrouwelijk;Rechts;3;67;left;yes;150;leftarrow;407;false;focus;yes;668185;Chrome;112.0;macOS;10.15.7;undefined;undefined;1440 x 900;1440 x 900
H017;19;Vrouwelijk;Rechts;3;68;right;yes;100;undefined;null;true;focus;yes;670208;Chrome;112.0;macOS;10.15.7;undefined;undefined;1440 x 900;1440 x 900
H017;19;Vrouwelijk;Rechts;3;69;right;no;150;rightarrow;466;true;focus;yes;671445;Chrome;112.0;macOS;10.15.7;undefined;undefined;1440 x 900;1440 x 900
H017;19;Vrouwelijk;Rechts;3;70;right;no;150;rightarrow;505;true;focus;yes;672709;Chrome;112.0;macOS;10.15.7;undefined;undefined;1440 x 900;1440 x 900
H017;19;Vrouwelijk;Rechts;3;71;right;no;150;rightarrow;432;true;focus;yes;673904;Chrome;112.0;macOS;10.15.7;undefined;undefined;1440 x 900;1440 x 900
H017;19;Vrouwelijk;Rechts;3;72;left;no;150;leftarrow;518;true;focus;yes;675189;Chrome;112.0;macOS;10.15.7;undefined;undefined;1440 x 900;1440 x 900
H017;19;Vrouwelijk;Rechts;3;73;left;no;150;leftarrow;413;true;focus;yes;676364;Chrome;112.0;macOS;10.15.7;undefined;undefined;1440 x 900;1440 x 900
H017;19;Vrouwelijk;Rechts;3;74;left;no;150;leftarrow;466;true;focus;yes;677589;Chrome;112.0;macOS;10.15.7;undefined;undefined;1440 x 900;1440 x 900
H017;19;Vrouwelijk;Rechts;3;75;left;yes;150;undefined;null;true;focus;yes;679605;Chrome;112.0;macOS;10.15.7;undefined;undefined;1440 x 900;1440 x 900
H017;19;Vrouwelijk;Rechts;3;76;right;no;200;rightarrow;522;true;focus;yes;680889;Chrome;112.0;macOS;10.15.7;undefined;undefined;1440 x 900;1440 x 900
H017;19;Vrouwelijk;Rechts;3;77;right;no;200;rightarrow;438;true;focus;yes;682102;Chrome;112.0;macOS;10.15.7;undefined;undefined;1440 x 900;1440 x 900
H017;19;Vrouwelijk;Rechts;3;78;right;yes;200;rightarrow;446;false;focus;yes;683310;Chrome;112.0;macOS;10.15.7;undefined;undefined;1440 x 900;1440 x 900
H017;19;Vrouwelijk;Rechts;3;84;left;yes;200;leftarrow;469;false;focus;yes;691593;Chrome;112.0;macOS;10.15.7;undefined;undefined;1440 x 900;1440 x 900
H017;19;Vrouwelijk;Rechts;3;85;right;no;150;rightarrow;468;true;focus;yes;692838;Chrome;112.0;macOS;10.15.7;undefined;undefined;1440 x 900;1440 x 900
H017;19;Vrouwelijk;Rechts;3;86;left;no;150;leftarrow;485;true;focus;yes;694085;Chrome;112.0;macOS;10.15.7;undefined;undefined;1440 x 900;1440 x 900
H017;19;Vrouwelijk;Rechts;3;87;left;no;150;leftarrow;460;true;focus;yes;695308;Chrome;112.0;macOS;10.15.7;undefined;undefined;1440 x 900;1440 x 900
H017;19;Vrouwelijk;Rechts;3;88;right;no;150;rightarrow;477;true;focus;yes;696545;Chrome;112.0;macOS;10.15.7;undefined;undefined;1440 x 900;1440 x 900
H017;19;Vrouwelijk;Rechts;3;89;left;no;150;leftarrow;521;true;focus;yes;697833;Chrome;112.0;macOS;10.15.7;undefined;undefined;1440 x 900;1440 x 900
H017;19;Vrouwelijk;Rechts;3;79;right;no;150;rightarrow;497;true;focus;yes;684565;Chrome;112.0;macOS;10.15.7;undefined;undefined;1440 x 900;1440 x 900
H017;19;Vrouwelijk;Rechts;3;82;left;no;200;leftarrow;476;true;focus;yes;689104;Chrome;112.0;macOS;10.15.7;undefined;undefined;1440 x 900;1440 x 900
H017;19;Vrouwelijk;Rechts;3;80;left;no;150;leftarrow;490;true;focus;yes;685814;Chrome;112.0;macOS;10.15.7;undefined;undefined;1440 x 900;1440 x 900
H017;19;Vrouwelijk;Rechts;3;81;right;yes;150;undefined;null;true;focus;yes;687848;Chrome;112.0;macOS;10.15.7;undefined;undefined;1440 x 900;1440 x 900
H017;19;Vrouwelijk;Rechts;3;83;right;no;200;rightarrow;479;true;focus;yes;690361;Chrome;112.0;macOS;10.15.7;undefined;undefined;1440 x 900;1440 x 900
H017;19;Vrouwelijk;Rechts;3;90;left;yes;150;undefined;null;true;focus;yes;699872;Chrome;112.0;macOS;10.15.7;undefined;undefined;1440 x 900;1440 x 900
H017;19;Vrouwelijk;Rechts;3;91;left;no;200;leftarrow;415;true;focus;yes;701067;Chrome;112.0;macOS;10.15.7;undefined;undefined;1440 x 900;1440 x 900
H017;19;Vrouwelijk;Rechts;3;93;right;yes;200;rightarrow;457;false;focus;yes;703563;Chrome;112.0;macOS;10.15.7;undefined;undefined;1440 x 900;1440 x 900
H017;19;Vrouwelijk;Rechts;3;92;right;no;200;rightarrow;485;true;focus;yes;702327;Chrome;112.0;macOS;10.15.7;undefined;undefined;1440 x 900;1440 x 900
H017;19;Vrouwelijk;Rechts;3;94;left;no;150;leftarrow;391;true;focus;yes;704729;Chrome;112.0;macOS;10.15.7;undefined;undefined;1440 x 900;1440 x 900
H017;19;Vrouwelijk;Rechts;3;96;right;no;150;rightarrow;430;true;focus;yes;707254;Chrome;112.0;macOS;10.15.7;undefined;undefined;1440 x 900;1440 x 900
H017;19;Vrouwelijk;Rechts;3;97;right;no;150;rightarrow;449;true;focus;yes;708474;Chrome;112.0;macOS;10.15.7;undefined;undefined;1440 x 900;1440 x 900
H017;19;Vrouwelijk;Rechts;3;95;right;no;150;rightarrow;564;true;focus;yes;706056;Chrome;112.0;macOS;10.15.7;undefined;undefined;1440 x 900;1440 x 900
H017;19;Vrouwelijk;Rechts;3;98;right;no;150;rightarrow;435;true;focus;yes;709675;Chrome;112.0;macOS;10.15.7;undefined;undefined;1440 x 900;1440 x 900
H017;19;Vrouwelijk;Rechts;3;99;left;no;150;leftarrow;520;true;focus;yes;710958;Chrome;112.0;macOS;10.15.7;undefined;undefined;1440 x 900;1440 x 900
H017;19;Vrouwelijk;Rechts;3;102;right;yes;200;rightarrow;497;false;focus;yes;715440;Chrome;112.0;macOS;10.15.7;undefined;undefined;1440 x 900;1440 x 900
H017;19;Vrouwelijk;Rechts;3;100;left;yes;150;undefined;null;true;focus;yes;712981;Chrome;112.0;macOS;10.15.7;undefined;undefined;1440 x 900;1440 x 900
H017;19;Vrouwelijk;Rechts;3;101;left;no;200;leftarrow;423;true;focus;yes;714175;Chrome;112.0;macOS;10.15.7;undefined;undefined;1440 x 900;1440 x 900
H017;19;Vrouwelijk;Rechts;3;103;left;no;150;leftarrow;461;true;focus;yes;716668;Chrome;112.0;macOS;10.15.7;undefined;undefined;1440 x 900;1440 x 900
H017;19;Vrouwelijk;Rechts;3;104;right;no;150;rightarrow;468;true;focus;yes;717899;Chrome;112.0;macOS;10.15.7;undefined;undefined;1440 x 900;1440 x 900
H017;19;Vrouwelijk;Rechts;3;105;right;no;150;rightarrow;442;true;focus;yes;719105;Chrome;112.0;macOS;10.15.7;undefined;undefined;1440 x 900;1440 x 900
H017;19;Vrouwelijk;Rechts;3;106;left;yes;150;leftarrow;495;false;focus;yes;720376;Chrome;112.0;macOS;10.15.7;undefined;undefined;1440 x 900;1440 x 900
H017;19;Vrouwelijk;Rechts;3;109;left;no;100;leftarrow;430;true;focus;yes;724014;Chrome;112.0;macOS;10.15.7;undefined;undefined;1440 x 900;1440 x 900
H017;19;Vrouwelijk;Rechts;3;110;right;yes;100;undefined;null;true;focus;yes;726032;Chrome;112.0;macOS;10.15.7;undefined;undefined;1440 x 900;1440 x 900
H017;19;Vrouwelijk;Rechts;3;108;left;no;100;leftarrow;413;true;focus;yes;722817;Chrome;112.0;macOS;10.15.7;undefined;undefined;1440 x 900;1440 x 900
H017;19;Vrouwelijk;Rechts;3;107;left;no;100;leftarrow;503;true;focus;yes;721646;Chrome;112.0;macOS;10.15.7;undefined;undefined;1440 x 900;1440 x 900
H017;19;Vrouwelijk;Rechts;3;111;right;no;150;rightarrow;661;true;focus;yes;727473;Chrome;112.0;macOS;10.15.7;undefined;undefined;1440 x 900;1440 x 900
H017;19;Vrouwelijk;Rechts;3;112;right;no;150;rightarrow;385;true;focus;yes;728635;Chrome;112.0;macOS;10.15.7;undefined;undefined;1440 x 900;1440 x 900
H017;19;Vrouwelijk;Rechts;3;113;left;no;150;leftarrow;485;true;focus;yes;729886;Chrome;112.0;macOS;10.15.7;undefined;undefined;1440 x 900;1440 x 900
H017;19;Vrouwelijk;Rechts;3;115;right;no;100;rightarrow;420;true;focus;yes;732281;Chrome;112.0;macOS;10.15.7;undefined;undefined;1440 x 900;1440 x 900
H017;19;Vrouwelijk;Rechts;3;114;right;yes;150;rightarrow;454;false;focus;yes;731102;Chrome;112.0;macOS;10.15.7;undefined;undefined;1440 x 900;1440 x 900
H017;19;Vrouwelijk;Rechts;3;116;left;no;100;leftarrow;484;true;focus;yes;733531;Chrome;112.0;macOS;10.15.7;undefined;undefined;1440 x 900;1440 x 900
H017;19;Vrouwelijk;Rechts;3;118;left;no;150;leftarrow;448;true;focus;yes;736788;Chrome;112.0;macOS;10.15.7;undefined;undefined;1440 x 900;1440 x 900
H017;19;Vrouwelijk;Rechts;3;117;left;yes;100;undefined;null;true;focus;yes;735564;Chrome;112.0;macOS;10.15.7;undefined;undefined;1440 x 900;1440 x 900
H017;19;Vrouwelijk;Rechts;3;119;right;no;150;rightarrow;473;true;focus;yes;738024;Chrome;112.0;macOS;10.15.7;undefined;undefined;1440 x 900;1440 x 900
H017;19;Vrouwelijk;Rechts;3;120;right;no;150;rightarrow;390;true;focus;yes;739178;Chrome;112.0;macOS;10.15.7;undefined;undefined;1440 x 900;1440 x 900
H017;19;Vrouwelijk;Rechts;3;121;left;yes;150;undefined;null;true;focus;yes;741200;Chrome;112.0;macOS;10.15.7;undefined;undefined;1440 x 900;1440 x 900
H017;19;Vrouwelijk;Rechts;3;122;right;yes;200;undefined;null;true;focus;yes;743232;Chrome;112.0;macOS;10.15.7;undefined;undefined;1440 x 900;1440 x 900
H017;19;Vrouwelijk;Rechts;3;123;left;no;250;leftarrow;486;true;focus;yes;744490;Chrome;112.0;macOS;10.15.7;undefined;undefined;1440 x 900;1440 x 900
H017;19;Vrouwelijk;Rechts;3;124;right;no;250;rightarrow;502;true;focus;yes;745767;Chrome;112.0;macOS;10.15.7;undefined;undefined;1440 x 900;1440 x 900
H017;19;Vrouwelijk;Rechts;3;125;left;no;250;leftarrow;422;true;focus;yes;746968;Chrome;112.0;macOS;10.15.7;undefined;undefined;1440 x 900;1440 x 900
H017;19;Vrouwelijk;Rechts;3;126;right;no;250;rightarrow;450;true;focus;yes;748195;Chrome;112.0;macOS;10.15.7;undefined;undefined;1440 x 900;1440 x 900
H017;19;Vrouwelijk;Rechts;3;127;right;no;250;rightarrow;473;true;focus;yes;749433;Chrome;112.0;macOS;10.15.7;undefined;undefined;1440 x 900;1440 x 900
H017;19;Vrouwelijk;Rechts;3;128;left;no;250;leftarrow;467;true;focus;yes;750667;Chrome;112.0;macOS;10.15.7;undefined;undefined;1440 x 900;1440 x 900
H017;19;Vrouwelijk;Rechts;4;1;right;yes;250;rightarrow;461;false;focus;yes;770025;Chrome;112.0;macOS;10.15.7;undefined;undefined;1440 x 900;1440 x 900
H017;19;Vrouwelijk;Rechts;4;2;left;yes;200;undefined;null;true;focus;yes;772048;Chrome;112.0;macOS;10.15.7;undefined;undefined;1440 x 900;1440 x 900
H017;19;Vrouwelijk;Rechts;4;3;left;no;250;leftarrow;420;true;focus;yes;773241;Chrome;112.0;macOS;10.15.7;undefined;undefined;1440 x 900;1440 x 900
H017;19;Vrouwelijk;Rechts;4;4;right;no;250;rightarrow;484;true;focus;yes;774491;Chrome;112.0;macOS;10.15.7;undefined;undefined;1440 x 900;1440 x 900
H017;19;Vrouwelijk;Rechts;4;5;left;no;250;leftarrow;548;true;focus;yes;775812;Chrome;112.0;macOS;10.15.7;undefined;undefined;1440 x 900;1440 x 900
H017;19;Vrouwelijk;Rechts;4;6;right;no;250;rightarrow;449;true;focus;yes;777024;Chrome;112.0;macOS;10.15.7;undefined;undefined;1440 x 900;1440 x 900
H017;19;Vrouwelijk;Rechts;4;7;right;no;250;rightarrow;399;true;focus;yes;778200;Chrome;112.0;macOS;10.15.7;undefined;undefined;1440 x 900;1440 x 900
H017;19;Vrouwelijk;Rechts;4;8;left;no;250;leftarrow;443;true;focus;yes;779412;Chrome;112.0;macOS;10.15.7;undefined;undefined;1440 x 900;1440 x 900
H017;19;Vrouwelijk;Rechts;4;9;left;yes;250;leftarrow;480;false;focus;yes;780655;Chrome;112.0;macOS;10.15.7;undefined;undefined;1440 x 900;1440 x 900
H017;19;Vrouwelijk;Rechts;4;10;left;no;200;leftarrow;446;true;focus;yes;781881;Chrome;112.0;macOS;10.15.7;undefined;undefined;1440 x 900;1440 x 900
H017;19;Vrouwelijk;Rechts;4;11;left;no;200;leftarrow;416;true;focus;yes;783074;Chrome;112.0;macOS;10.15.7;undefined;undefined;1440 x 900;1440 x 900
H017;19;Vrouwelijk;Rechts;4;12;right;yes;200;rightarrow;483;false;focus;yes;784319;Chrome;112.0;macOS;10.15.7;undefined;undefined;1440 x 900;1440 x 900
H017;19;Vrouwelijk;Rechts;4;13;left;no;150;leftarrow;412;true;focus;yes;785496;Chrome;112.0;macOS;10.15.7;undefined;undefined;1440 x 900;1440 x 900
H017;19;Vrouwelijk;Rechts;4;14;right;no;150;rightarrow;476;true;focus;yes;786749;Chrome;112.0;macOS;10.15.7;undefined;undefined;1440 x 900;1440 x 900
H017;19;Vrouwelijk;Rechts;4;15;right;no;150;rightarrow;453;true;focus;yes;787965;Chrome;112.0;macOS;10.15.7;undefined;undefined;1440 x 900;1440 x 900
H017;19;Vrouwelijk;Rechts;4;16;right;no;150;rightarrow;398;true;focus;yes;789126;Chrome;112.0;macOS;10.15.7;undefined;undefined;1440 x 900;1440 x 900
H017;19;Vrouwelijk;Rechts;4;17;left;no;150;leftarrow;460;true;focus;yes;790357;Chrome;112.0;macOS;10.15.7;undefined;undefined;1440 x 900;1440 x 900
H017;19;Vrouwelijk;Rechts;4;18;right;yes;150;undefined;null;true;focus;yes;792376;Chrome;112.0;macOS;10.15.7;undefined;undefined;1440 x 900;1440 x 900
H017;19;Vrouwelijk;Rechts;4;19;right;no;200;rightarrow;478;true;focus;yes;793626;Chrome;112.0;macOS;10.15.7;undefined;undefined;1440 x 900;1440 x 900
H017;19;Vrouwelijk;Rechts;4;20;right;no;200;rightarrow;395;true;focus;yes;794786;Chrome;112.0;macOS;10.15.7;undefined;undefined;1440 x 900;1440 x 900
H017;19;Vrouwelijk;Rechts;4;21;left;no;200;leftarrow;469;true;focus;yes;796021;Chrome;112.0;macOS;10.15.7;undefined;undefined;1440 x 900;1440 x 900
H017;19;Vrouwelijk;Rechts;4;22;left;yes;200;leftarrow;413;false;focus;yes;797196;Chrome;112.0;macOS;10.15.7;undefined;undefined;1440 x 900;1440 x 900
H017;19;Vrouwelijk;Rechts;4;23;right;no;150;rightarrow;433;true;focus;yes;798401;Chrome;112.0;macOS;10.15.7;undefined;undefined;1440 x 900;1440 x 900
H017;19;Vrouwelijk;Rechts;4;24;left;no;150;leftarrow;461;true;focus;yes;799628;Chrome;112.0;macOS;10.15.7;undefined;undefined;1440 x 900;1440 x 900
H017;19;Vrouwelijk;Rechts;4;25;left;no;150;leftarrow;415;true;focus;yes;800806;Chrome;112.0;macOS;10.15.7;undefined;undefined;1440 x 900;1440 x 900
H017;19;Vrouwelijk;Rechts;4;26;right;no;150;rightarrow;495;true;focus;yes;802060;Chrome;112.0;macOS;10.15.7;undefined;undefined;1440 x 900;1440 x 900
H017;19;Vrouwelijk;Rechts;4;27;right;no;150;rightarrow;405;true;focus;yes;803239;Chrome;112.0;macOS;10.15.7;undefined;undefined;1440 x 900;1440 x 900
H017;19;Vrouwelijk;Rechts;4;28;left;yes;150;leftarrow;525;false;focus;yes;804541;Chrome;112.0;macOS;10.15.7;undefined;undefined;1440 x 900;1440 x 900
H017;19;Vrouwelijk;Rechts;4;29;right;no;100;rightarrow;456;true;focus;yes;805759;Chrome;112.0;macOS;10.15.7;undefined;undefined;1440 x 900;1440 x 900
H017;19;Vrouwelijk;Rechts;4;30;left;no;100;leftarrow;467;true;focus;yes;806994;Chrome;112.0;macOS;10.15.7;undefined;undefined;1440 x 900;1440 x 900
H017;19;Vrouwelijk;Rechts;4;31;left;no;100;leftarrow;616;true;focus;yes;808376;Chrome;112.0;macOS;10.15.7;undefined;undefined;1440 x 900;1440 x 900
H017;19;Vrouwelijk;Rechts;4;32;right;yes;100;undefined;null;true;focus;yes;810400;Chrome;112.0;macOS;10.15.7;undefined;undefined;1440 x 900;1440 x 900
H017;19;Vrouwelijk;Rechts;4;33;right;no;150;rightarrow;446;true;focus;yes;811627;Chrome;112.0;macOS;10.15.7;undefined;undefined;1440 x 900;1440 x 900
H017;19;Vrouwelijk;Rechts;4;34;right;no;150;rightarrow;429;true;focus;yes;812828;Chrome;112.0;macOS;10.15.7;undefined;undefined;1440 x 900;1440 x 900
H017;19;Vrouwelijk;Rechts;4;35;right;yes;150;rightarrow;374;false;focus;yes;813976;Chrome;112.0;macOS;10.15.7;undefined;undefined;1440 x 900;1440 x 900
H017;19;Vrouwelijk;Rechts;4;36;left;no;100;leftarrow;435;true;focus;yes;815171;Chrome;112.0;macOS;10.15.7;undefined;undefined;1440 x 900;1440 x 900
H017;19;Vrouwelijk;Rechts;4;37;left;no;100;leftarrow;429;true;focus;yes;816360;Chrome;112.0;macOS;10.15.7;undefined;undefined;1440 x 900;1440 x 900
H017;19;Vrouwelijk;Rechts;4;38;right;no;100;rightarrow;469;true;focus;yes;817606;Chrome;112.0;macOS;10.15.7;undefined;undefined;1440 x 900;1440 x 900
H017;19;Vrouwelijk;Rechts;4;39;left;yes;100;undefined;null;true;focus;yes;819639;Chrome;112.0;macOS;10.15.7;undefined;undefined;1440 x 900;1440 x 900
H017;19;Vrouwelijk;Rechts;4;40;left;no;150;leftarrow;457;true;focus;yes;820877;Chrome;112.0;macOS;10.15.7;undefined;undefined;1440 x 900;1440 x 900
H017;19;Vrouwelijk;Rechts;4;41;right;yes;150;undefined;null;true;focus;yes;822896;Chrome;112.0;macOS;10.15.7;undefined;undefined;1440 x 900;1440 x 900
H017;19;Vrouwelijk;Rechts;4;42;left;yes;200;undefined;null;true;focus;yes;824928;Chrome;112.0;macOS;10.15.7;undefined;undefined;1440 x 900;1440 x 900
H017;19;Vrouwelijk;Rechts;4;43;right;no;250;rightarrow;500;true;focus;yes;826208;Chrome;112.0;macOS;10.15.7;undefined;undefined;1440 x 900;1440 x 900
H017;19;Vrouwelijk;Rechts;4;44;right;no;250;rightarrow;450;true;focus;yes;827437;Chrome;112.0;macOS;10.15.7;undefined;undefined;1440 x 900;1440 x 900
H017;19;Vrouwelijk;Rechts;4;45;left;no;250;leftarrow;449;true;focus;yes;828658;Chrome;112.0;macOS;10.15.7;undefined;undefined;1440 x 900;1440 x 900
H017;19;Vrouwelijk;Rechts;4;46;left;no;250;leftarrow;419;true;focus;yes;829853;Chrome;112.0;macOS;10.15.7;undefined;undefined;1440 x 900;1440 x 900
H017;19;Vrouwelijk;Rechts;4;47;left;no;250;leftarrow;430;true;focus;yes;831055;Chrome;112.0;macOS;10.15.7;undefined;undefined;1440 x 900;1440 x 900
H017;19;Vrouwelijk;Rechts;4;48;right;no;250;rightarrow;493;true;focus;yes;832328;Chrome;112.0;macOS;10.15.7;undefined;undefined;1440 x 900;1440 x 900
H017;19;Vrouwelijk;Rechts;4;49;right;no;250;rightarrow;421;true;focus;yes;833527;Chrome;112.0;macOS;10.15.7;undefined;undefined;1440 x 900;1440 x 900
H017;19;Vrouwelijk;Rechts;4;50;right;no;250;rightarrow;397;true;focus;yes;834704;Chrome;112.0;macOS;10.15.7;undefined;undefined;1440 x 900;1440 x 900
H017;19;Vrouwelijk;Rechts;4;51;left;no;250;leftarrow;520;true;focus;yes;835991;Chrome;112.0;macOS;10.15.7;undefined;undefined;1440 x 900;1440 x 900
H017;19;Vrouwelijk;Rechts;4;52;left;yes;250;leftarrow;428;false;focus;yes;837189;Chrome;112.0;macOS;10.15.7;undefined;undefined;1440 x 900;1440 x 900
H017;19;Vrouwelijk;Rechts;4;53;right;no;200;rightarrow;645;true;focus;yes;838596;Chrome;112.0;macOS;10.15.7;undefined;undefined;1440 x 900;1440 x 900
H017;19;Vrouwelijk;Rechts;4;54;right;yes;200;rightarrow;418;false;focus;yes;839779;Chrome;112.0;macOS;10.15.7;undefined;undefined;1440 x 900;1440 x 900
H017;19;Vrouwelijk;Rechts;4;55;left;no;150;leftarrow;494;true;focus;yes;841048;Chrome;112.0;macOS;10.15.7;undefined;undefined;1440 x 900;1440 x 900
H017;19;Vrouwelijk;Rechts;4;56;left;no;150;leftarrow;403;true;focus;yes;842226;Chrome;112.0;macOS;10.15.7;undefined;undefined;1440 x 900;1440 x 900
H017;19;Vrouwelijk;Rechts;4;57;left;no;150;leftarrow;406;true;focus;yes;843397;Chrome;112.0;macOS;10.15.7;undefined;undefined;1440 x 900;1440 x 900
H017;19;Vrouwelijk;Rechts;4;58;right;yes;150;undefined;null;true;focus;yes;845416;Chrome;112.0;macOS;10.15.7;undefined;undefined;1440 x 900;1440 x 900
H017;19;Vrouwelijk;Rechts;4;59;right;no;200;rightarrow;456;true;focus;yes;846644;Chrome;112.0;macOS;10.15.7;undefined;undefined;1440 x 900;1440 x 900
H017;19;Vrouwelijk;Rechts;4;60;right;no;200;rightarrow;424;true;focus;yes;847828;Chrome;112.0;macOS;10.15.7;undefined;undefined;1440 x 900;1440 x 900
H017;19;Vrouwelijk;Rechts;4;61;right;no;200;rightarrow;387;true;focus;yes;848987;Chrome;112.0;macOS;10.15.7;undefined;undefined;1440 x 900;1440 x 900
H017;19;Vrouwelijk;Rechts;4;62;left;no;200;leftarrow;507;true;focus;yes;850269;Chrome;112.0;macOS;10.15.7;undefined;undefined;1440 x 900;1440 x 900
H017;19;Vrouwelijk;Rechts;4;63;left;yes;200;leftarrow;400;false;focus;yes;851441;Chrome;112.0;macOS;10.15.7;undefined;undefined;1440 x 900;1440 x 900
H017;19;Vrouwelijk;Rechts;4;64;left;no;150;leftarrow;416;true;focus;yes;852620;Chrome;112.0;macOS;10.15.7;undefined;undefined;1440 x 900;1440 x 900
H017;19;Vrouwelijk;Rechts;4;65;right;yes;150;undefined;null;true;focus;yes;854639;Chrome;112.0;macOS;10.15.7;undefined;undefined;1440 x 900;1440 x 900
H017;19;Vrouwelijk;Rechts;4;66;left;no;200;leftarrow;479;true;focus;yes;855891;Chrome;112.0;macOS;10.15.7;undefined;undefined;1440 x 900;1440 x 900
H017;19;Vrouwelijk;Rechts;4;67;right;no;200;rightarrow;498;true;focus;yes;857149;Chrome;112.0;macOS;10.15.7;undefined;undefined;1440 x 900;1440 x 900
H017;19;Vrouwelijk;Rechts;4;68;left;yes;200;leftarrow;468;false;focus;yes;858390;Chrome;112.0;macOS;10.15.7;undefined;undefined;1440 x 900;1440 x 900
H017;19;Vrouwelijk;Rechts;4;69;left;no;150;leftarrow;402;true;focus;yes;859564;Chrome;112.0;macOS;10.15.7;undefined;undefined;1440 x 900;1440 x 900
H017;19;Vrouwelijk;Rechts;4;70;left;no;150;leftarrow;439;true;focus;yes;860763;Chrome;112.0;macOS;10.15.7;undefined;undefined;1440 x 900;1440 x 900
H017;19;Vrouwelijk;Rechts;4;71;right;no;150;rightarrow;503;true;focus;yes;862030;Chrome;112.0;macOS;10.15.7;undefined;undefined;1440 x 900;1440 x 900
H017;19;Vrouwelijk;Rechts;4;72;right;no;150;rightarrow;419;true;focus;yes;863207;Chrome;112.0;macOS;10.15.7;undefined;undefined;1440 x 900;1440 x 900
H017;19;Vrouwelijk;Rechts;4;73;left;no;150;leftarrow;523;true;focus;yes;864499;Chrome;112.0;macOS;10.15.7;undefined;undefined;1440 x 900;1440 x 900
H017;19;Vrouwelijk;Rechts;4;74;right;yes;150;rightarrow;433;false;focus;yes;865708;Chrome;112.0;macOS;10.15.7;undefined;undefined;1440 x 900;1440 x 900
H017;19;Vrouwelijk;Rechts;4;75;right;no;100;rightarrow;486;true;focus;yes;866958;Chrome;112.0;macOS;10.15.7;undefined;undefined;1440 x 900;1440 x 900
H017;19;Vrouwelijk;Rechts;4;76;right;no;100;rightarrow;426;true;focus;yes;868142;Chrome;112.0;macOS;10.15.7;undefined;undefined;1440 x 900;1440 x 900
H017;19;Vrouwelijk;Rechts;4;77;left;no;100;leftarrow;452;true;focus;yes;869364;Chrome;112.0;macOS;10.15.7;undefined;undefined;1440 x 900;1440 x 900
H017;19;Vrouwelijk;Rechts;4;78;left;no;100;leftarrow;488;true;focus;yes;870615;Chrome;112.0;macOS;10.15.7;undefined;undefined;1440 x 900;1440 x 900
H017;19;Vrouwelijk;Rechts;4;79;left;yes;100;undefined;null;true;focus;yes;872639;Chrome;112.0;macOS;10.15.7;undefined;undefined;1440 x 900;1440 x 900
H017;19;Vrouwelijk;Rechts;4;80;right;no;150;rightarrow;464;true;focus;yes;873872;Chrome;112.0;macOS;10.15.7;undefined;undefined;1440 x 900;1440 x 900
H017;19;Vrouwelijk;Rechts;4;81;right;no;150;rightarrow;406;true;focus;yes;875046;Chrome;112.0;macOS;10.15.7;undefined;undefined;1440 x 900;1440 x 900
H017;19;Vrouwelijk;Rechts;4;82;left;no;150;leftarrow;469;true;focus;yes;876280;Chrome;112.0;macOS;10.15.7;undefined;undefined;1440 x 900;1440 x 900
H017;19;Vrouwelijk;Rechts;4;83;left;no;150;leftarrow;486;true;focus;yes;877530;Chrome;112.0;macOS;10.15.7;undefined;undefined;1440 x 900;1440 x 900
H017;19;Vrouwelijk;Rechts;4;84;right;yes;150;undefined;null;true;focus;yes;879564;Chrome;112.0;macOS;10.15.7;undefined;undefined;1440 x 900;1440 x 900
H017;19;Vrouwelijk;Rechts;4;85;right;no;200;rightarrow;485;true;focus;yes;880819;Chrome;112.0;macOS;10.15.7;undefined;undefined;1440 x 900;1440 x 900
H017;19;Vrouwelijk;Rechts;4;86;left;no;200;leftarrow;460;true;focus;yes;882042;Chrome;112.0;macOS;10.15.7;undefined;undefined;1440 x 900;1440 x 900
H017;19;Vrouwelijk;Rechts;4;87;left;yes;200;leftarrow;447;false;focus;yes;883264;Chrome;112.0;macOS;10.15.7;undefined;undefined;1440 x 900;1440 x 900
H017;19;Vrouwelijk;Rechts;4;88;right;no;150;rightarrow;535;true;focus;yes;884581;Chrome;112.0;macOS;10.15.7;undefined;undefined;1440 x 900;1440 x 900
H017;19;Vrouwelijk;Rechts;4;89;left;no;150;leftarrow;470;true;focus;yes;885811;Chrome;112.0;macOS;10.15.7;undefined;undefined;1440 x 900;1440 x 900
H017;19;Vrouwelijk;Rechts;4;90;left;no;150;leftarrow;506;true;focus;yes;887082;Chrome;112.0;macOS;10.15.7;undefined;undefined;1440 x 900;1440 x 900
H017;19;Vrouwelijk;Rechts;4;91;left;no;150;leftarrow;447;true;focus;yes;888295;Chrome;112.0;macOS;10.15.7;undefined;undefined;1440 x 900;1440 x 900
H017;19;Vrouwelijk;Rechts;4;92;right;no;150;rightarrow;508;true;focus;yes;889572;Chrome;112.0;macOS;10.15.7;undefined;undefined;1440 x 900;1440 x 900
H017;19;Vrouwelijk;Rechts;4;93;right;yes;150;undefined;null;true;focus;yes;891591;Chrome;112.0;macOS;10.15.7;undefined;undefined;1440 x 900;1440 x 900
H017;19;Vrouwelijk;Rechts;4;94;right;no;200;rightarrow;430;true;focus;yes;892800;Chrome;112.0;macOS;10.15.7;undefined;undefined;1440 x 900;1440 x 900
H017;19;Vrouwelijk;Rechts;4;95;right;no;200;rightarrow;498;true;focus;yes;894060;Chrome;112.0;macOS;10.15.7;undefined;undefined;1440 x 900;1440 x 900
H017;19;Vrouwelijk;Rechts;4;96;left;yes;200;undefined;null;true;focus;yes;896090;Chrome;112.0;macOS;10.15.7;undefined;undefined;1440 x 900;1440 x 900
H017;19;Vrouwelijk;Rechts;4;97;left;yes;250;leftarrow;487;false;focus;yes;897352;Chrome;112.0;macOS;10.15.7;undefined;undefined;1440 x 900;1440 x 900
H017;19;Vrouwelijk;Rechts;4;98;right;no;200;rightarrow;459;true;focus;yes;898587;Chrome;112.0;macOS;10.15.7;undefined;undefined;1440 x 900;1440 x 900
H017;19;Vrouwelijk;Rechts;4;99;left;no;200;leftarrow;514;true;focus;yes;899864;Chrome;112.0;macOS;10.15.7;undefined;undefined;1440 x 900;1440 x 900
H017;19;Vrouwelijk;Rechts;4;100;right;no;200;rightarrow;454;true;focus;yes;901093;Chrome;112.0;macOS;10.15.7;undefined;undefined;1440 x 900;1440 x 900
H017;19;Vrouwelijk;Rechts;4;101;right;no;200;rightarrow;394;true;focus;yes;902249;Chrome;112.0;macOS;10.15.7;undefined;undefined;1440 x 900;1440 x 900
H017;19;Vrouwelijk;Rechts;4;102;left;no;200;leftarrow;494;true;focus;yes;903516;Chrome;112.0;macOS;10.15.7;undefined;undefined;1440 x 900;1440 x 900
H017;19;Vrouwelijk;Rechts;4;103;left;no;200;leftarrow;440;true;focus;yes;904725;Chrome;112.0;macOS;10.15.7;undefined;undefined;1440 x 900;1440 x 900
H017;19;Vrouwelijk;Rechts;4;104;right;yes;200;rightarrow;466;false;focus;yes;905968;Chrome;112.0;macOS;10.15.7;undefined;undefined;1440 x 900;1440 x 900
H017;19;Vrouwelijk;Rechts;4;105;left;no;150;leftarrow;367;true;focus;yes;907111;Chrome;112.0;macOS;10.15.7;undefined;undefined;1440 x 900;1440 x 900
H017;19;Vrouwelijk;Rechts;4;106;right;yes;150;rightarrow;401;false;focus;yes;908288;Chrome;112.0;macOS;10.15.7;undefined;undefined;1440 x 900;1440 x 900
H017;19;Vrouwelijk;Rechts;4;107;right;no;100;rightarrow;490;true;focus;yes;909538;Chrome;112.0;macOS;10.15.7;undefined;undefined;1440 x 900;1440 x 900
H017;19;Vrouwelijk;Rechts;4;108;left;yes;100;undefined;null;true;focus;yes;911564;Chrome;112.0;macOS;10.15.7;undefined;undefined;1440 x 900;1440 x 900
H017;19;Vrouwelijk;Rechts;4;109;left;no;150;leftarrow;410;true;focus;yes;912750;Chrome;112.0;macOS;10.15.7;undefined;undefined;1440 x 900;1440 x 900
H017;19;Vrouwelijk;Rechts;4;110;right;no;150;rightarrow;439;true;focus;yes;913964;Chrome;112.0;macOS;10.15.7;undefined;undefined;1440 x 900;1440 x 900
H017;19;Vrouwelijk;Rechts;4;111;left;no;150;leftarrow;424;true;focus;yes;915155;Chrome;112.0;macOS;10.15.7;undefined;undefined;1440 x 900;1440 x 900
H017;19;Vrouwelijk;Rechts;4;112;right;no;150;rightarrow;650;true;focus;yes;916565;Chrome;112.0;macOS;10.15.7;undefined;undefined;1440 x 900;1440 x 900
H017;19;Vrouwelijk;Rechts;4;113;left;yes;150;leftarrow;460;false;focus;yes;917790;Chrome;112.0;macOS;10.15.7;undefined;undefined;1440 x 900;1440 x 900
H017;19;Vrouwelijk;Rechts;4;114;left;no;100;leftarrow;508;true;focus;yes;919073;Chrome;112.0;macOS;10.15.7;undefined;undefined;1440 x 900;1440 x 900
H017;19;Vrouwelijk;Rechts;4;115;right;yes;100;undefined;null;true;focus;yes;921091;Chrome;112.0;macOS;10.15.7;undefined;undefined;1440 x 900;1440 x 900
H017;19;Vrouwelijk;Rechts;4;116;right;no;150;rightarrow;407;true;focus;yes;922278;Chrome;112.0;macOS;10.15.7;undefined;undefined;1440 x 900;1440 x 900
H017;19;Vrouwelijk;Rechts;4;117;left;no;150;leftarrow;418;true;focus;yes;923472;Chrome;112.0;macOS;10.15.7;undefined;undefined;1440 x 900;1440 x 900
H017;19;Vrouwelijk;Rechts;4;118;right;no;150;rightarrow;425;true;focus;yes;924660;Chrome;112.0;macOS;10.15.7;undefined;undefined;1440 x 900;1440 x 900
H017;19;Vrouwelijk;Rechts;4;119;left;no;150;leftarrow;420;true;focus;yes;925856;Chrome;112.0;macOS;10.15.7;undefined;undefined;1440 x 900;1440 x 900
H017;19;Vrouwelijk;Rechts;4;120;right;no;150;rightarrow;359;true;focus;yes;926987;Chrome;112.0;macOS;10.15.7;undefined;undefined;1440 x 900;1440 x 900
H017;19;Vrouwelijk;Rechts;4;121;right;yes;150;undefined;null;true;focus;yes;929019;Chrome;112.0;macOS;10.15.7;undefined;undefined;1440 x 900;1440 x 900
H017;19;Vrouwelijk;Rechts;4;122;right;no;200;rightarrow;463;true;focus;yes;930253;Chrome;112.0;macOS;10.15.7;undefined;undefined;1440 x 900;1440 x 900
H017;19;Vrouwelijk;Rechts;4;123;right;no;200;rightarrow;527;true;focus;yes;931541;Chrome;112.0;macOS;10.15.7;undefined;undefined;1440 x 900;1440 x 900
H017;19;Vrouwelijk;Rechts;4;124;left;no;200;leftarrow;491;true;focus;yes;932794;Chrome;112.0;macOS;10.15.7;undefined;undefined;1440 x 900;1440 x 900
H017;19;Vrouwelijk;Rechts;4;125;right;no;200;rightarrow;454;true;focus;yes;934026;Chrome;112.0;macOS;10.15.7;undefined;undefined;1440 x 900;1440 x 900
H017;19;Vrouwelijk;Rechts;4;126;left;yes;200;leftarrow;491;false;focus;yes;935288;Chrome;112.0;macOS;10.15.7;undefined;undefined;1440 x 900;1440 x 900
H017;19;Vrouwelijk;Rechts;4;127;left;no;150;leftarrow;464;true;focus;yes;936511;Chrome;112.0;macOS;10.15.7;undefined;undefined;1440 x 900;1440 x 900
H017;19;Vrouwelijk;Rechts;4;128;left;no;150;leftarrow;413;true;focus;yes;937698;Chrome;112.0;macOS;10.15.7;undefined;undefined;1440 x 900;1440 x 900
H017;19;Vrouwelijk;Rechts;5;1;right;yes;150;undefined;null;true;focus;yes;959779;Chrome;112.0;macOS;10.15.7;undefined;undefined;1440 x 900;1440 x 900
H017;19;Vrouwelijk;Rechts;5;2;right;no;200;rightarrow;508;true;focus;yes;961059;Chrome;112.0;macOS;10.15.7;undefined;undefined;1440 x 900;1440 x 900
H017;19;Vrouwelijk;Rechts;5;3;left;no;200;leftarrow;465;true;focus;yes;962292;Chrome;112.0;macOS;10.15.7;undefined;undefined;1440 x 900;1440 x 900
H017;19;Vrouwelijk;Rechts;5;4;left;no;200;leftarrow;443;true;focus;yes;963498;Chrome;112.0;macOS;10.15.7;undefined;undefined;1440 x 900;1440 x 900
H017;19;Vrouwelijk;Rechts;5;5;left;no;200;leftarrow;424;true;focus;yes;964692;Chrome;112.0;macOS;10.15.7;undefined;undefined;1440 x 900;1440 x 900
H017;19;Vrouwelijk;Rechts;5;6;right;no;200;rightarrow;463;true;focus;yes;965921;Chrome;112.0;macOS;10.15.7;undefined;undefined;1440 x 900;1440 x 900
H017;19;Vrouwelijk;Rechts;5;7;left;yes;200;undefined;null;true;focus;yes;967959;Chrome;112.0;macOS;10.15.7;undefined;undefined;1440 x 900;1440 x 900
H017;19;Vrouwelijk;Rechts;5;8;right;no;250;rightarrow;429;true;focus;yes;969160;Chrome;112.0;macOS;10.15.7;undefined;undefined;1440 x 900;1440 x 900
H017;19;Vrouwelijk;Rechts;5;9;right;no;250;rightarrow;414;true;focus;yes;970337;Chrome;112.0;macOS;10.15.7;undefined;undefined;1440 x 900;1440 x 900
H017;19;Vrouwelijk;Rechts;5;10;left;no;250;leftarrow;482;true;focus;yes;971577;Chrome;112.0;macOS;10.15.7;undefined;undefined;1440 x 900;1440 x 900
H017;19;Vrouwelijk;Rechts;5;11;right;no;250;rightarrow;456;true;focus;yes;972815;Chrome;112.0;macOS;10.15.7;undefined;undefined;1440 x 900;1440 x 900
H017;19;Vrouwelijk;Rechts;5;12;left;yes;250;leftarrow;487;false;focus;yes;974075;Chrome;112.0;macOS;10.15.7;undefined;undefined;1440 x 900;1440 x 900
H017;19;Vrouwelijk;Rechts;5;13;left;no;200;leftarrow;434;true;focus;yes;975276;Chrome;112.0;macOS;10.15.7;undefined;undefined;1440 x 900;1440 x 900
H017;19;Vrouwelijk;Rechts;5;14;right;yes;200;rightarrow;492;false;focus;yes;976531;Chrome;112.0;macOS;10.15.7;undefined;undefined;1440 x 900;1440 x 900
H017;19;Vrouwelijk;Rechts;5;15;left;no;150;leftarrow;452;true;focus;yes;977761;Chrome;112.0;macOS;10.15.7;undefined;undefined;1440 x 900;1440 x 900
H017;19;Vrouwelijk;Rechts;5;16;right;no;150;rightarrow;618;true;focus;yes;979152;Chrome;112.0;macOS;10.15.7;undefined;undefined;1440 x 900;1440 x 900
H017;19;Vrouwelijk;Rechts;5;17;right;yes;150;undefined;null;true;focus;yes;981171;Chrome;112.0;macOS;10.15.7;undefined;undefined;1440 x 900;1440 x 900
H017;19;Vrouwelijk;Rechts;5;18;left;no;200;leftarrow;488;true;focus;yes;982435;Chrome;112.0;macOS;10.15.7;undefined;undefined;1440 x 900;1440 x 900
H017;19;Vrouwelijk;Rechts;5;19;right;no;200;rightarrow;433;true;focus;yes;983646;Chrome;112.0;macOS;10.15.7;undefined;undefined;1440 x 900;1440 x 900
H017;19;Vrouwelijk;Rechts;5;20;right;no;200;rightarrow;442;true;focus;yes;984854;Chrome;112.0;macOS;10.15.7;undefined;undefined;1440 x 900;1440 x 900
H017;19;Vrouwelijk;Rechts;5;21;left;yes;200;undefined;null;true;focus;yes;986875;Chrome;112.0;macOS;10.15.7;undefined;undefined;1440 x 900;1440 x 900
H017;19;Vrouwelijk;Rechts;5;22;right;no;250;rightarrow;516;true;focus;yes;988171;Chrome;112.0;macOS;10.15.7;undefined;undefined;1440 x 900;1440 x 900
H017;19;Vrouwelijk;Rechts;5;23;left;no;250;leftarrow;487;true;focus;yes;989422;Chrome;112.0;macOS;10.15.7;undefined;undefined;1440 x 900;1440 x 900
H017;19;Vrouwelijk;Rechts;5;24;left;no;250;leftarrow;512;true;focus;yes;990710;Chrome;112.0;macOS;10.15.7;undefined;undefined;1440 x 900;1440 x 900
H017;19;Vrouwelijk;Rechts;5;25;right;yes;250;rightarrow;437;false;focus;yes;991920;Chrome;112.0;macOS;10.15.7;undefined;undefined;1440 x 900;1440 x 900
H017;19;Vrouwelijk;Rechts;5;26;left;no;200;leftarrow;412;true;focus;yes;993095;Chrome;112.0;macOS;10.15.7;undefined;undefined;1440 x 900;1440 x 900
H017;19;Vrouwelijk;Rechts;5;27;left;no;200;leftarrow;509;true;focus;yes;994368;Chrome;112.0;macOS;10.15.7;undefined;undefined;1440 x 900;1440 x 900
H017;19;Vrouwelijk;Rechts;5;28;right;no;200;rightarrow;494;true;focus;yes;995624;Chrome;112.0;macOS;10.15.7;undefined;undefined;1440 x 900;1440 x 900
H017;19;Vrouwelijk;Rechts;5;29;right;no;200;rightarrow;430;true;focus;yes;996828;Chrome;112.0;macOS;10.15.7;undefined;undefined;1440 x 900;1440 x 900
H017;19;Vrouwelijk;Rechts;5;30;left;no;200;leftarrow;563;true;focus;yes;998154;Chrome;112.0;macOS;10.15.7;undefined;undefined;1440 x 900;1440 x 900
H017;19;Vrouwelijk;Rechts;5;31;left;yes;200;leftarrow;437;false;focus;yes;999369;Chrome;112.0;macOS;10.15.7;undefined;undefined;1440 x 900;1440 x 900
H017;19;Vrouwelijk;Rechts;5;32;right;no;150;rightarrow;445;true;focus;yes;1000587;Chrome;112.0;macOS;10.15.7;undefined;undefined;1440 x 900;1440 x 900
H017;19;Vrouwelijk;Rechts;5;33;left;no;150;leftarrow;465;true;focus;yes;1001820;Chrome;112.0;macOS;10.15.7;undefined;undefined;1440 x 900;1440 x 900
H017;19;Vrouwelijk;Rechts;5;34;left;no;150;leftarrow;429;true;focus;yes;1003017;Chrome;112.0;macOS;10.15.7;undefined;undefined;1440 x 900;1440 x 900
H017;19;Vrouwelijk;Rechts;5;35;left;no;150;leftarrow;422;true;focus;yes;1004217;Chrome;112.0;macOS;10.15.7;undefined;undefined;1440 x 900;1440 x 900
H017;19;Vrouwelijk;Rechts;5;36;left;yes;150;undefined;null;true;focus;yes;1006232;Chrome;112.0;macOS;10.15.7;undefined;undefined;1440 x 900;1440 x 900
H017;19;Vrouwelijk;Rechts;5;37;right;no;200;rightarrow;495;true;focus;yes;1007494;Chrome;112.0;macOS;10.15.7;undefined;undefined;1440 x 900;1440 x 900
H017;19;Vrouwelijk;Rechts;5;38;right;no;200;rightarrow;426;true;focus;yes;1008685;Chrome;112.0;macOS;10.15.7;undefined;undefined;1440 x 900;1440 x 900
H017;19;Vrouwelijk;Rechts;5;39;right;no;200;rightarrow;447;true;focus;yes;1009894;Chrome;112.0;macOS;10.15.7;undefined;undefined;1440 x 900;1440 x 900
H017;19;Vrouwelijk;Rechts;5;40;right;yes;200;rightarrow;416;false;focus;yes;1011075;Chrome;112.0;macOS;10.15.7;undefined;undefined;1440 x 900;1440 x 900
H017;19;Vrouwelijk;Rechts;5;41;left;no;150;leftarrow;561;true;focus;yes;1012415;Chrome;112.0;macOS;10.15.7;undefined;undefined;1440 x 900;1440 x 900
H017;19;Vrouwelijk;Rechts;5;42;right;yes;150;undefined;null;true;focus;yes;1014435;Chrome;112.0;macOS;10.15.7;undefined;undefined;1440 x 900;1440 x 900
H017;19;Vrouwelijk;Rechts;5;43;left;no;200;leftarrow;488;true;focus;yes;1015703;Chrome;112.0;macOS;10.15.7;undefined;undefined;1440 x 900;1440 x 900
H017;19;Vrouwelijk;Rechts;5;44;left;yes;200;undefined;null;true;focus;yes;1017739;Chrome;112.0;macOS;10.15.7;undefined;undefined;1440 x 900;1440 x 900
H017;19;Vrouwelijk;Rechts;5;45;left;no;250;leftarrow;453;true;focus;yes;1018964;Chrome;112.0;macOS;10.15.7;undefined;undefined;1440 x 900;1440 x 900
H017;19;Vrouwelijk;Rechts;5;46;right;no;250;rightarrow;506;true;focus;yes;1020247;Chrome;112.0;macOS;10.15.7;undefined;undefined;1440 x 900;1440 x 900
H017;19;Vrouwelijk;Rechts;5;47;right;no;250;rightarrow;592;true;focus;yes;1021604;Chrome;112.0;macOS;10.15.7;undefined;undefined;1440 x 900;1440 x 900
H017;19;Vrouwelijk;Rechts;5;48;right;no;250;rightarrow;418;true;focus;yes;1022785;Chrome;112.0;macOS;10.15.7;undefined;undefined;1440 x 900;1440 x 900
H017;19;Vrouwelijk;Rechts;5;49;left;yes;250;leftarrow;491;false;focus;yes;1024038;Chrome;112.0;macOS;10.15.7;undefined;undefined;1440 x 900;1440 x 900
H017;19;Vrouwelijk;Rechts;5;50;left;no;200;leftarrow;503;true;focus;yes;1025314;Chrome;112.0;macOS;10.15.7;undefined;undefined;1440 x 900;1440 x 900
H017;19;Vrouwelijk;Rechts;5;51;right;no;200;rightarrow;455;true;focus;yes;1026537;Chrome;112.0;macOS;10.15.7;undefined;undefined;1440 x 900;1440 x 900
H017;19;Vrouwelijk;Rechts;5;52;left;no;200;leftarrow;467;true;focus;yes;1027784;Chrome;112.0;macOS;10.15.7;undefined;undefined;1440 x 900;1440 x 900
H017;19;Vrouwelijk;Rechts;5;53;right;yes;200;undefined;null;true;focus;yes;1029811;Chrome;112.0;macOS;10.15.7;undefined;undefined;1440 x 900;1440 x 900
H017;19;Vrouwelijk;Rechts;5;54;right;no;250;rightarrow;442;true;focus;yes;1031025;Chrome;112.0;macOS;10.15.7;undefined;undefined;1440 x 900;1440 x 900
H017;19;Vrouwelijk;Rechts;5;55;right;no;250;rightarrow;439;true;focus;yes;1032228;Chrome;112.0;macOS;10.15.7;undefined;undefined;1440 x 900;1440 x 900
H017;19;Vrouwelijk;Rechts;5;56;left;no;250;leftarrow;527;true;focus;yes;1033522;Chrome;112.0;macOS;10.15.7;undefined;undefined;1440 x 900;1440 x 900
H017;19;Vrouwelijk;Rechts;5;57;right;no;250;rightarrow;433;true;focus;yes;1034724;Chrome;112.0;macOS;10.15.7;undefined;undefined;1440 x 900;1440 x 900
H017;19;Vrouwelijk;Rechts;5;58;left;no;250;leftarrow;462;true;focus;yes;1035954;Chrome;112.0;macOS;10.15.7;undefined;undefined;1440 x 900;1440 x 900
H017;19;Vrouwelijk;Rechts;5;59;left;no;250;leftarrow;418;true;focus;yes;1037141;Chrome;112.0;macOS;10.15.7;undefined;undefined;1440 x 900;1440 x 900
H017;19;Vrouwelijk;Rechts;5;60;left;yes;250;leftarrow;448;false;focus;yes;1038363;Chrome;112.0;macOS;10.15.7;undefined;undefined;1440 x 900;1440 x 900
H017;19;Vrouwelijk;Rechts;5;61;right;no;200;rightarrow;443;true;focus;yes;1039574;Chrome;112.0;macOS;10.15.7;undefined;undefined;1440 x 900;1440 x 900
H017;19;Vrouwelijk;Rechts;5;62;left;no;200;leftarrow;484;true;focus;yes;1040819;Chrome;112.0;macOS;10.15.7;undefined;undefined;1440 x 900;1440 x 900
H017;19;Vrouwelijk;Rechts;5;63;right;no;200;rightarrow;448;true;focus;yes;1042031;Chrome;112.0;macOS;10.15.7;undefined;undefined;1440 x 900;1440 x 900
H017;19;Vrouwelijk;Rechts;5;64;right;yes;200;rightarrow;433;false;focus;yes;1043236;Chrome;112.0;macOS;10.15.7;undefined;undefined;1440 x 900;1440 x 900
H017;19;Vrouwelijk;Rechts;5;65;right;no;150;rightarrow;424;true;focus;yes;1044427;Chrome;112.0;macOS;10.15.7;undefined;undefined;1440 x 900;1440 x 900
H017;19;Vrouwelijk;Rechts;5;66;left;no;150;leftarrow;503;true;focus;yes;1045698;Chrome;112.0;macOS;10.15.7;undefined;undefined;1440 x 900;1440 x 900
H017;19;Vrouwelijk;Rechts;5;67;right;no;150;rightarrow;479;true;focus;yes;1046956;Chrome;112.0;macOS;10.15.7;undefined;undefined;1440 x 900;1440 x 900
H017;19;Vrouwelijk;Rechts;5;68;right;yes;150;rightarrow;399;false;focus;yes;1048123;Chrome;112.0;macOS;10.15.7;undefined;undefined;1440 x 900;1440 x 900
H017;19;Vrouwelijk;Rechts;5;69;right;no;100;rightarrow;428;true;focus;yes;1049315;Chrome;112.0;macOS;10.15.7;undefined;undefined;1440 x 900;1440 x 900
H017;19;Vrouwelijk;Rechts;5;70;left;no;100;leftarrow;506;true;focus;yes;1050600;Chrome;112.0;macOS;10.15.7;undefined;undefined;1440 x 900;1440 x 900
H017;19;Vrouwelijk;Rechts;5;71;left;no;100;leftarrow;429;true;focus;yes;1051802;Chrome;112.0;macOS;10.15.7;undefined;undefined;1440 x 900;1440 x 900
H017;19;Vrouwelijk;Rechts;5;72;left;yes;100;undefined;null;true;focus;yes;1053833;Chrome;112.0;macOS;10.15.7;undefined;undefined;1440 x 900;1440 x 900
H017;19;Vrouwelijk;Rechts;5;73;right;no;150;rightarrow;456;true;focus;yes;1055069;Chrome;112.0;macOS;10.15.7;undefined;undefined;1440 x 900;1440 x 900
H017;19;Vrouwelijk;Rechts;5;74;right;no;150;rightarrow;431;true;focus;yes;1056276;Chrome;112.0;macOS;10.15.7;undefined;undefined;1440 x 900;1440 x 900
H017;19;Vrouwelijk;Rechts;5;75;right;no;150;rightarrow;417;true;focus;yes;1057460;Chrome;112.0;macOS;10.15.7;undefined;undefined;1440 x 900;1440 x 900
H017;19;Vrouwelijk;Rechts;5;76;left;no;150;leftarrow;485;true;focus;yes;1058722;Chrome;112.0;macOS;10.15.7;undefined;undefined;1440 x 900;1440 x 900
H017;19;Vrouwelijk;Rechts;5;77;left;no;150;leftarrow;419;true;focus;yes;1059920;Chrome;112.0;macOS;10.15.7;undefined;undefined;1440 x 900;1440 x 900
H017;19;Vrouwelijk;Rechts;5;78;left;no;150;leftarrow;457;true;focus;yes;1061150;Chrome;112.0;macOS;10.15.7;undefined;undefined;1440 x 900;1440 x 900
H017;19;Vrouwelijk;Rechts;5;79;left;yes;150;leftarrow;430;false;focus;yes;1062352;Chrome;112.0;macOS;10.15.7;undefined;undefined;1440 x 900;1440 x 900
H017;19;Vrouwelijk;Rechts;5;80;right;yes;100;undefined;null;true;focus;yes;1064387;Chrome;112.0;macOS;10.15.7;undefined;undefined;1440 x 900;1440 x 900
H017;19;Vrouwelijk;Rechts;5;81;right;yes;150;undefined;null;true;focus;yes;1066427;Chrome;112.0;macOS;10.15.7;undefined;undefined;1440 x 900;1440 x 900
H017;19;Vrouwelijk;Rechts;5;82;right;no;200;rightarrow;466;true;focus;yes;1067665;Chrome;112.0;macOS;10.15.7;undefined;undefined;1440 x 900;1440 x 900
H017;19;Vrouwelijk;Rechts;5;83;left;no;200;leftarrow;479;true;focus;yes;1068914;Chrome;112.0;macOS;10.15.7;undefined;undefined;1440 x 900;1440 x 900
H017;19;Vrouwelijk;Rechts;5;84;left;no;200;leftarrow;496;true;focus;yes;1070189;Chrome;112.0;macOS;10.15.7;undefined;undefined;1440 x 900;1440 x 900
H017;19;Vrouwelijk;Rechts;5;85;left;no;200;leftarrow;407;true;focus;yes;1071361;Chrome;112.0;macOS;10.15.7;undefined;undefined;1440 x 900;1440 x 900
H017;19;Vrouwelijk;Rechts;5;86;right;no;200;rightarrow;518;true;focus;yes;1072652;Chrome;112.0;macOS;10.15.7;undefined;undefined;1440 x 900;1440 x 900
H017;19;Vrouwelijk;Rechts;5;87;left;yes;200;undefined;null;true;focus;yes;1074691;Chrome;112.0;macOS;10.15.7;undefined;undefined;1440 x 900;1440 x 900
H017;19;Vrouwelijk;Rechts;5;88;right;no;250;rightarrow;491;true;focus;yes;1075954;Chrome;112.0;macOS;10.15.7;undefined;undefined;1440 x 900;1440 x 900
H017;19;Vrouwelijk;Rechts;5;89;right;yes;250;rightarrow;439;false;focus;yes;1077170;Chrome;112.0;macOS;10.15.7;undefined;undefined;1440 x 900;1440 x 900
H017;19;Vrouwelijk;Rechts;5;90;right;no;200;rightarrow;403;true;focus;yes;1078335;Chrome;112.0;macOS;10.15.7;undefined;undefined;1440 x 900;1440 x 900
H017;19;Vrouwelijk;Rechts;5;91;left;yes;200;leftarrow;564;false;focus;yes;1079673;Chrome;112.0;macOS;10.15.7;undefined;undefined;1440 x 900;1440 x 900
H017;19;Vrouwelijk;Rechts;5;92;right;no;150;rightarrow;641;true;focus;yes;1081091;Chrome;112.0;macOS;10.15.7;undefined;undefined;1440 x 900;1440 x 900
H017;19;Vrouwelijk;Rechts;5;93;left;no;150;leftarrow;490;true;focus;yes;1082359;Chrome;112.0;macOS;10.15.7;undefined;undefined;1440 x 900;1440 x 900
H017;19;Vrouwelijk;Rechts;5;94;right;no;150;rightarrow;517;true;focus;yes;1083637;Chrome;112.0;macOS;10.15.7;undefined;undefined;1440 x 900;1440 x 900
H017;19;Vrouwelijk;Rechts;5;95;left;no;150;leftarrow;565;true;focus;yes;1084968;Chrome;112.0;macOS;10.15.7;undefined;undefined;1440 x 900;1440 x 900
H017;19;Vrouwelijk;Rechts;5;96;left;no;150;leftarrow;503;true;focus;yes;1086245;Chrome;112.0;macOS;10.15.7;undefined;undefined;1440 x 900;1440 x 900
H017;19;Vrouwelijk;Rechts;5;97;left;no;150;leftarrow;456;true;focus;yes;1087469;Chrome;112.0;macOS;10.15.7;undefined;undefined;1440 x 900;1440 x 900
H017;19;Vrouwelijk;Rechts;5;98;left;no;150;leftarrow;426;true;focus;yes;1088672;Chrome;112.0;macOS;10.15.7;undefined;undefined;1440 x 900;1440 x 900
H017;19;Vrouwelijk;Rechts;5;99;right;no;150;rightarrow;458;true;focus;yes;1089889;Chrome;112.0;macOS;10.15.7;undefined;undefined;1440 x 900;1440 x 900
H017;19;Vrouwelijk;Rechts;5;100;right;yes;150;rightarrow;403;false;focus;yes;1091062;Chrome;112.0;macOS;10.15.7;undefined;undefined;1440 x 900;1440 x 900
H017;19;Vrouwelijk;Rechts;5;101;right;no;100;rightarrow;432;true;focus;yes;1092260;Chrome;112.0;macOS;10.15.7;undefined;undefined;1440 x 900;1440 x 900
H017;19;Vrouwelijk;Rechts;5;102;left;no;100;leftarrow;499;true;focus;yes;1093521;Chrome;112.0;macOS;10.15.7;undefined;undefined;1440 x 900;1440 x 900
H017;19;Vrouwelijk;Rechts;5;103;left;yes;100;undefined;null;true;focus;yes;1095553;Chrome;112.0;macOS;10.15.7;undefined;undefined;1440 x 900;1440 x 900
H017;19;Vrouwelijk;Rechts;5;104;right;no;150;rightarrow;410;true;focus;yes;1096737;Chrome;112.0;macOS;10.15.7;undefined;undefined;1440 x 900;1440 x 900
H017;19;Vrouwelijk;Rechts;5;105;left;no;150;leftarrow;455;true;focus;yes;1097964;Chrome;112.0;macOS;10.15.7;undefined;undefined;1440 x 900;1440 x 900
H017;19;Vrouwelijk;Rechts;5;106;left;yes;150;leftarrow;405;false;focus;yes;1099132;Chrome;112.0;macOS;10.15.7;undefined;undefined;1440 x 900;1440 x 900
H017;19;Vrouwelijk;Rechts;5;107;left;no;100;leftarrow;620;true;focus;yes;1100519;Chrome;112.0;macOS;10.15.7;undefined;undefined;1440 x 900;1440 x 900
H017;19;Vrouwelijk;Rechts;5;108;right;yes;100;undefined;null;true;focus;yes;1102539;Chrome;112.0;macOS;10.15.7;undefined;undefined;1440 x 900;1440 x 900
H017;19;Vrouwelijk;Rechts;5;109;right;no;150;rightarrow;478;true;focus;yes;1103789;Chrome;112.0;macOS;10.15.7;undefined;undefined;1440 x 900;1440 x 900
H017;19;Vrouwelijk;Rechts;5;110;right;no;150;rightarrow;435;true;focus;yes;1104992;Chrome;112.0;macOS;10.15.7;undefined;undefined;1440 x 900;1440 x 900
H017;19;Vrouwelijk;Rechts;5;111;left;no;150;leftarrow;385;true;focus;yes;1106140;Chrome;112.0;macOS;10.15.7;undefined;undefined;1440 x 900;1440 x 900
H017;19;Vrouwelijk;Rechts;5;112;right;no;150;rightarrow;483;true;focus;yes;1107392;Chrome;112.0;macOS;10.15.7;undefined;undefined;1440 x 900;1440 x 900
H017;19;Vrouwelijk;Rechts;5;113;right;no;150;rightarrow;469;true;focus;yes;1108625;Chrome;112.0;macOS;10.15.7;undefined;undefined;1440 x 900;1440 x 900
H017;19;Vrouwelijk;Rechts;5;114;left;no;150;leftarrow;428;true;focus;yes;1109823;Chrome;112.0;macOS;10.15.7;undefined;undefined;1440 x 900;1440 x 900
H017;19;Vrouwelijk;Rechts;5;115;left;no;150;leftarrow;472;true;focus;yes;1111060;Chrome;112.0;macOS;10.15.7;undefined;undefined;1440 x 900;1440 x 900
H017;19;Vrouwelijk;Rechts;5;116;right;no;150;rightarrow;446;true;focus;yes;1112272;Chrome;112.0;macOS;10.15.7;undefined;undefined;1440 x 900;1440 x 900
H017;19;Vrouwelijk;Rechts;5;117;left;no;150;leftarrow;460;true;focus;yes;1113491;Chrome;112.0;macOS;10.15.7;undefined;undefined;1440 x 900;1440 x 900
H017;19;Vrouwelijk;Rechts;5;118;left;yes;150;leftarrow;445;false;focus;yes;1114705;Chrome;112.0;macOS;10.15.7;undefined;undefined;1440 x 900;1440 x 900
H017;19;Vrouwelijk;Rechts;5;119;right;no;100;rightarrow;465;true;focus;yes;1115943;Chrome;112.0;macOS;10.15.7;undefined;undefined;1440 x 900;1440 x 900
H017;19;Vrouwelijk;Rechts;5;120;right;yes;100;rightarrow;463;false;focus;yes;1117167;Chrome;112.0;macOS;10.15.7;undefined;undefined;1440 x 900;1440 x 900
H017;19;Vrouwelijk;Rechts;5;121;right;no;50;rightarrow;539;true;focus;yes;1118481;Chrome;112.0;macOS;10.15.7;undefined;undefined;1440 x 900;1440 x 900
H017;19;Vrouwelijk;Rechts;5;122;right;no;50;rightarrow;496;true;focus;yes;1119759;Chrome;112.0;macOS;10.15.7;undefined;undefined;1440 x 900;1440 x 900
H017;19;Vrouwelijk;Rechts;5;123;left;no;50;leftarrow;475;true;focus;yes;1120999;Chrome;112.0;macOS;10.15.7;undefined;undefined;1440 x 900;1440 x 900
H017;19;Vrouwelijk;Rechts;5;124;right;no;50;rightarrow;460;true;focus;yes;1122231;Chrome;112.0;macOS;10.15.7;undefined;undefined;1440 x 900;1440 x 900
H017;19;Vrouwelijk;Rechts;5;125;left;no;50;leftarrow;477;true;focus;yes;1123469;Chrome;112.0;macOS;10.15.7;undefined;undefined;1440 x 900;1440 x 900
H017;19;Vrouwelijk;Rechts;5;126;left;yes;50;undefined;null;true;focus;yes;1125507;Chrome;112.0;macOS;10.15.7;undefined;undefined;1440 x 900;1440 x 900
H017;19;Vrouwelijk;Rechts;5;127;left;no;100;leftarrow;435;true;focus;yes;1126723;Chrome;112.0;macOS;10.15.7;undefined;undefined;1440 x 900;1440 x 900
H017;19;Vrouwelijk;Rechts;5;128;right;yes;100;rightarrow;445;false;focus;yes;1127936;Chrome;112.0;macOS;10.15.7;undefined;undefined;1440 x 900;1440 x 900
H017;19;Vrouwelijk;Rechts;6;1;left;no;50;leftarrow;543;true;focus;yes;1149847;Chrome;112.0;macOS;10.15.7;undefined;undefined;1440 x 900;1440 x 900
H017;19;Vrouwelijk;Rechts;6;2;left;no;50;leftarrow;452;true;focus;yes;1151060;Chrome;112.0;macOS;10.15.7;undefined;undefined;1440 x 900;1440 x 900
H017;19;Vrouwelijk;Rechts;6;3;right;no;50;rightarrow;453;true;focus;yes;1152291;Chrome;112.0;macOS;10.15.7;undefined;undefined;1440 x 900;1440 x 900
H017;19;Vrouwelijk;Rechts;6;4;right;no;50;rightarrow;386;true;focus;yes;1153442;Chrome;112.0;macOS;10.15.7;undefined;undefined;1440 x 900;1440 x 900
H017;19;Vrouwelijk;Rechts;6;5;left;no;50;leftarrow;653;true;focus;yes;1154866;Chrome;112.0;macOS;10.15.7;undefined;undefined;1440 x 900;1440 x 900
H017;19;Vrouwelijk;Rechts;6;6;right;yes;50;undefined;null;true;focus;yes;1156899;Chrome;112.0;macOS;10.15.7;undefined;undefined;1440 x 900;1440 x 900
H017;19;Vrouwelijk;Rechts;6;7;right;no;100;rightarrow;402;true;focus;yes;1158083;Chrome;112.0;macOS;10.15.7;undefined;undefined;1440 x 900;1440 x 900
H017;19;Vrouwelijk;Rechts;6;8;left;yes;100;undefined;null;true;focus;yes;1160108;Chrome;112.0;macOS;10.15.7;undefined;undefined;1440 x 900;1440 x 900
H017;19;Vrouwelijk;Rechts;6;9;left;yes;150;leftarrow;433;false;focus;yes;1161321;Chrome;112.0;macOS;10.15.7;undefined;undefined;1440 x 900;1440 x 900
H017;19;Vrouwelijk;Rechts;6;10;left;no;100;leftarrow;419;true;focus;yes;1162513;Chrome;112.0;macOS;10.15.7;undefined;undefined;1440 x 900;1440 x 900
H017;19;Vrouwelijk;Rechts;6;11;left;no;100;leftarrow;416;true;focus;yes;1163692;Chrome;112.0;macOS;10.15.7;undefined;undefined;1440 x 900;1440 x 900
H017;19;Vrouwelijk;Rechts;6;12;right;no;100;rightarrow;461;true;focus;yes;1164920;Chrome;112.0;macOS;10.15.7;undefined;undefined;1440 x 900;1440 x 900
H017;19;Vrouwelijk;Rechts;6;13;right;yes;100;undefined;null;true;focus;yes;1166939;Chrome;112.0;macOS;10.15.7;undefined;undefined;1440 x 900;1440 x 900
H017;19;Vrouwelijk;Rechts;6;14;right;no;150;rightarrow;421;true;focus;yes;1168133;Chrome;112.0;macOS;10.15.7;undefined;undefined;1440 x 900;1440 x 900
