participantID;age;gender;handedness;block_i;trial_i;stim;signal;SSD;response;rt;correct;focus;Fullscreen;time_elapsed;browser_name;browser_version;os_name;os_version;tablet;mobile;screen_resolution;window_resolution
H012;38;Mannelijk;Ambidexter;0;1;left;yes;200;undefined;null;true;focus;no;43759;Chrome;112.0;Windows;10;undefined;undefined;2560 x 1440;2560 x 1297
H012;38;Mannelijk;Ambidexter;0;2;right;yes;250;undefined;null;true;focus;no;46545;Chrome;112.0;Windows;10;undefined;undefined;2560 x 1440;2560 x 1297
H012;38;Mannelijk;Ambidexter;0;3;left;no;300;undefined;null;false;focus;no;49354;Chrome;112.0;Windows;10;undefined;undefined;2560 x 1440;2560 x 1297
H012;38;Mannelijk;Ambidexter;0;4;left;no;300;undefined;null;false;focus;no;52134;Chrome;112.0;Windows;10;undefined;undefined;2560 x 1440;2560 x 1297
H012;38;Mannelijk;Ambidexter;0;5;right;no;300;undefined;null;false;focus;no;54929;Chrome;112.0;Windows;10;undefined;undefined;2560 x 1440;2560 x 1297
H012;38;Mannelijk;Ambidexter;0;6;left;no;300;undefined;null;false;focus;no;57698;Chrome;112.0;Windows;10;undefined;undefined;2560 x 1440;2560 x 1297
H012;38;Mannelijk;Ambidexter;0;7;right;no;300;rightarrow;368;true;focus;no;59584;Chrome;112.0;Windows;10;undefined;undefined;2560 x 1440;2560 x 1297
H012;38;Mannelijk;Ambidexter;0;8;right;no;300;leftarrow;257;false;focus;no;61360;Chrome;112.0;Windows;10;undefined;undefined;2560 x 1440;2560 x 1297
H012;38;Mannelijk;Ambidexter;1;1;right;no;300;rightarrow;422;true;focus;no;81657;Chrome;112.0;Windows;10;undefined;undefined;2560 x 1440;2560 x 1297
H012;38;Mannelijk;Ambidexter;1;2;left;no;300;leftarrow;379;true;focus;no;82817;Chrome;112.0;Windows;10;undefined;undefined;2560 x 1440;2560 x 1297
H012;38;Mannelijk;Ambidexter;1;3;left;no;300;leftarrow;366;true;focus;no;83953;Chrome;112.0;Windows;10;undefined;undefined;2560 x 1440;2560 x 1297
H012;38;Mannelijk;Ambidexter;1;4;right;no;300;rightarrow;378;true;focus;no;85113;Chrome;112.0;Windows;10;undefined;undefined;2560 x 1440;2560 x 1297
H012;38;Mannelijk;Ambidexter;1;5;right;no;300;rightarrow;315;true;focus;no;86185;Chrome;112.0;Windows;10;undefined;undefined;2560 x 1440;2560 x 1297
H012;38;Mannelijk;Ambidexter;1;6;left;yes;300;leftarrow;408;false;focus;no;87370;Chrome;112.0;Windows;10;undefined;undefined;2560 x 1440;2560 x 1297
H012;38;Mannelijk;Ambidexter;1;7;left;no;250;rightarrow;239;false;focus;no;88377;Chrome;112.0;Windows;10;undefined;undefined;2560 x 1440;2560 x 1297
H012;38;Mannelijk;Ambidexter;1;8;right;yes;250;rightarrow;330;false;focus;no;89481;Chrome;112.0;Windows;10;undefined;undefined;2560 x 1440;2560 x 1297
H012;38;Mannelijk;Ambidexter;1;9;left;no;200;leftarrow;344;true;focus;no;90601;Chrome;112.0;Windows;10;undefined;undefined;2560 x 1440;2560 x 1297
H012;38;Mannelijk;Ambidexter;1;10;left;no;200;leftarrow;480;true;focus;no;91856;Chrome;112.0;Windows;10;undefined;undefined;2560 x 1440;2560 x 1297
H012;38;Mannelijk;Ambidexter;1;11;left;no;200;leftarrow;389;true;focus;no;93025;Chrome;112.0;Windows;10;undefined;undefined;2560 x 1440;2560 x 1297
H012;38;Mannelijk;Ambidexter;1;12;right;yes;200;rightarrow;367;false;focus;no;94153;Chrome;112.0;Windows;10;undefined;undefined;2560 x 1440;2560 x 1297
H012;38;Mannelijk;Ambidexter;1;13;right;no;150;leftarrow;266;false;focus;no;95185;Chrome;112.0;Windows;10;undefined;undefined;2560 x 1440;2560 x 1297
H012;38;Mannelijk;Ambidexter;1;14;right;no;150;rightarrow;437;true;focus;no;96393;Chrome;112.0;Windows;10;undefined;undefined;2560 x 1440;2560 x 1297
H012;38;Mannelijk;Ambidexter;1;15;right;no;150;rightarrow;383;true;focus;no;97553;Chrome;112.0;Windows;10;undefined;undefined;2560 x 1440;2560 x 1297
H012;38;Mannelijk;Ambidexter;1;16;left;yes;150;leftarrow;354;false;focus;no;98689;Chrome;112.0;Windows;10;undefined;undefined;2560 x 1440;2560 x 1297
H012;38;Mannelijk;Ambidexter;1;17;left;no;100;leftarrow;391;true;focus;no;99857;Chrome;112.0;Windows;10;undefined;undefined;2560 x 1440;2560 x 1297
H012;38;Mannelijk;Ambidexter;1;18;left;yes;100;leftarrow;384;false;focus;no;101009;Chrome;112.0;Windows;10;undefined;undefined;2560 x 1440;2560 x 1297
H012;38;Mannelijk;Ambidexter;1;19;left;no;50;leftarrow;382;true;focus;no;102170;Chrome;112.0;Windows;10;undefined;undefined;2560 x 1440;2560 x 1297
H012;38;Mannelijk;Ambidexter;1;20;right;no;50;rightarrow;409;true;focus;no;103337;Chrome;112.0;Windows;10;undefined;undefined;2560 x 1440;2560 x 1297
H012;38;Mannelijk;Ambidexter;1;21;right;yes;50;rightarrow;372;false;focus;no;104482;Chrome;112.0;Windows;10;undefined;undefined;2560 x 1440;2560 x 1297
H012;38;Mannelijk;Ambidexter;1;22;right;no;50;undefined;null;false;focus;no;106522;Chrome;112.0;Windows;10;undefined;undefined;2560 x 1440;2560 x 1297
H012;38;Mannelijk;Ambidexter;1;23;left;no;50;leftarrow;401;true;focus;no;107690;Chrome;112.0;Windows;10;undefined;undefined;2560 x 1440;2560 x 1297
H012;38;Mannelijk;Ambidexter;1;24;right;no;50;rightarrow;380;true;focus;no;108842;Chrome;112.0;Windows;10;undefined;undefined;2560 x 1440;2560 x 1297
H012;38;Mannelijk;Ambidexter;1;25;right;no;50;leftarrow;303;false;focus;no;109914;Chrome;112.0;Windows;10;undefined;undefined;2560 x 1440;2560 x 1297
H012;38;Mannelijk;Ambidexter;1;26;right;no;50;rightarrow;450;true;focus;no;111138;Chrome;112.0;Windows;10;undefined;undefined;2560 x 1440;2560 x 1297
H012;38;Mannelijk;Ambidexter;1;27;left;no;50;leftarrow;419;true;focus;no;112338;Chrome;112.0;Windows;10;undefined;undefined;2560 x 1440;2560 x 1297
H012;38;Mannelijk;Ambidexter;1;28;left;no;50;leftarrow;424;true;focus;no;113538;Chrome;112.0;Windows;10;undefined;undefined;2560 x 1440;2560 x 1297
H012;38;Mannelijk;Ambidexter;1;29;left;no;50;leftarrow;380;true;focus;no;114690;Chrome;112.0;Windows;10;undefined;undefined;2560 x 1440;2560 x 1297
H012;38;Mannelijk;Ambidexter;1;30;right;yes;50;rightarrow;333;false;focus;no;115794;Chrome;112.0;Windows;10;undefined;undefined;2560 x 1440;2560 x 1297
H012;38;Mannelijk;Ambidexter;1;31;right;no;50;rightarrow;341;true;focus;no;116905;Chrome;112.0;Windows;10;undefined;undefined;2560 x 1440;2560 x 1297
H012;38;Mannelijk;Ambidexter;1;32;left;yes;50;leftarrow;376;false;focus;no;118058;Chrome;112.0;Windows;10;undefined;undefined;2560 x 1440;2560 x 1297
H012;38;Mannelijk;Ambidexter;1;33;right;no;50;rightarrow;368;true;focus;no;119202;Chrome;112.0;Windows;10;undefined;undefined;2560 x 1440;2560 x 1297
H012;38;Mannelijk;Ambidexter;1;34;right;no;50;rightarrow;432;true;focus;no;120402;Chrome;112.0;Windows;10;undefined;undefined;2560 x 1440;2560 x 1297
H012;38;Mannelijk;Ambidexter;1;35;left;yes;50;leftarrow;419;false;focus;no;121602;Chrome;112.0;Windows;10;undefined;undefined;2560 x 1440;2560 x 1297
H012;38;Mannelijk;Ambidexter;1;36;left;no;50;leftarrow;424;true;focus;no;122802;Chrome;112.0;Windows;10;undefined;undefined;2560 x 1440;2560 x 1297
H012;38;Mannelijk;Ambidexter;1;37;right;no;50;rightarrow;339;true;focus;no;123914;Chrome;112.0;Windows;10;undefined;undefined;2560 x 1440;2560 x 1297
H012;38;Mannelijk;Ambidexter;1;38;right;yes;50;rightarrow;362;false;focus;no;125050;Chrome;112.0;Windows;10;undefined;undefined;2560 x 1440;2560 x 1297
H012;38;Mannelijk;Ambidexter;1;39;left;no;50;leftarrow;386;true;focus;no;126202;Chrome;112.0;Windows;10;undefined;undefined;2560 x 1440;2560 x 1297
H012;38;Mannelijk;Ambidexter;1;40;left;no;50;leftarrow;501;true;focus;no;127466;Chrome;112.0;Windows;10;undefined;undefined;2560 x 1440;2560 x 1297
H012;38;Mannelijk;Ambidexter;1;41;right;no;50;rightarrow;388;true;focus;no;128626;Chrome;112.0;Windows;10;undefined;undefined;2560 x 1440;2560 x 1297
H012;38;Mannelijk;Ambidexter;1;42;right;yes;50;rightarrow;758;false;focus;no;130162;Chrome;112.0;Windows;10;undefined;undefined;2560 x 1440;2560 x 1297
H012;38;Mannelijk;Ambidexter;1;43;left;no;50;leftarrow;379;true;focus;no;131323;Chrome;112.0;Windows;10;undefined;undefined;2560 x 1440;2560 x 1297
H012;38;Mannelijk;Ambidexter;1;44;left;no;50;leftarrow;358;true;focus;no;132451;Chrome;112.0;Windows;10;undefined;undefined;2560 x 1440;2560 x 1297
H012;38;Mannelijk;Ambidexter;1;45;left;no;50;leftarrow;735;true;focus;no;133954;Chrome;112.0;Windows;10;undefined;undefined;2560 x 1440;2560 x 1297
H012;38;Mannelijk;Ambidexter;1;46;left;yes;50;leftarrow;369;false;focus;no;135098;Chrome;112.0;Windows;10;undefined;undefined;2560 x 1440;2560 x 1297
H012;38;Mannelijk;Ambidexter;1;47;right;no;50;rightarrow;381;true;focus;no;136243;Chrome;112.0;Windows;10;undefined;undefined;2560 x 1440;2560 x 1297
H012;38;Mannelijk;Ambidexter;1;48;right;no;50;rightarrow;327;true;focus;no;137340;Chrome;112.0;Windows;10;undefined;undefined;2560 x 1440;2560 x 1297
H012;38;Mannelijk;Ambidexter;1;49;right;yes;50;rightarrow;316;false;focus;no;138435;Chrome;112.0;Windows;10;undefined;undefined;2560 x 1440;2560 x 1297
H012;38;Mannelijk;Ambidexter;1;50;left;no;50;leftarrow;383;true;focus;no;139586;Chrome;112.0;Windows;10;undefined;undefined;2560 x 1440;2560 x 1297
H012;38;Mannelijk;Ambidexter;1;51;left;yes;50;leftarrow;384;false;focus;no;140723;Chrome;112.0;Windows;10;undefined;undefined;2560 x 1440;2560 x 1297
H012;38;Mannelijk;Ambidexter;1;52;left;no;50;leftarrow;289;true;focus;no;141795;Chrome;112.0;Windows;10;undefined;undefined;2560 x 1440;2560 x 1297
H012;38;Mannelijk;Ambidexter;1;53;left;no;50;leftarrow;327;true;focus;no;142889;Chrome;112.0;Windows;10;undefined;undefined;2560 x 1440;2560 x 1297
H012;38;Mannelijk;Ambidexter;1;54;right;no;50;rightarrow;374;true;focus;no;144043;Chrome;112.0;Windows;10;undefined;undefined;2560 x 1440;2560 x 1297
H012;38;Mannelijk;Ambidexter;1;55;right;no;50;rightarrow;278;true;focus;no;145099;Chrome;112.0;Windows;10;undefined;undefined;2560 x 1440;2560 x 1297
H012;38;Mannelijk;Ambidexter;1;56;right;no;50;rightarrow;339;true;focus;no;146219;Chrome;112.0;Windows;10;undefined;undefined;2560 x 1440;2560 x 1297
H012;38;Mannelijk;Ambidexter;1;57;left;yes;50;leftarrow;357;false;focus;no;147339;Chrome;112.0;Windows;10;undefined;undefined;2560 x 1440;2560 x 1297
H012;38;Mannelijk;Ambidexter;1;58;left;no;50;leftarrow;774;true;focus;no;148891;Chrome;112.0;Windows;10;undefined;undefined;2560 x 1440;2560 x 1297
H012;38;Mannelijk;Ambidexter;1;59;right;yes;50;rightarrow;445;false;focus;no;150115;Chrome;112.0;Windows;10;undefined;undefined;2560 x 1440;2560 x 1297
H012;38;Mannelijk;Ambidexter;1;60;right;no;50;rightarrow;367;true;focus;no;151251;Chrome;112.0;Windows;10;undefined;undefined;2560 x 1440;2560 x 1297
H012;38;Mannelijk;Ambidexter;1;61;left;no;50;leftarrow;404;true;focus;no;152435;Chrome;112.0;Windows;10;undefined;undefined;2560 x 1440;2560 x 1297
H012;38;Mannelijk;Ambidexter;1;62;right;no;50;rightarrow;272;true;focus;no;153475;Chrome;112.0;Windows;10;undefined;undefined;2560 x 1440;2560 x 1297
H012;38;Mannelijk;Ambidexter;1;63;left;no;50;leftarrow;255;true;focus;no;154499;Chrome;112.0;Windows;10;undefined;undefined;2560 x 1440;2560 x 1297
H012;38;Mannelijk;Ambidexter;1;64;right;no;50;rightarrow;407;true;focus;no;155675;Chrome;112.0;Windows;10;undefined;undefined;2560 x 1440;2560 x 1297
H012;38;Mannelijk;Ambidexter;1;65;right;no;50;rightarrow;401;true;focus;no;156843;Chrome;112.0;Windows;10;undefined;undefined;2560 x 1440;2560 x 1297
H012;38;Mannelijk;Ambidexter;1;66;right;no;50;rightarrow;442;true;focus;no;158042;Chrome;112.0;Windows;10;undefined;undefined;2560 x 1440;2560 x 1297
H012;38;Mannelijk;Ambidexter;1;67;left;no;50;leftarrow;395;true;focus;no;159220;Chrome;112.0;Windows;10;undefined;undefined;2560 x 1440;2560 x 1297
H012;38;Mannelijk;Ambidexter;1;68;right;yes;50;rightarrow;388;false;focus;no;160379;Chrome;112.0;Windows;10;undefined;undefined;2560 x 1440;2560 x 1297
H012;38;Mannelijk;Ambidexter;1;69;left;no;50;leftarrow;338;true;focus;no;161492;Chrome;112.0;Windows;10;undefined;undefined;2560 x 1440;2560 x 1297
H012;38;Mannelijk;Ambidexter;1;70;left;no;50;leftarrow;480;true;focus;no;162739;Chrome;112.0;Windows;10;undefined;undefined;2560 x 1440;2560 x 1297
H012;38;Mannelijk;Ambidexter;1;71;right;no;50;rightarrow;386;true;focus;no;163892;Chrome;112.0;Windows;10;undefined;undefined;2560 x 1440;2560 x 1297
H012;38;Mannelijk;Ambidexter;1;72;left;yes;50;leftarrow;306;false;focus;no;164979;Chrome;112.0;Windows;10;undefined;undefined;2560 x 1440;2560 x 1297
H012;38;Mannelijk;Ambidexter;1;73;right;no;50;rightarrow;313;true;focus;no;166059;Chrome;112.0;Windows;10;undefined;undefined;2560 x 1440;2560 x 1297
H012;38;Mannelijk;Ambidexter;1;74;right;no;50;rightarrow;406;true;focus;no;167244;Chrome;112.0;Windows;10;undefined;undefined;2560 x 1440;2560 x 1297
H012;38;Mannelijk;Ambidexter;1;75;left;no;50;leftarrow;362;true;focus;no;168379;Chrome;112.0;Windows;10;undefined;undefined;2560 x 1440;2560 x 1297
H012;38;Mannelijk;Ambidexter;1;76;right;yes;50;rightarrow;375;false;focus;no;169531;Chrome;112.0;Windows;10;undefined;undefined;2560 x 1440;2560 x 1297
H012;38;Mannelijk;Ambidexter;1;77;left;yes;50;leftarrow;341;false;focus;no;170634;Chrome;112.0;Windows;10;undefined;undefined;2560 x 1440;2560 x 1297
H012;38;Mannelijk;Ambidexter;1;78;left;no;50;leftarrow;398;true;focus;no;171812;Chrome;112.0;Windows;10;undefined;undefined;2560 x 1440;2560 x 1297
H012;38;Mannelijk;Ambidexter;1;79;left;no;50;leftarrow;328;true;focus;no;172908;Chrome;112.0;Windows;10;undefined;undefined;2560 x 1440;2560 x 1297
H012;38;Mannelijk;Ambidexter;1;80;right;no;50;rightarrow;366;true;focus;no;174052;Chrome;112.0;Windows;10;undefined;undefined;2560 x 1440;2560 x 1297
H012;38;Mannelijk;Ambidexter;1;81;left;no;50;leftarrow;448;true;focus;no;175268;Chrome;112.0;Windows;10;undefined;undefined;2560 x 1440;2560 x 1297
H012;38;Mannelijk;Ambidexter;1;82;left;no;50;rightarrow;321;false;focus;no;176356;Chrome;112.0;Windows;10;undefined;undefined;2560 x 1440;2560 x 1297
H012;38;Mannelijk;Ambidexter;1;83;right;yes;50;rightarrow;409;false;focus;no;177532;Chrome;112.0;Windows;10;undefined;undefined;2560 x 1440;2560 x 1297
H012;38;Mannelijk;Ambidexter;1;84;right;no;50;rightarrow;370;true;focus;no;178676;Chrome;112.0;Windows;10;undefined;undefined;2560 x 1440;2560 x 1297
H012;38;Mannelijk;Ambidexter;1;85;left;no;50;leftarrow;405;true;focus;no;179852;Chrome;112.0;Windows;10;undefined;undefined;2560 x 1440;2560 x 1297
H012;38;Mannelijk;Ambidexter;1;86;left;yes;50;leftarrow;349;false;focus;no;180973;Chrome;112.0;Windows;10;undefined;undefined;2560 x 1440;2560 x 1297
H012;38;Mannelijk;Ambidexter;1;87;right;no;50;rightarrow;481;true;focus;no;182213;Chrome;112.0;Windows;10;undefined;undefined;2560 x 1440;2560 x 1297
H012;38;Mannelijk;Ambidexter;1;88;right;no;50;rightarrow;338;true;focus;no;183316;Chrome;112.0;Windows;10;undefined;undefined;2560 x 1440;2560 x 1297
H012;38;Mannelijk;Ambidexter;1;89;left;no;50;leftarrow;362;true;focus;no;184444;Chrome;112.0;Windows;10;undefined;undefined;2560 x 1440;2560 x 1297
H012;38;Mannelijk;Ambidexter;1;90;left;yes;50;leftarrow;339;false;focus;no;185540;Chrome;112.0;Windows;10;undefined;undefined;2560 x 1440;2560 x 1297
H012;38;Mannelijk;Ambidexter;1;91;right;no;50;rightarrow;539;true;focus;no;186844;Chrome;112.0;Windows;10;undefined;undefined;2560 x 1440;2560 x 1297
H012;38;Mannelijk;Ambidexter;1;92;right;no;50;leftarrow;215;false;focus;no;187828;Chrome;112.0;Windows;10;undefined;undefined;2560 x 1440;2560 x 1297
H012;38;Mannelijk;Ambidexter;1;93;right;yes;50;rightarrow;425;false;focus;no;189036;Chrome;112.0;Windows;10;undefined;undefined;2560 x 1440;2560 x 1297
H012;38;Mannelijk;Ambidexter;1;94;left;no;50;leftarrow;447;true;focus;no;190244;Chrome;112.0;Windows;10;undefined;undefined;2560 x 1440;2560 x 1297
H012;38;Mannelijk;Ambidexter;1;95;left;no;50;leftarrow;390;true;focus;no;191404;Chrome;112.0;Windows;10;undefined;undefined;2560 x 1440;2560 x 1297
H012;38;Mannelijk;Ambidexter;1;96;right;no;50;rightarrow;386;true;focus;no;192555;Chrome;112.0;Windows;10;undefined;undefined;2560 x 1440;2560 x 1297
H012;38;Mannelijk;Ambidexter;1;97;right;yes;50;rightarrow;364;false;focus;no;193700;Chrome;112.0;Windows;10;undefined;undefined;2560 x 1440;2560 x 1297
H012;38;Mannelijk;Ambidexter;1;98;right;no;50;rightarrow;347;true;focus;no;194820;Chrome;112.0;Windows;10;undefined;undefined;2560 x 1440;2560 x 1297
H012;38;Mannelijk;Ambidexter;1;99;left;no;50;leftarrow;426;true;focus;no;196013;Chrome;112.0;Windows;10;undefined;undefined;2560 x 1440;2560 x 1297
H012;38;Mannelijk;Ambidexter;1;100;left;no;50;leftarrow;359;true;focus;no;197149;Chrome;112.0;Windows;10;undefined;undefined;2560 x 1440;2560 x 1297
H012;38;Mannelijk;Ambidexter;1;101;left;yes;50;leftarrow;325;false;focus;no;198253;Chrome;112.0;Windows;10;undefined;undefined;2560 x 1440;2560 x 1297
H012;38;Mannelijk;Ambidexter;1;102;right;no;50;rightarrow;399;true;focus;no;199428;Chrome;112.0;Windows;10;undefined;undefined;2560 x 1440;2560 x 1297
H012;38;Mannelijk;Ambidexter;1;103;right;no;50;rightarrow;323;true;focus;no;200509;Chrome;112.0;Windows;10;undefined;undefined;2560 x 1440;2560 x 1297
H012;38;Mannelijk;Ambidexter;1;104;left;no;50;leftarrow;418;true;focus;no;201708;Chrome;112.0;Windows;10;undefined;undefined;2560 x 1440;2560 x 1297
H012;38;Mannelijk;Ambidexter;1;105;left;no;50;leftarrow;382;true;focus;no;202869;Chrome;112.0;Windows;10;undefined;undefined;2560 x 1440;2560 x 1297
H012;38;Mannelijk;Ambidexter;1;106;right;no;50;rightarrow;415;true;focus;no;204053;Chrome;112.0;Windows;10;undefined;undefined;2560 x 1440;2560 x 1297
H012;38;Mannelijk;Ambidexter;1;107;right;no;50;rightarrow;310;true;focus;no;205133;Chrome;112.0;Windows;10;undefined;undefined;2560 x 1440;2560 x 1297
H012;38;Mannelijk;Ambidexter;1;108;right;no;50;rightarrow;337;true;focus;no;206230;Chrome;112.0;Windows;10;undefined;undefined;2560 x 1440;2560 x 1297
H012;38;Mannelijk;Ambidexter;1;109;left;no;50;leftarrow;441;true;focus;no;207437;Chrome;112.0;Windows;10;undefined;undefined;2560 x 1440;2560 x 1297
H012;38;Mannelijk;Ambidexter;1;110;left;no;50;leftarrow;315;true;focus;no;208517;Chrome;112.0;Windows;10;undefined;undefined;2560 x 1440;2560 x 1297
H012;38;Mannelijk;Ambidexter;1;111;left;yes;50;leftarrow;377;false;focus;no;209653;Chrome;112.0;Windows;10;undefined;undefined;2560 x 1440;2560 x 1297
H012;38;Mannelijk;Ambidexter;1;112;right;yes;50;rightarrow;414;false;focus;no;210829;Chrome;112.0;Windows;10;undefined;undefined;2560 x 1440;2560 x 1297
H012;38;Mannelijk;Ambidexter;1;113;right;yes;50;rightarrow;371;false;focus;no;211980;Chrome;112.0;Windows;10;undefined;undefined;2560 x 1440;2560 x 1297
H012;38;Mannelijk;Ambidexter;1;114;right;no;50;rightarrow;298;true;focus;no;213062;Chrome;112.0;Windows;10;undefined;undefined;2560 x 1440;2560 x 1297
H012;38;Mannelijk;Ambidexter;1;115;left;yes;50;leftarrow;367;false;focus;no;214205;Chrome;112.0;Windows;10;undefined;undefined;2560 x 1440;2560 x 1297
H012;38;Mannelijk;Ambidexter;1;116;left;no;50;leftarrow;414;true;focus;no;215389;Chrome;112.0;Windows;10;undefined;undefined;2560 x 1440;2560 x 1297
H012;38;Mannelijk;Ambidexter;1;117;right;no;50;rightarrow;354;true;focus;no;216526;Chrome;112.0;Windows;10;undefined;undefined;2560 x 1440;2560 x 1297
H012;38;Mannelijk;Ambidexter;1;118;left;no;50;leftarrow;339;true;focus;no;217645;Chrome;112.0;Windows;10;undefined;undefined;2560 x 1440;2560 x 1297
H012;38;Mannelijk;Ambidexter;1;119;left;no;50;leftarrow;381;true;focus;no;218806;Chrome;112.0;Windows;10;undefined;undefined;2560 x 1440;2560 x 1297
H012;38;Mannelijk;Ambidexter;1;120;right;no;50;rightarrow;445;true;focus;no;220022;Chrome;112.0;Windows;10;undefined;undefined;2560 x 1440;2560 x 1297
H012;38;Mannelijk;Ambidexter;1;121;right;no;50;rightarrow;451;true;focus;no;221254;Chrome;112.0;Windows;10;undefined;undefined;2560 x 1440;2560 x 1297
H012;38;Mannelijk;Ambidexter;1;122;right;no;50;rightarrow;349;true;focus;no;222382;Chrome;112.0;Windows;10;undefined;undefined;2560 x 1440;2560 x 1297
H012;38;Mannelijk;Ambidexter;1;123;right;no;50;rightarrow;334;true;focus;no;223486;Chrome;112.0;Windows;10;undefined;undefined;2560 x 1440;2560 x 1297
H012;38;Mannelijk;Ambidexter;1;124;left;no;50;leftarrow;418;true;focus;no;224662;Chrome;112.0;Windows;10;undefined;undefined;2560 x 1440;2560 x 1297
H012;38;Mannelijk;Ambidexter;1;125;left;yes;50;leftarrow;433;false;focus;no;225861;Chrome;112.0;Windows;10;undefined;undefined;2560 x 1440;2560 x 1297
H012;38;Mannelijk;Ambidexter;1;126;right;yes;50;rightarrow;396;false;focus;no;227037;Chrome;112.0;Windows;10;undefined;undefined;2560 x 1440;2560 x 1297
H012;38;Mannelijk;Ambidexter;1;127;left;no;50;leftarrow;312;true;focus;no;228133;Chrome;112.0;Windows;10;undefined;undefined;2560 x 1440;2560 x 1297
H012;38;Mannelijk;Ambidexter;1;128;left;no;50;rightarrow;258;false;focus;no;229165;Chrome;112.0;Windows;10;undefined;undefined;2560 x 1440;2560 x 1297
H012;38;Mannelijk;Ambidexter;2;1;right;no;50;rightarrow;353;true;focus;no;249590;Chrome;112.0;Windows;10;undefined;undefined;2560 x 1440;2560 x 1297
H012;38;Mannelijk;Ambidexter;2;2;right;no;50;rightarrow;439;true;focus;no;250798;Chrome;112.0;Windows;10;undefined;undefined;2560 x 1440;2560 x 1297
H012;38;Mannelijk;Ambidexter;2;3;right;yes;50;rightarrow;310;false;focus;no;251887;Chrome;112.0;Windows;10;undefined;undefined;2560 x 1440;2560 x 1297
H012;38;Mannelijk;Ambidexter;2;4;right;no;50;rightarrow;300;true;focus;no;252958;Chrome;112.0;Windows;10;undefined;undefined;2560 x 1440;2560 x 1297
H012;38;Mannelijk;Ambidexter;2;5;left;no;50;leftarrow;332;true;focus;no;254055;Chrome;112.0;Windows;10;undefined;undefined;2560 x 1440;2560 x 1297
H012;38;Mannelijk;Ambidexter;2;6;left;yes;50;leftarrow;261;false;focus;no;255086;Chrome;112.0;Windows;10;undefined;undefined;2560 x 1440;2560 x 1297
H012;38;Mannelijk;Ambidexter;2;7;left;no;50;leftarrow;398;true;focus;no;256262;Chrome;112.0;Windows;10;undefined;undefined;2560 x 1440;2560 x 1297
H012;38;Mannelijk;Ambidexter;2;8;left;no;50;leftarrow;339;true;focus;no;257359;Chrome;112.0;Windows;10;undefined;undefined;2560 x 1440;2560 x 1297
H012;38;Mannelijk;Ambidexter;2;9;left;no;50;leftarrow;344;true;focus;no;258470;Chrome;112.0;Windows;10;undefined;undefined;2560 x 1440;2560 x 1297
H012;38;Mannelijk;Ambidexter;2;10;right;no;50;rightarrow;369;true;focus;no;259615;Chrome;112.0;Windows;10;undefined;undefined;2560 x 1440;2560 x 1297
H012;38;Mannelijk;Ambidexter;2;11;right;yes;50;rightarrow;375;false;focus;no;260767;Chrome;112.0;Windows;10;undefined;undefined;2560 x 1440;2560 x 1297
H012;38;Mannelijk;Ambidexter;2;12;left;no;50;leftarrow;379;true;focus;no;261911;Chrome;112.0;Windows;10;undefined;undefined;2560 x 1440;2560 x 1297
H012;38;Mannelijk;Ambidexter;2;13;right;no;50;rightarrow;378;true;focus;no;263063;Chrome;112.0;Windows;10;undefined;undefined;2560 x 1440;2560 x 1297
H012;38;Mannelijk;Ambidexter;2;14;left;no;50;leftarrow;345;true;focus;no;264183;Chrome;112.0;Windows;10;undefined;undefined;2560 x 1440;2560 x 1297
H012;38;Mannelijk;Ambidexter;2;15;left;yes;50;leftarrow;446;false;focus;no;265399;Chrome;112.0;Windows;10;undefined;undefined;2560 x 1440;2560 x 1297
H012;38;Mannelijk;Ambidexter;2;16;right;no;50;rightarrow;371;true;focus;no;266551;Chrome;112.0;Windows;10;undefined;undefined;2560 x 1440;2560 x 1297
H012;38;Mannelijk;Ambidexter;2;17;right;no;50;rightarrow;306;true;focus;no;267623;Chrome;112.0;Windows;10;undefined;undefined;2560 x 1440;2560 x 1297
H012;38;Mannelijk;Ambidexter;2;18;left;no;50;leftarrow;372;true;focus;no;268767;Chrome;112.0;Windows;10;undefined;undefined;2560 x 1440;2560 x 1297
H012;38;Mannelijk;Ambidexter;2;19;right;no;50;rightarrow;366;true;focus;no;269912;Chrome;112.0;Windows;10;undefined;undefined;2560 x 1440;2560 x 1297
H012;38;Mannelijk;Ambidexter;2;20;left;no;50;leftarrow;390;true;focus;no;271071;Chrome;112.0;Windows;10;undefined;undefined;2560 x 1440;2560 x 1297
H012;38;Mannelijk;Ambidexter;2;21;left;yes;50;leftarrow;343;false;focus;no;272191;Chrome;112.0;Windows;10;undefined;undefined;2560 x 1440;2560 x 1297
H012;38;Mannelijk;Ambidexter;2;22;left;no;50;leftarrow;369;true;focus;no;273336;Chrome;112.0;Windows;10;undefined;undefined;2560 x 1440;2560 x 1297
H012;38;Mannelijk;Ambidexter;2;23;right;no;50;rightarrow;450;true;focus;no;274567;Chrome;112.0;Windows;10;undefined;undefined;2560 x 1440;2560 x 1297
H012;38;Mannelijk;Ambidexter;2;24;right;yes;50;rightarrow;218;false;focus;no;275551;Chrome;112.0;Windows;10;undefined;undefined;2560 x 1440;2560 x 1297
H012;38;Mannelijk;Ambidexter;2;25;right;no;50;rightarrow;440;true;focus;no;276767;Chrome;112.0;Windows;10;undefined;undefined;2560 x 1440;2560 x 1297
H012;38;Mannelijk;Ambidexter;2;26;left;no;50;leftarrow;402;true;focus;no;277943;Chrome;112.0;Windows;10;undefined;undefined;2560 x 1440;2560 x 1297
H012;38;Mannelijk;Ambidexter;2;27;left;yes;50;leftarrow;279;false;focus;no;278999;Chrome;112.0;Windows;10;undefined;undefined;2560 x 1440;2560 x 1297
H012;38;Mannelijk;Ambidexter;2;28;left;no;50;leftarrow;260;true;focus;no;280039;Chrome;112.0;Windows;10;undefined;undefined;2560 x 1440;2560 x 1297
H012;38;Mannelijk;Ambidexter;2;29;right;no;50;rightarrow;403;true;focus;no;281223;Chrome;112.0;Windows;10;undefined;undefined;2560 x 1440;2560 x 1297
H012;38;Mannelijk;Ambidexter;2;30;left;no;50;leftarrow;390;true;focus;no;282391;Chrome;112.0;Windows;10;undefined;undefined;2560 x 1440;2560 x 1297
H012;38;Mannelijk;Ambidexter;2;31;right;yes;50;rightarrow;422;false;focus;no;283592;Chrome;112.0;Windows;10;undefined;undefined;2560 x 1440;2560 x 1297
H012;38;Mannelijk;Ambidexter;2;32;right;no;50;rightarrow;338;true;focus;no;284696;Chrome;112.0;Windows;10;undefined;undefined;2560 x 1440;2560 x 1297
H012;38;Mannelijk;Ambidexter;2;33;right;no;50;rightarrow;309;true;focus;no;285784;Chrome;112.0;Windows;10;undefined;undefined;2560 x 1440;2560 x 1297
H012;38;Mannelijk;Ambidexter;2;34;right;yes;50;rightarrow;302;false;focus;no;286864;Chrome;112.0;Windows;10;undefined;undefined;2560 x 1440;2560 x 1297
H012;38;Mannelijk;Ambidexter;2;35;right;no;50;rightarrow;729;true;focus;no;288368;Chrome;112.0;Windows;10;undefined;undefined;2560 x 1440;2560 x 1297
H012;38;Mannelijk;Ambidexter;2;36;left;yes;50;leftarrow;365;false;focus;no;289496;Chrome;112.0;Windows;10;undefined;undefined;2560 x 1440;2560 x 1297
H012;38;Mannelijk;Ambidexter;2;37;left;no;50;leftarrow;442;true;focus;no;290712;Chrome;112.0;Windows;10;undefined;undefined;2560 x 1440;2560 x 1297
H012;38;Mannelijk;Ambidexter;2;38;left;no;50;leftarrow;350;true;focus;no;291832;Chrome;112.0;Windows;10;undefined;undefined;2560 x 1440;2560 x 1297
H012;38;Mannelijk;Ambidexter;2;39;right;no;50;rightarrow;450;true;focus;no;293056;Chrome;112.0;Windows;10;undefined;undefined;2560 x 1440;2560 x 1297
H012;38;Mannelijk;Ambidexter;2;40;left;no;50;leftarrow;386;true;focus;no;294223;Chrome;112.0;Windows;10;undefined;undefined;2560 x 1440;2560 x 1297
H012;38;Mannelijk;Ambidexter;2;41;left;no;50;leftarrow;343;true;focus;no;295344;Chrome;112.0;Windows;10;undefined;undefined;2560 x 1440;2560 x 1297
H012;38;Mannelijk;Ambidexter;2;42;right;yes;50;rightarrow;418;false;focus;no;296528;Chrome;112.0;Windows;10;undefined;undefined;2560 x 1440;2560 x 1297
H012;38;Mannelijk;Ambidexter;2;43;left;yes;50;leftarrow;316;false;focus;no;297624;Chrome;112.0;Windows;10;undefined;undefined;2560 x 1440;2560 x 1297
H012;38;Mannelijk;Ambidexter;2;44;left;no;50;leftarrow;321;true;focus;no;298720;Chrome;112.0;Windows;10;undefined;undefined;2560 x 1440;2560 x 1297
H012;38;Mannelijk;Ambidexter;2;45;right;no;50;rightarrow;377;true;focus;no;299865;Chrome;112.0;Windows;10;undefined;undefined;2560 x 1440;2560 x 1297
H012;38;Mannelijk;Ambidexter;2;46;left;no;50;leftarrow;298;true;focus;no;300920;Chrome;112.0;Windows;10;undefined;undefined;2560 x 1440;2560 x 1297
H012;38;Mannelijk;Ambidexter;2;47;right;no;50;rightarrow;305;true;focus;no;302000;Chrome;112.0;Windows;10;undefined;undefined;2560 x 1440;2560 x 1297
H012;38;Mannelijk;Ambidexter;2;48;right;no;50;rightarrow;454;true;focus;no;303224;Chrome;112.0;Windows;10;undefined;undefined;2560 x 1440;2560 x 1297
H012;38;Mannelijk;Ambidexter;2;49;right;no;50;rightarrow;440;true;focus;no;304424;Chrome;112.0;Windows;10;undefined;undefined;2560 x 1440;2560 x 1297
H012;38;Mannelijk;Ambidexter;2;50;right;no;50;rightarrow;956;true;focus;no;306151;Chrome;112.0;Windows;10;undefined;undefined;2560 x 1440;2560 x 1297
H012;38;Mannelijk;Ambidexter;2;51;right;no;50;rightarrow;409;true;focus;no;307328;Chrome;112.0;Windows;10;undefined;undefined;2560 x 1440;2560 x 1297
H012;38;Mannelijk;Ambidexter;2;52;left;no;50;leftarrow;413;true;focus;no;308521;Chrome;112.0;Windows;10;undefined;undefined;2560 x 1440;2560 x 1297
H012;38;Mannelijk;Ambidexter;2;53;left;no;50;leftarrow;396;true;focus;no;309673;Chrome;112.0;Windows;10;undefined;undefined;2560 x 1440;2560 x 1297
H012;38;Mannelijk;Ambidexter;2;54;left;yes;50;leftarrow;343;false;focus;no;310784;Chrome;112.0;Windows;10;undefined;undefined;2560 x 1440;2560 x 1297
H012;38;Mannelijk;Ambidexter;2;55;right;yes;50;rightarrow;300;false;focus;no;311865;Chrome;112.0;Windows;10;undefined;undefined;2560 x 1440;2560 x 1297
H012;38;Mannelijk;Ambidexter;2;56;left;no;50;leftarrow;388;true;focus;no;313025;Chrome;112.0;Windows;10;undefined;undefined;2560 x 1440;2560 x 1297
H012;38;Mannelijk;Ambidexter;2;57;left;no;50;leftarrow;395;true;focus;no;314200;Chrome;112.0;Windows;10;undefined;undefined;2560 x 1440;2560 x 1297
H012;38;Mannelijk;Ambidexter;2;58;right;no;50;rightarrow;446;true;focus;no;315409;Chrome;112.0;Windows;10;undefined;undefined;2560 x 1440;2560 x 1297
H012;38;Mannelijk;Ambidexter;2;59;right;yes;50;rightarrow;284;false;focus;no;316472;Chrome;112.0;Windows;10;undefined;undefined;2560 x 1440;2560 x 1297
H012;38;Mannelijk;Ambidexter;2;60;left;no;50;leftarrow;268;true;focus;no;317504;Chrome;112.0;Windows;10;undefined;undefined;2560 x 1440;2560 x 1297
H012;38;Mannelijk;Ambidexter;2;61;left;no;50;rightarrow;253;false;focus;no;318529;Chrome;112.0;Windows;10;undefined;undefined;2560 x 1440;2560 x 1297
H012;38;Mannelijk;Ambidexter;2;62;right;no;50;rightarrow;828;true;focus;no;320128;Chrome;112.0;Windows;10;undefined;undefined;2560 x 1440;2560 x 1297
H012;38;Mannelijk;Ambidexter;2;63;right;no;50;rightarrow;449;true;focus;no;321337;Chrome;112.0;Windows;10;undefined;undefined;2560 x 1440;2560 x 1297
H012;38;Mannelijk;Ambidexter;2;64;left;yes;50;leftarrow;402;false;focus;no;322519;Chrome;112.0;Windows;10;undefined;undefined;2560 x 1440;2560 x 1297
H012;38;Mannelijk;Ambidexter;2;65;right;yes;50;rightarrow;365;false;focus;no;323640;Chrome;112.0;Windows;10;undefined;undefined;2560 x 1440;2560 x 1297
H012;38;Mannelijk;Ambidexter;2;66;left;no;50;leftarrow;386;true;focus;no;324793;Chrome;112.0;Windows;10;undefined;undefined;2560 x 1440;2560 x 1297
H012;38;Mannelijk;Ambidexter;2;67;right;no;50;rightarrow;381;true;focus;no;325952;Chrome;112.0;Windows;10;undefined;undefined;2560 x 1440;2560 x 1297
H012;38;Mannelijk;Ambidexter;2;68;left;yes;50;leftarrow;362;false;focus;no;327088;Chrome;112.0;Windows;10;undefined;undefined;2560 x 1440;2560 x 1297
H012;38;Mannelijk;Ambidexter;2;69;left;no;50;leftarrow;453;true;focus;no;328320;Chrome;112.0;Windows;10;undefined;undefined;2560 x 1440;2560 x 1297
H012;38;Mannelijk;Ambidexter;2;70;left;no;50;leftarrow;384;true;focus;no;329481;Chrome;112.0;Windows;10;undefined;undefined;2560 x 1440;2560 x 1297
H012;38;Mannelijk;Ambidexter;2;71;right;no;50;rightarrow;384;true;focus;no;330633;Chrome;112.0;Windows;10;undefined;undefined;2560 x 1440;2560 x 1297
H012;38;Mannelijk;Ambidexter;2;72;right;no;50;rightarrow;333;true;focus;no;331737;Chrome;112.0;Windows;10;undefined;undefined;2560 x 1440;2560 x 1297
H012;38;Mannelijk;Ambidexter;2;73;right;no;50;rightarrow;388;true;focus;no;332897;Chrome;112.0;Windows;10;undefined;undefined;2560 x 1440;2560 x 1297
H012;38;Mannelijk;Ambidexter;2;74;right;no;50;rightarrow;795;true;focus;no;334473;Chrome;112.0;Windows;10;undefined;undefined;2560 x 1440;2560 x 1297
H012;38;Mannelijk;Ambidexter;2;75;left;yes;50;leftarrow;377;false;focus;no;335626;Chrome;112.0;Windows;10;undefined;undefined;2560 x 1440;2560 x 1297
H012;38;Mannelijk;Ambidexter;2;76;right;no;50;rightarrow;367;true;focus;no;336769;Chrome;112.0;Windows;10;undefined;undefined;2560 x 1440;2560 x 1297
H012;38;Mannelijk;Ambidexter;2;77;right;yes;50;rightarrow;368;false;focus;no;337913;Chrome;112.0;Windows;10;undefined;undefined;2560 x 1440;2560 x 1297
H012;38;Mannelijk;Ambidexter;2;78;left;no;50;leftarrow;374;true;focus;no;339057;Chrome;112.0;Windows;10;undefined;undefined;2560 x 1440;2560 x 1297
H012;38;Mannelijk;Ambidexter;2;79;left;no;50;leftarrow;370;true;focus;no;340192;Chrome;112.0;Windows;10;undefined;undefined;2560 x 1440;2560 x 1297
H012;38;Mannelijk;Ambidexter;2;80;left;no;50;leftarrow;380;true;focus;no;341353;Chrome;112.0;Windows;10;undefined;undefined;2560 x 1440;2560 x 1297
H012;38;Mannelijk;Ambidexter;2;81;right;no;50;rightarrow;354;true;focus;no;342481;Chrome;112.0;Windows;10;undefined;undefined;2560 x 1440;2560 x 1297
H012;38;Mannelijk;Ambidexter;2;82;left;no;50;leftarrow;366;true;focus;no;343616;Chrome;112.0;Windows;10;undefined;undefined;2560 x 1440;2560 x 1297
H012;38;Mannelijk;Ambidexter;2;83;right;no;50;rightarrow;385;true;focus;no;344786;Chrome;112.0;Windows;10;undefined;undefined;2560 x 1440;2560 x 1297
H012;38;Mannelijk;Ambidexter;2;84;left;yes;50;leftarrow;370;false;focus;no;345937;Chrome;112.0;Windows;10;undefined;undefined;2560 x 1440;2560 x 1297
H012;38;Mannelijk;Ambidexter;2;85;right;no;50;rightarrow;863;true;focus;no;347570;Chrome;112.0;Windows;10;undefined;undefined;2560 x 1440;2560 x 1297
H012;38;Mannelijk;Ambidexter;2;86;left;no;50;leftarrow;227;true;focus;no;348570;Chrome;112.0;Windows;10;undefined;undefined;2560 x 1440;2560 x 1297
H012;38;Mannelijk;Ambidexter;2;87;left;no;50;leftarrow;644;true;focus;no;349993;Chrome;112.0;Windows;10;undefined;undefined;2560 x 1440;2560 x 1297
H012;38;Mannelijk;Ambidexter;2;88;right;yes;50;rightarrow;342;false;focus;no;351105;Chrome;112.0;Windows;10;undefined;undefined;2560 x 1440;2560 x 1297
H012;38;Mannelijk;Ambidexter;2;89;left;no;50;leftarrow;245;true;focus;no;352130;Chrome;112.0;Windows;10;undefined;undefined;2560 x 1440;2560 x 1297
H012;38;Mannelijk;Ambidexter;2;90;left;no;50;leftarrow;432;true;focus;no;353345;Chrome;112.0;Windows;10;undefined;undefined;2560 x 1440;2560 x 1297
H012;38;Mannelijk;Ambidexter;2;91;right;no;50;rightarrow;783;true;focus;no;354898;Chrome;112.0;Windows;10;undefined;undefined;2560 x 1440;2560 x 1297
H012;38;Mannelijk;Ambidexter;2;92;right;no;50;rightarrow;436;true;focus;no;356106;Chrome;112.0;Windows;10;undefined;undefined;2560 x 1440;2560 x 1297
H012;38;Mannelijk;Ambidexter;2;93;left;yes;50;leftarrow;345;false;focus;no;357234;Chrome;112.0;Windows;10;undefined;undefined;2560 x 1440;2560 x 1297
H012;38;Mannelijk;Ambidexter;2;94;right;no;50;rightarrow;324;true;focus;no;358330;Chrome;112.0;Windows;10;undefined;undefined;2560 x 1440;2560 x 1297
H012;38;Mannelijk;Ambidexter;2;95;left;no;50;leftarrow;272;true;focus;no;359386;Chrome;112.0;Windows;10;undefined;undefined;2560 x 1440;2560 x 1297
H012;38;Mannelijk;Ambidexter;2;96;right;yes;50;rightarrow;225;false;focus;no;360378;Chrome;112.0;Windows;10;undefined;undefined;2560 x 1440;2560 x 1297
H012;38;Mannelijk;Ambidexter;2;97;left;no;50;leftarrow;120;true;focus;no;361273;Chrome;112.0;Windows;10;undefined;undefined;2560 x 1440;2560 x 1297
H012;38;Mannelijk;Ambidexter;2;98;left;yes;50;leftarrow;382;false;focus;no;362434;Chrome;112.0;Windows;10;undefined;undefined;2560 x 1440;2560 x 1297
H012;38;Mannelijk;Ambidexter;2;99;left;no;50;leftarrow;471;true;focus;no;363674;Chrome;112.0;Windows;10;undefined;undefined;2560 x 1440;2560 x 1297
H012;38;Mannelijk;Ambidexter;2;100;right;yes;50;rightarrow;385;false;focus;no;364834;Chrome;112.0;Windows;10;undefined;undefined;2560 x 1440;2560 x 1297
H012;38;Mannelijk;Ambidexter;2;101;right;no;50;rightarrow;390;true;focus;no;365994;Chrome;112.0;Windows;10;undefined;undefined;2560 x 1440;2560 x 1297
H012;38;Mannelijk;Ambidexter;2;102;right;no;50;rightarrow;425;true;focus;no;367194;Chrome;112.0;Windows;10;undefined;undefined;2560 x 1440;2560 x 1297
H012;38;Mannelijk;Ambidexter;2;103;left;no;50;leftarrow;404;true;focus;no;368378;Chrome;112.0;Windows;10;undefined;undefined;2560 x 1440;2560 x 1297
H012;38;Mannelijk;Ambidexter;2;104;right;no;50;rightarrow;859;true;focus;no;370018;Chrome;112.0;Windows;10;undefined;undefined;2560 x 1440;2560 x 1297
H012;38;Mannelijk;Ambidexter;2;105;right;yes;50;rightarrow;367;false;focus;no;371155;Chrome;112.0;Windows;10;undefined;undefined;2560 x 1440;2560 x 1297
H012;38;Mannelijk;Ambidexter;2;106;left;no;50;leftarrow;291;true;focus;no;372218;Chrome;112.0;Windows;10;undefined;undefined;2560 x 1440;2560 x 1297
H012;38;Mannelijk;Ambidexter;2;107;left;yes;50;leftarrow;323;false;focus;no;373322;Chrome;112.0;Windows;10;undefined;undefined;2560 x 1440;2560 x 1297
H012;38;Mannelijk;Ambidexter;2;108;left;no;50;leftarrow;385;true;focus;no;374475;Chrome;112.0;Windows;10;undefined;undefined;2560 x 1440;2560 x 1297
H012;38;Mannelijk;Ambidexter;2;109;right;no;50;rightarrow;368;true;focus;no;375611;Chrome;112.0;Windows;10;undefined;undefined;2560 x 1440;2560 x 1297
H012;38;Mannelijk;Ambidexter;2;110;left;no;50;leftarrow;337;true;focus;no;376730;Chrome;112.0;Windows;10;undefined;undefined;2560 x 1440;2560 x 1297
H012;38;Mannelijk;Ambidexter;2;111;right;no;50;rightarrow;810;true;focus;no;378321;Chrome;112.0;Windows;10;undefined;undefined;2560 x 1440;2560 x 1297
H012;38;Mannelijk;Ambidexter;2;112;right;no;50;rightarrow;344;true;focus;no;379442;Chrome;112.0;Windows;10;undefined;undefined;2560 x 1440;2560 x 1297
H012;38;Mannelijk;Ambidexter;2;113;right;no;50;rightarrow;329;true;focus;no;380546;Chrome;112.0;Windows;10;undefined;undefined;2560 x 1440;2560 x 1297
H012;38;Mannelijk;Ambidexter;2;114;left;no;50;leftarrow;308;true;focus;no;381635;Chrome;112.0;Windows;10;undefined;undefined;2560 x 1440;2560 x 1297
H012;38;Mannelijk;Ambidexter;2;115;right;no;50;rightarrow;380;true;focus;no;382795;Chrome;112.0;Windows;10;undefined;undefined;2560 x 1440;2560 x 1297
H012;38;Mannelijk;Ambidexter;2;116;left;yes;50;leftarrow;373;false;focus;no;383939;Chrome;112.0;Windows;10;undefined;undefined;2560 x 1440;2560 x 1297
H012;38;Mannelijk;Ambidexter;2;117;left;no;50;leftarrow;306;true;focus;no;385027;Chrome;112.0;Windows;10;undefined;undefined;2560 x 1440;2560 x 1297
H012;38;Mannelijk;Ambidexter;2;118;right;yes;50;rightarrow;375;false;focus;no;386171;Chrome;112.0;Windows;10;undefined;undefined;2560 x 1440;2560 x 1297
H012;38;Mannelijk;Ambidexter;2;119;right;no;50;rightarrow;382;true;focus;no;387332;Chrome;112.0;Windows;10;undefined;undefined;2560 x 1440;2560 x 1297
H012;38;Mannelijk;Ambidexter;2;120;left;no;50;leftarrow;354;true;focus;no;388443;Chrome;112.0;Windows;10;undefined;undefined;2560 x 1440;2560 x 1297
H012;38;Mannelijk;Ambidexter;2;121;left;yes;50;leftarrow;412;false;focus;no;389611;Chrome;112.0;Windows;10;undefined;undefined;2560 x 1440;2560 x 1297
H012;38;Mannelijk;Ambidexter;2;122;right;no;50;rightarrow;244;true;focus;no;390626;Chrome;112.0;Windows;10;undefined;undefined;2560 x 1440;2560 x 1297
H012;38;Mannelijk;Ambidexter;2;123;left;no;50;leftarrow;9;true;focus;no;391403;Chrome;112.0;Windows;10;undefined;undefined;2560 x 1440;2560 x 1297
H012;38;Mannelijk;Ambidexter;2;124;right;no;50;rightarrow;427;true;focus;no;392603;Chrome;112.0;Windows;10;undefined;undefined;2560 x 1440;2560 x 1297
H012;38;Mannelijk;Ambidexter;2;125;left;no;50;leftarrow;379;true;focus;no;393755;Chrome;112.0;Windows;10;undefined;undefined;2560 x 1440;2560 x 1297
H012;38;Mannelijk;Ambidexter;2;126;right;yes;50;rightarrow;354;false;focus;no;394892;Chrome;112.0;Windows;10;undefined;undefined;2560 x 1440;2560 x 1297
H012;38;Mannelijk;Ambidexter;2;127;left;no;50;leftarrow;371;true;focus;no;396043;Chrome;112.0;Windows;10;undefined;undefined;2560 x 1440;2560 x 1297
H012;38;Mannelijk;Ambidexter;2;128;right;no;50;rightarrow;8;true;focus;no;396827;Chrome;112.0;Windows;10;undefined;undefined;2560 x 1440;2560 x 1297
H012;38;Mannelijk;Ambidexter;3;1;left;no;50;leftarrow;404;true;focus;no;427421;Chrome;112.0;Windows;10;undefined;undefined;2560 x 1440;2560 x 1297
H012;38;Mannelijk;Ambidexter;3;2;right;no;50;rightarrow;370;true;focus;no;428556;Chrome;112.0;Windows;10;undefined;undefined;2560 x 1440;2560 x 1297
H012;38;Mannelijk;Ambidexter;3;3;left;no;50;leftarrow;150;true;focus;no;429485;Chrome;112.0;Windows;10;undefined;undefined;2560 x 1440;2560 x 1297
H012;38;Mannelijk;Ambidexter;3;4;right;no;50;rightarrow;262;true;focus;no;430516;Chrome;112.0;Windows;10;undefined;undefined;2560 x 1440;2560 x 1297
H012;38;Mannelijk;Ambidexter;3;5;left;no;50;leftarrow;319;true;focus;no;431612;Chrome;112.0;Windows;10;undefined;undefined;2560 x 1440;2560 x 1297
H012;38;Mannelijk;Ambidexter;3;6;left;yes;50;leftarrow;301;false;focus;no;432685;Chrome;112.0;Windows;10;undefined;undefined;2560 x 1440;2560 x 1297
H012;38;Mannelijk;Ambidexter;3;7;right;no;50;rightarrow;309;true;focus;no;433764;Chrome;112.0;Windows;10;undefined;undefined;2560 x 1440;2560 x 1297
H012;38;Mannelijk;Ambidexter;3;8;right;yes;50;rightarrow;360;false;focus;no;434893;Chrome;112.0;Windows;10;undefined;undefined;2560 x 1440;2560 x 1297
H012;38;Mannelijk;Ambidexter;3;9;right;no;50;rightarrow;423;true;focus;no;436093;Chrome;112.0;Windows;10;undefined;undefined;2560 x 1440;2560 x 1297
H012;38;Mannelijk;Ambidexter;3;10;right;yes;50;rightarrow;330;false;focus;no;437197;Chrome;112.0;Windows;10;undefined;undefined;2560 x 1440;2560 x 1297
H012;38;Mannelijk;Ambidexter;3;11;left;no;50;leftarrow;270;true;focus;no;438229;Chrome;112.0;Windows;10;undefined;undefined;2560 x 1440;2560 x 1297
H012;38;Mannelijk;Ambidexter;3;12;left;yes;50;leftarrow;278;false;focus;no;439277;Chrome;112.0;Windows;10;undefined;undefined;2560 x 1440;2560 x 1297
H012;38;Mannelijk;Ambidexter;3;13;left;no;50;leftarrow;307;true;focus;no;440365;Chrome;112.0;Windows;10;undefined;undefined;2560 x 1440;2560 x 1297
H012;38;Mannelijk;Ambidexter;3;14;left;no;50;leftarrow;469;true;focus;no;441604;Chrome;112.0;Windows;10;undefined;undefined;2560 x 1440;2560 x 1297
H012;38;Mannelijk;Ambidexter;3;15;right;no;50;rightarrow;336;true;focus;no;442708;Chrome;112.0;Windows;10;undefined;undefined;2560 x 1440;2560 x 1297
H012;38;Mannelijk;Ambidexter;3;16;right;no;50;leftarrow;243;false;focus;no;443733;Chrome;112.0;Windows;10;undefined;undefined;2560 x 1440;2560 x 1297
H012;38;Mannelijk;Ambidexter;3;17;right;no;50;rightarrow;416;true;focus;no;444933;Chrome;112.0;Windows;10;undefined;undefined;2560 x 1440;2560 x 1297
H012;38;Mannelijk;Ambidexter;3;18;left;yes;50;leftarrow;364;false;focus;no;446077;Chrome;112.0;Windows;10;undefined;undefined;2560 x 1440;2560 x 1297
H012;38;Mannelijk;Ambidexter;3;19;right;no;50;rightarrow;379;true;focus;no;447228;Chrome;112.0;Windows;10;undefined;undefined;2560 x 1440;2560 x 1297
H012;38;Mannelijk;Ambidexter;3;20;right;no;50;rightarrow;388;true;focus;no;448373;Chrome;112.0;Windows;10;undefined;undefined;2560 x 1440;2560 x 1297
H012;38;Mannelijk;Ambidexter;3;21;left;no;50;leftarrow;396;true;focus;no;449533;Chrome;112.0;Windows;10;undefined;undefined;2560 x 1440;2560 x 1297
H012;38;Mannelijk;Ambidexter;3;22;left;no;50;leftarrow;446;true;focus;no;450749;Chrome;112.0;Windows;10;undefined;undefined;2560 x 1440;2560 x 1297
H012;38;Mannelijk;Ambidexter;3;23;left;no;50;leftarrow;344;true;focus;no;451877;Chrome;112.0;Windows;10;undefined;undefined;2560 x 1440;2560 x 1297
H012;38;Mannelijk;Ambidexter;3;24;right;yes;50;rightarrow;369;false;focus;no;453020;Chrome;112.0;Windows;10;undefined;undefined;2560 x 1440;2560 x 1297
H012;38;Mannelijk;Ambidexter;3;25;right;no;50;leftarrow;245;false;focus;no;454045;Chrome;112.0;Windows;10;undefined;undefined;2560 x 1440;2560 x 1297
H012;38;Mannelijk;Ambidexter;3;26;left;yes;50;leftarrow;446;false;focus;no;455269;Chrome;112.0;Windows;10;undefined;undefined;2560 x 1440;2560 x 1297
H012;38;Mannelijk;Ambidexter;3;27;left;no;50;leftarrow;374;true;focus;no;456413;Chrome;112.0;Windows;10;undefined;undefined;2560 x 1440;2560 x 1297
H012;38;Mannelijk;Ambidexter;3;28;right;no;50;rightarrow;333;true;focus;no;457525;Chrome;112.0;Windows;10;undefined;undefined;2560 x 1440;2560 x 1297
H012;38;Mannelijk;Ambidexter;3;29;left;no;50;leftarrow;373;true;focus;no;458668;Chrome;112.0;Windows;10;undefined;undefined;2560 x 1440;2560 x 1297
H012;38;Mannelijk;Ambidexter;3;30;right;no;50;rightarrow;380;true;focus;no;459821;Chrome;112.0;Windows;10;undefined;undefined;2560 x 1440;2560 x 1297
H012;38;Mannelijk;Ambidexter;3;31;right;yes;50;leftarrow;259;false;focus;no;460854;Chrome;112.0;Windows;10;undefined;undefined;2560 x 1440;2560 x 1297
H012;38;Mannelijk;Ambidexter;3;32;left;no;50;leftarrow;380;true;focus;no;461998;Chrome;112.0;Windows;10;undefined;undefined;2560 x 1440;2560 x 1297
H012;38;Mannelijk;Ambidexter;3;33;left;yes;50;rightarrow;265;false;focus;no;463022;Chrome;112.0;Windows;10;undefined;undefined;2560 x 1440;2560 x 1297
H012;38;Mannelijk;Ambidexter;3;34;right;no;50;rightarrow;332;true;focus;no;464125;Chrome;112.0;Windows;10;undefined;undefined;2560 x 1440;2560 x 1297
H012;38;Mannelijk;Ambidexter;3;35;left;no;50;leftarrow;362;true;focus;no;465261;Chrome;112.0;Windows;10;undefined;undefined;2560 x 1440;2560 x 1297
H012;38;Mannelijk;Ambidexter;3;36;left;no;50;leftarrow;405;true;focus;no;466438;Chrome;112.0;Windows;10;undefined;undefined;2560 x 1440;2560 x 1297
H012;38;Mannelijk;Ambidexter;3;37;left;no;50;leftarrow;297;true;focus;no;467518;Chrome;112.0;Windows;10;undefined;undefined;2560 x 1440;2560 x 1297
H012;38;Mannelijk;Ambidexter;3;38;right;no;50;rightarrow;307;true;focus;no;468598;Chrome;112.0;Windows;10;undefined;undefined;2560 x 1440;2560 x 1297
H012;38;Mannelijk;Ambidexter;3;39;right;no;50;rightarrow;398;true;focus;no;469774;Chrome;112.0;Windows;10;undefined;undefined;2560 x 1440;2560 x 1297
H012;38;Mannelijk;Ambidexter;3;40;right;yes;50;rightarrow;368;false;focus;no;470918;Chrome;112.0;Windows;10;undefined;undefined;2560 x 1440;2560 x 1297
H012;38;Mannelijk;Ambidexter;3;41;left;no;50;leftarrow;330;true;focus;no;472029;Chrome;112.0;Windows;10;undefined;undefined;2560 x 1440;2560 x 1297
H012;38;Mannelijk;Ambidexter;3;42;left;no;50;leftarrow;400;true;focus;no;473204;Chrome;112.0;Windows;10;undefined;undefined;2560 x 1440;2560 x 1297
H012;38;Mannelijk;Ambidexter;3;43;right;no;50;rightarrow;355;true;focus;no;474326;Chrome;112.0;Windows;10;undefined;undefined;2560 x 1440;2560 x 1297
H012;38;Mannelijk;Ambidexter;3;44;left;yes;50;leftarrow;380;false;focus;no;475485;Chrome;112.0;Windows;10;undefined;undefined;2560 x 1440;2560 x 1297
H012;38;Mannelijk;Ambidexter;3;45;right;yes;50;rightarrow;138;false;focus;no;476381;Chrome;112.0;Windows;10;undefined;undefined;2560 x 1440;2560 x 1297
H012;38;Mannelijk;Ambidexter;3;46;right;no;50;rightarrow;394;true;focus;no;477559;Chrome;112.0;Windows;10;undefined;undefined;2560 x 1440;2560 x 1297
H012;38;Mannelijk;Ambidexter;3;47;right;no;50;rightarrow;389;true;focus;no;478718;Chrome;112.0;Windows;10;undefined;undefined;2560 x 1440;2560 x 1297
H012;38;Mannelijk;Ambidexter;3;48;left;no;50;leftarrow;259;true;focus;no;479750;Chrome;112.0;Windows;10;undefined;undefined;2560 x 1440;2560 x 1297
H012;38;Mannelijk;Ambidexter;3;49;left;no;50;leftarrow;303;true;focus;no;480838;Chrome;112.0;Windows;10;undefined;undefined;2560 x 1440;2560 x 1297
H012;38;Mannelijk;Ambidexter;3;50;left;no;50;leftarrow;704;true;focus;no;482310;Chrome;112.0;Windows;10;undefined;undefined;2560 x 1440;2560 x 1297
H012;38;Mannelijk;Ambidexter;3;51;right;no;50;rightarrow;329;true;focus;no;483406;Chrome;112.0;Windows;10;undefined;undefined;2560 x 1440;2560 x 1297
H012;38;Mannelijk;Ambidexter;3;52;left;yes;50;leftarrow;280;false;focus;no;484462;Chrome;112.0;Windows;10;undefined;undefined;2560 x 1440;2560 x 1297
H012;38;Mannelijk;Ambidexter;3;53;right;yes;50;rightarrow;248;false;focus;no;485486;Chrome;112.0;Windows;10;undefined;undefined;2560 x 1440;2560 x 1297
H012;38;Mannelijk;Ambidexter;3;54;right;no;50;rightarrow;441;true;focus;no;486702;Chrome;112.0;Windows;10;undefined;undefined;2560 x 1440;2560 x 1297
H012;38;Mannelijk;Ambidexter;3;55;left;no;50;leftarrow;384;true;focus;no;487863;Chrome;112.0;Windows;10;undefined;undefined;2560 x 1440;2560 x 1297
H012;38;Mannelijk;Ambidexter;3;56;right;no;50;rightarrow;396;true;focus;no;489031;Chrome;112.0;Windows;10;undefined;undefined;2560 x 1440;2560 x 1297
H012;38;Mannelijk;Ambidexter;3;57;left;no;50;leftarrow;302;true;focus;no;490103;Chrome;112.0;Windows;10;undefined;undefined;2560 x 1440;2560 x 1297
H012;38;Mannelijk;Ambidexter;3;58;right;no;50;rightarrow;344;true;focus;no;491207;Chrome;112.0;Windows;10;undefined;undefined;2560 x 1440;2560 x 1297
H012;38;Mannelijk;Ambidexter;3;59;left;no;50;leftarrow;373;true;focus;no;492359;Chrome;112.0;Windows;10;undefined;undefined;2560 x 1440;2560 x 1297
H012;38;Mannelijk;Ambidexter;3;60;right;yes;50;rightarrow;411;false;focus;no;493550;Chrome;112.0;Windows;10;undefined;undefined;2560 x 1440;2560 x 1297
H012;38;Mannelijk;Ambidexter;3;61;right;no;50;rightarrow;413;true;focus;no;494735;Chrome;112.0;Windows;10;undefined;undefined;2560 x 1440;2560 x 1297
H012;38;Mannelijk;Ambidexter;3;62;left;no;50;leftarrow;442;true;focus;no;495959;Chrome;112.0;Windows;10;undefined;undefined;2560 x 1440;2560 x 1297
H012;38;Mannelijk;Ambidexter;3;63;right;no;50;rightarrow;337;true;focus;no;497071;Chrome;112.0;Windows;10;undefined;undefined;2560 x 1440;2560 x 1297
H012;38;Mannelijk;Ambidexter;3;64;left;yes;50;leftarrow;352;false;focus;no;498206;Chrome;112.0;Windows;10;undefined;undefined;2560 x 1440;2560 x 1297
H012;38;Mannelijk;Ambidexter;3;65;left;no;50;leftarrow;467;true;focus;no;499446;Chrome;112.0;Windows;10;undefined;undefined;2560 x 1440;2560 x 1297
H012;38;Mannelijk;Ambidexter;3;66;left;no;50;leftarrow;412;true;focus;no;500631;Chrome;112.0;Windows;10;undefined;undefined;2560 x 1440;2560 x 1297
H012;38;Mannelijk;Ambidexter;3;67;left;no;50;leftarrow;361;true;focus;no;501767;Chrome;112.0;Windows;10;undefined;undefined;2560 x 1440;2560 x 1297
H012;38;Mannelijk;Ambidexter;3;68;right;no;50;rightarrow;288;true;focus;no;502815;Chrome;112.0;Windows;10;undefined;undefined;2560 x 1440;2560 x 1297
H012;38;Mannelijk;Ambidexter;3;69;left;yes;50;leftarrow;389;false;focus;no;503984;Chrome;112.0;Windows;10;undefined;undefined;2560 x 1440;2560 x 1297
H012;38;Mannelijk;Ambidexter;3;70;right;yes;50;rightarrow;363;false;focus;no;505127;Chrome;112.0;Windows;10;undefined;undefined;2560 x 1440;2560 x 1297
H012;38;Mannelijk;Ambidexter;3;71;right;no;50;rightarrow;326;true;focus;no;506231;Chrome;112.0;Windows;10;undefined;undefined;2560 x 1440;2560 x 1297
H012;38;Mannelijk;Ambidexter;3;72;right;no;50;leftarrow;269;false;focus;no;507279;Chrome;112.0;Windows;10;undefined;undefined;2560 x 1440;2560 x 1297
H012;38;Mannelijk;Ambidexter;3;73;left;no;50;leftarrow;361;true;focus;no;508399;Chrome;112.0;Windows;10;undefined;undefined;2560 x 1440;2560 x 1297
H012;38;Mannelijk;Ambidexter;3;74;left;yes;50;leftarrow;381;false;focus;no;509559;Chrome;112.0;Windows;10;undefined;undefined;2560 x 1440;2560 x 1297
H012;38;Mannelijk;Ambidexter;3;75;left;no;50;leftarrow;414;true;focus;no;510743;Chrome;112.0;Windows;10;undefined;undefined;2560 x 1440;2560 x 1297
H012;38;Mannelijk;Ambidexter;3;76;left;no;50;leftarrow;308;true;focus;no;511824;Chrome;112.0;Windows;10;undefined;undefined;2560 x 1440;2560 x 1297
H012;38;Mannelijk;Ambidexter;3;77;right;no;50;rightarrow;383;true;focus;no;512975;Chrome;112.0;Windows;10;undefined;undefined;2560 x 1440;2560 x 1297
H012;38;Mannelijk;Ambidexter;3;78;right;no;50;rightarrow;354;true;focus;no;514087;Chrome;112.0;Windows;10;undefined;undefined;2560 x 1440;2560 x 1297
H012;38;Mannelijk;Ambidexter;3;79;right;yes;50;rightarrow;373;false;focus;no;515231;Chrome;112.0;Windows;10;undefined;undefined;2560 x 1440;2560 x 1297
H012;38;Mannelijk;Ambidexter;3;80;right;no;50;rightarrow;444;true;focus;no;516455;Chrome;112.0;Windows;10;undefined;undefined;2560 x 1440;2560 x 1297
H012;38;Mannelijk;Ambidexter;3;81;left;yes;50;leftarrow;398;false;focus;no;517624;Chrome;112.0;Windows;10;undefined;undefined;2560 x 1440;2560 x 1297
H012;38;Mannelijk;Ambidexter;3;82;left;no;50;leftarrow;309;true;focus;no;518704;Chrome;112.0;Windows;10;undefined;undefined;2560 x 1440;2560 x 1297
H012;38;Mannelijk;Ambidexter;3;83;left;no;50;leftarrow;304;true;focus;no;519791;Chrome;112.0;Windows;10;undefined;undefined;2560 x 1440;2560 x 1297
H012;38;Mannelijk;Ambidexter;3;84;left;no;50;leftarrow;371;true;focus;no;520935;Chrome;112.0;Windows;10;undefined;undefined;2560 x 1440;2560 x 1297
H012;38;Mannelijk;Ambidexter;3;85;right;no;50;rightarrow;462;true;focus;no;522167;Chrome;112.0;Windows;10;undefined;undefined;2560 x 1440;2560 x 1297
H012;38;Mannelijk;Ambidexter;3;86;right;yes;50;rightarrow;276;false;focus;no;523215;Chrome;112.0;Windows;10;undefined;undefined;2560 x 1440;2560 x 1297
H012;38;Mannelijk;Ambidexter;3;87;right;no;50;rightarrow;516;true;focus;no;524504;Chrome;112.0;Windows;10;undefined;undefined;2560 x 1440;2560 x 1297
H012;38;Mannelijk;Ambidexter;3;88;right;no;50;rightarrow;911;true;focus;no;526192;Chrome;112.0;Windows;10;undefined;undefined;2560 x 1440;2560 x 1297
H012;38;Mannelijk;Ambidexter;3;89;right;no;50;rightarrow;444;true;focus;no;527416;Chrome;112.0;Windows;10;undefined;undefined;2560 x 1440;2560 x 1297
H012;38;Mannelijk;Ambidexter;3;90;right;no;50;rightarrow;290;true;focus;no;528480;Chrome;112.0;Windows;10;undefined;undefined;2560 x 1440;2560 x 1297
H012;38;Mannelijk;Ambidexter;3;91;left;no;50;leftarrow;377;true;focus;no;529640;Chrome;112.0;Windows;10;undefined;undefined;2560 x 1440;2560 x 1297
H012;38;Mannelijk;Ambidexter;3;92;right;yes;50;rightarrow;384;false;focus;no;530792;Chrome;112.0;Windows;10;undefined;undefined;2560 x 1440;2560 x 1297
H012;38;Mannelijk;Ambidexter;3;93;left;yes;50;leftarrow;347;false;focus;no;531912;Chrome;112.0;Windows;10;undefined;undefined;2560 x 1440;2560 x 1297
H012;38;Mannelijk;Ambidexter;3;94;left;no;50;leftarrow;474;true;focus;no;533159;Chrome;112.0;Windows;10;undefined;undefined;2560 x 1440;2560 x 1297
H012;38;Mannelijk;Ambidexter;3;95;right;no;50;rightarrow;373;true;focus;no;534304;Chrome;112.0;Windows;10;undefined;undefined;2560 x 1440;2560 x 1297
H012;38;Mannelijk;Ambidexter;3;96;left;no;50;rightarrow;267;false;focus;no;535336;Chrome;112.0;Windows;10;undefined;undefined;2560 x 1440;2560 x 1297
H012;38;Mannelijk;Ambidexter;3;97;right;yes;50;rightarrow;427;false;focus;no;536544;Chrome;112.0;Windows;10;undefined;undefined;2560 x 1440;2560 x 1297
H012;38;Mannelijk;Ambidexter;3;98;right;no;50;rightarrow;387;true;focus;no;537704;Chrome;112.0;Windows;10;undefined;undefined;2560 x 1440;2560 x 1297
H012;38;Mannelijk;Ambidexter;3;99;left;no;50;leftarrow;651;true;focus;no;539128;Chrome;112.0;Windows;10;undefined;undefined;2560 x 1440;2560 x 1297
H012;38;Mannelijk;Ambidexter;3;100;left;no;50;leftarrow;322;true;focus;no;540232;Chrome;112.0;Windows;10;undefined;undefined;2560 x 1440;2560 x 1297
H012;38;Mannelijk;Ambidexter;3;101;right;no;50;rightarrow;369;true;focus;no;541368;Chrome;112.0;Windows;10;undefined;undefined;2560 x 1440;2560 x 1297
H012;38;Mannelijk;Ambidexter;3;102;left;no;50;leftarrow;341;true;focus;no;542481;Chrome;112.0;Windows;10;undefined;undefined;2560 x 1440;2560 x 1297
H012;38;Mannelijk;Ambidexter;3;103;right;no;50;rightarrow;386;true;focus;no;543640;Chrome;112.0;Windows;10;undefined;undefined;2560 x 1440;2560 x 1297
H012;38;Mannelijk;Ambidexter;3;104;left;yes;50;leftarrow;378;false;focus;no;544800;Chrome;112.0;Windows;10;undefined;undefined;2560 x 1440;2560 x 1297
H012;38;Mannelijk;Ambidexter;3;105;right;no;50;rightarrow;400;true;focus;no;545976;Chrome;112.0;Windows;10;undefined;undefined;2560 x 1440;2560 x 1297
H012;38;Mannelijk;Ambidexter;3;106;left;no;50;leftarrow;371;true;focus;no;547104;Chrome;112.0;Windows;10;undefined;undefined;2560 x 1440;2560 x 1297
H012;38;Mannelijk;Ambidexter;3;107;left;yes;50;leftarrow;394;false;focus;no;548280;Chrome;112.0;Windows;10;undefined;undefined;2560 x 1440;2560 x 1297
H012;38;Mannelijk;Ambidexter;3;108;left;no;50;leftarrow;353;true;focus;no;549408;Chrome;112.0;Windows;10;undefined;undefined;2560 x 1440;2560 x 1297
H012;38;Mannelijk;Ambidexter;3;109;left;no;50;leftarrow;383;true;focus;no;550559;Chrome;112.0;Windows;10;undefined;undefined;2560 x 1440;2560 x 1297
H012;38;Mannelijk;Ambidexter;3;110;right;no;50;rightarrow;343;true;focus;no;551673;Chrome;112.0;Windows;10;undefined;undefined;2560 x 1440;2560 x 1297
H012;38;Mannelijk;Ambidexter;3;111;right;yes;50;rightarrow;378;false;focus;no;552831;Chrome;112.0;Windows;10;undefined;undefined;2560 x 1440;2560 x 1297
H012;38;Mannelijk;Ambidexter;3;112;right;no;50;rightarrow;312;true;focus;no;553920;Chrome;112.0;Windows;10;undefined;undefined;2560 x 1440;2560 x 1297
H012;38;Mannelijk;Ambidexter;3;113;left;no;50;leftarrow;390;true;focus;no;555081;Chrome;112.0;Windows;10;undefined;undefined;2560 x 1440;2560 x 1297
H012;38;Mannelijk;Ambidexter;3;114;right;yes;50;rightarrow;377;false;focus;no;556241;Chrome;112.0;Windows;10;undefined;undefined;2560 x 1440;2560 x 1297
H012;38;Mannelijk;Ambidexter;3;115;left;yes;50;leftarrow;321;false;focus;no;557337;Chrome;112.0;Windows;10;undefined;undefined;2560 x 1440;2560 x 1297
H012;38;Mannelijk;Ambidexter;3;116;right;no;50;rightarrow;388;true;focus;no;558497;Chrome;112.0;Windows;10;undefined;undefined;2560 x 1440;2560 x 1297
H012;38;Mannelijk;Ambidexter;3;117;right;no;50;leftarrow;260;false;focus;no;559536;Chrome;112.0;Windows;10;undefined;undefined;2560 x 1440;2560 x 1297
H012;38;Mannelijk;Ambidexter;3;118;left;no;50;leftarrow;380;true;focus;no;560681;Chrome;112.0;Windows;10;undefined;undefined;2560 x 1440;2560 x 1297
H012;38;Mannelijk;Ambidexter;3;119;right;no;50;rightarrow;292;true;focus;no;561745;Chrome;112.0;Windows;10;undefined;undefined;2560 x 1440;2560 x 1297
H012;38;Mannelijk;Ambidexter;3;120;left;no;50;leftarrow;444;true;focus;no;562969;Chrome;112.0;Windows;10;undefined;undefined;2560 x 1440;2560 x 1297
H012;38;Mannelijk;Ambidexter;3;121;right;yes;50;rightarrow;374;false;focus;no;564105;Chrome;112.0;Windows;10;undefined;undefined;2560 x 1440;2560 x 1297
H012;38;Mannelijk;Ambidexter;3;122;left;no;50;leftarrow;804;true;focus;no;565689;Chrome;112.0;Windows;10;undefined;undefined;2560 x 1440;2560 x 1297
H012;38;Mannelijk;Ambidexter;3;123;right;no;50;rightarrow;445;true;focus;no;566906;Chrome;112.0;Windows;10;undefined;undefined;2560 x 1440;2560 x 1297
H012;38;Mannelijk;Ambidexter;3;124;left;yes;50;leftarrow;437;false;focus;no;568113;Chrome;112.0;Windows;10;undefined;undefined;2560 x 1440;2560 x 1297
H012;38;Mannelijk;Ambidexter;3;125;left;no;50;rightarrow;398;false;focus;no;569289;Chrome;112.0;Windows;10;undefined;undefined;2560 x 1440;2560 x 1297
H012;38;Mannelijk;Ambidexter;3;126;right;no;50;rightarrow;-20;false;focus;no;570049;Chrome;112.0;Windows;10;undefined;undefined;2560 x 1440;2560 x 1297
H012;38;Mannelijk;Ambidexter;3;127;right;no;50;rightarrow;413;true;focus;no;572009;Chrome;112.0;Windows;10;undefined;undefined;2560 x 1440;2560 x 1297
H012;38;Mannelijk;Ambidexter;3;128;left;no;50;leftarrow;389;true;focus;no;573169;Chrome;112.0;Windows;10;undefined;undefined;2560 x 1440;2560 x 1297
H012;38;Mannelijk;Ambidexter;4;1;right;no;50;rightarrow;341;true;focus;no;592666;Chrome;112.0;Windows;10;undefined;undefined;2560 x 1440;2560 x 1297
H012;38;Mannelijk;Ambidexter;4;2;right;no;50;rightarrow;262;true;focus;no;593706;Chrome;112.0;Windows;10;undefined;undefined;2560 x 1440;2560 x 1297
H012;38;Mannelijk;Ambidexter;4;3;left;no;50;leftarrow;380;true;focus;no;594867;Chrome;112.0;Windows;10;undefined;undefined;2560 x 1440;2560 x 1297
H012;38;Mannelijk;Ambidexter;4;4;right;yes;50;undefined;null;true;focus;no;596903;Chrome;112.0;Windows;10;undefined;undefined;2560 x 1440;2560 x 1297
H012;38;Mannelijk;Ambidexter;4;5;left;no;100;leftarrow;365;true;focus;no;598035;Chrome;112.0;Windows;10;undefined;undefined;2560 x 1440;2560 x 1297
H012;38;Mannelijk;Ambidexter;4;6;left;no;100;leftarrow;433;true;focus;no;599225;Chrome;112.0;Windows;10;undefined;undefined;2560 x 1440;2560 x 1297
H012;38;Mannelijk;Ambidexter;4;7;right;no;100;rightarrow;347;true;focus;no;600347;Chrome;112.0;Windows;10;undefined;undefined;2560 x 1440;2560 x 1297
H012;38;Mannelijk;Ambidexter;4;8;left;yes;100;leftarrow;358;false;focus;no;601474;Chrome;112.0;Windows;10;undefined;undefined;2560 x 1440;2560 x 1297
H012;38;Mannelijk;Ambidexter;4;9;left;no;50;leftarrow;459;true;focus;no;602714;Chrome;112.0;Windows;10;undefined;undefined;2560 x 1440;2560 x 1297
H012;38;Mannelijk;Ambidexter;4;10;right;no;50;rightarrow;429;true;focus;no;603914;Chrome;112.0;Windows;10;undefined;undefined;2560 x 1440;2560 x 1297
H012;38;Mannelijk;Ambidexter;4;11;left;yes;50;undefined;null;true;focus;no;605957;Chrome;112.0;Windows;10;undefined;undefined;2560 x 1440;2560 x 1297
H012;38;Mannelijk;Ambidexter;4;12;right;no;100;rightarrow;465;true;focus;no;607187;Chrome;112.0;Windows;10;undefined;undefined;2560 x 1440;2560 x 1297
H012;38;Mannelijk;Ambidexter;4;13;right;no;100;rightarrow;440;true;focus;no;608410;Chrome;112.0;Windows;10;undefined;undefined;2560 x 1440;2560 x 1297
H012;38;Mannelijk;Ambidexter;4;14;right;yes;100;undefined;null;true;focus;no;610448;Chrome;112.0;Windows;10;undefined;undefined;2560 x 1440;2560 x 1297
H012;38;Mannelijk;Ambidexter;4;15;left;no;150;leftarrow;369;true;focus;no;611595;Chrome;112.0;Windows;10;undefined;undefined;2560 x 1440;2560 x 1297
H012;38;Mannelijk;Ambidexter;4;16;left;no;150;leftarrow;393;true;focus;no;612771;Chrome;112.0;Windows;10;undefined;undefined;2560 x 1440;2560 x 1297
H012;38;Mannelijk;Ambidexter;4;17;left;no;150;leftarrow;372;true;focus;no;613907;Chrome;112.0;Windows;10;undefined;undefined;2560 x 1440;2560 x 1297
H012;38;Mannelijk;Ambidexter;4;18;right;no;150;rightarrow;1051;true;focus;no;615739;Chrome;112.0;Windows;10;undefined;undefined;2560 x 1440;2560 x 1297
H012;38;Mannelijk;Ambidexter;4;19;left;yes;150;undefined;null;true;focus;no;617769;Chrome;112.0;Windows;10;undefined;undefined;2560 x 1440;2560 x 1297
H012;38;Mannelijk;Ambidexter;4;20;left;no;200;leftarrow;365;true;focus;no;618914;Chrome;112.0;Windows;10;undefined;undefined;2560 x 1440;2560 x 1297
H012;38;Mannelijk;Ambidexter;4;21;right;no;200;rightarrow;411;true;focus;no;620090;Chrome;112.0;Windows;10;undefined;undefined;2560 x 1440;2560 x 1297
H012;38;Mannelijk;Ambidexter;4;22;right;yes;200;rightarrow;435;false;focus;no;621283;Chrome;112.0;Windows;10;undefined;undefined;2560 x 1440;2560 x 1297
H012;38;Mannelijk;Ambidexter;4;23;right;no;150;rightarrow;457;true;focus;no;622515;Chrome;112.0;Windows;10;undefined;undefined;2560 x 1440;2560 x 1297
H012;38;Mannelijk;Ambidexter;4;24;left;no;150;leftarrow;331;true;focus;no;623611;Chrome;112.0;Windows;10;undefined;undefined;2560 x 1440;2560 x 1297
H012;38;Mannelijk;Ambidexter;4;25;right;yes;150;rightarrow;339;false;focus;no;624723;Chrome;112.0;Windows;10;undefined;undefined;2560 x 1440;2560 x 1297
H012;38;Mannelijk;Ambidexter;4;26;left;no;100;rightarrow;72;false;focus;no;625571;Chrome;112.0;Windows;10;undefined;undefined;2560 x 1440;2560 x 1297
H012;38;Mannelijk;Ambidexter;4;27;right;no;100;rightarrow;502;true;focus;no;632115;Chrome;112.0;Windows;10;undefined;undefined;2560 x 1440;2560 x 1297
H012;38;Mannelijk;Ambidexter;4;28;left;no;100;leftarrow;430;true;focus;no;633323;Chrome;112.0;Windows;10;undefined;undefined;2560 x 1440;2560 x 1297
H012;38;Mannelijk;Ambidexter;4;29;left;no;100;leftarrow;375;true;focus;no;634468;Chrome;112.0;Windows;10;undefined;undefined;2560 x 1440;2560 x 1297
H012;38;Mannelijk;Ambidexter;4;30;left;yes;100;undefined;null;true;focus;no;636496;Chrome;112.0;Windows;10;undefined;undefined;2560 x 1440;2560 x 1297
H012;38;Mannelijk;Ambidexter;4;31;right;no;150;rightarrow;362;true;focus;no;637635;Chrome;112.0;Windows;10;undefined;undefined;2560 x 1440;2560 x 1297
H012;38;Mannelijk;Ambidexter;4;32;right;no;150;rightarrow;514;true;focus;no;638922;Chrome;112.0;Windows;10;undefined;undefined;2560 x 1440;2560 x 1297
H012;38;Mannelijk;Ambidexter;4;33;right;no;150;rightarrow;428;true;focus;no;640122;Chrome;112.0;Windows;10;undefined;undefined;2560 x 1440;2560 x 1297
H012;38;Mannelijk;Ambidexter;4;34;left;yes;150;undefined;null;true;focus;no;642151;Chrome;112.0;Windows;10;undefined;undefined;2560 x 1440;2560 x 1297
H012;38;Mannelijk;Ambidexter;4;35;left;no;200;leftarrow;543;true;focus;no;643460;Chrome;112.0;Windows;10;undefined;undefined;2560 x 1440;2560 x 1297
H012;38;Mannelijk;Ambidexter;4;36;right;no;200;rightarrow;363;true;focus;no;644604;Chrome;112.0;Windows;10;undefined;undefined;2560 x 1440;2560 x 1297
H012;38;Mannelijk;Ambidexter;4;37;right;yes;200;rightarrow;312;false;focus;no;645691;Chrome;112.0;Windows;10;undefined;undefined;2560 x 1440;2560 x 1297
H012;38;Mannelijk;Ambidexter;4;38;left;no;150;leftarrow;409;true;focus;no;649508;Chrome;112.0;Windows;10;undefined;undefined;2560 x 1440;2560 x 1297
H012;38;Mannelijk;Ambidexter;4;39;left;no;150;leftarrow;446;true;focus;no;650724;Chrome;112.0;Windows;10;undefined;undefined;2560 x 1440;2560 x 1297
H012;38;Mannelijk;Ambidexter;4;40;right;no;150;rightarrow;394;true;focus;no;651884;Chrome;112.0;Windows;10;undefined;undefined;2560 x 1440;2560 x 1297
H012;38;Mannelijk;Ambidexter;4;41;right;no;150;rightarrow;412;true;focus;no;653051;Chrome;112.0;Windows;10;undefined;undefined;2560 x 1440;2560 x 1297
H012;38;Mannelijk;Ambidexter;4;42;right;no;150;rightarrow;440;true;focus;no;654276;Chrome;112.0;Windows;10;undefined;undefined;2560 x 1440;2560 x 1297
H012;38;Mannelijk;Ambidexter;4;43;left;yes;150;undefined;null;true;focus;no;656319;Chrome;112.0;Windows;10;undefined;undefined;2560 x 1440;2560 x 1297
H012;38;Mannelijk;Ambidexter;4;44;left;no;200;leftarrow;401;true;focus;no;657500;Chrome;112.0;Windows;10;undefined;undefined;2560 x 1440;2560 x 1297
H012;38;Mannelijk;Ambidexter;4;45;left;no;200;leftarrow;359;true;focus;no;658620;Chrome;112.0;Windows;10;undefined;undefined;2560 x 1440;2560 x 1297
H012;38;Mannelijk;Ambidexter;4;46;right;yes;200;rightarrow;391;false;focus;no;659788;Chrome;112.0;Windows;10;undefined;undefined;2560 x 1440;2560 x 1297
H012;38;Mannelijk;Ambidexter;4;47;left;no;150;leftarrow;511;true;focus;no;661076;Chrome;112.0;Windows;10;undefined;undefined;2560 x 1440;2560 x 1297
H012;38;Mannelijk;Ambidexter;4;48;right;no;150;rightarrow;827;true;focus;no;664780;Chrome;112.0;Windows;10;undefined;undefined;2560 x 1440;2560 x 1297
H012;38;Mannelijk;Ambidexter;4;49;left;no;150;leftarrow;351;true;focus;no;665909;Chrome;112.0;Windows;10;undefined;undefined;2560 x 1440;2560 x 1297
H012;38;Mannelijk;Ambidexter;4;50;right;no;150;rightarrow;474;true;focus;no;667164;Chrome;112.0;Windows;10;undefined;undefined;2560 x 1440;2560 x 1297
H012;38;Mannelijk;Ambidexter;4;51;left;no;150;leftarrow;366;true;focus;no;668308;Chrome;112.0;Windows;10;undefined;undefined;2560 x 1440;2560 x 1297
H012;38;Mannelijk;Ambidexter;4;52;right;yes;150;rightarrow;365;false;focus;no;669444;Chrome;112.0;Windows;10;undefined;undefined;2560 x 1440;2560 x 1297
H012;38;Mannelijk;Ambidexter;4;53;left;no;100;leftarrow;423;true;focus;no;670636;Chrome;112.0;Windows;10;undefined;undefined;2560 x 1440;2560 x 1297
H012;38;Mannelijk;Ambidexter;4;54;right;no;100;rightarrow;789;true;focus;no;672189;Chrome;112.0;Windows;10;undefined;undefined;2560 x 1440;2560 x 1297
H012;38;Mannelijk;Ambidexter;4;55;left;yes;100;leftarrow;268;false;focus;no;673228;Chrome;112.0;Windows;10;undefined;undefined;2560 x 1440;2560 x 1297
H012;38;Mannelijk;Ambidexter;4;56;right;no;50;rightarrow;387;true;focus;no;674389;Chrome;112.0;Windows;10;undefined;undefined;2560 x 1440;2560 x 1297
H012;38;Mannelijk;Ambidexter;4;57;right;no;50;leftarrow;-88;false;focus;no;676363;Chrome;112.0;Windows;10;undefined;undefined;2560 x 1440;2560 x 1297
H012;38;Mannelijk;Ambidexter;4;58;left;yes;50;rightarrow;-225;false;focus;no;676900;Chrome;112.0;Windows;10;undefined;undefined;2560 x 1440;2560 x 1297
H012;38;Mannelijk;Ambidexter;4;59;left;no;50;rightarrow;-153;false;focus;no;677773;Chrome;112.0;Windows;10;undefined;undefined;2560 x 1440;2560 x 1297
H012;38;Mannelijk;Ambidexter;4;60;right;no;50;rightarrow;-214;false;focus;no;678868;Chrome;112.0;Windows;10;undefined;undefined;2560 x 1440;2560 x 1297
H012;38;Mannelijk;Ambidexter;4;61;right;yes;50;leftarrow;-89;false;focus;no;680084;Chrome;112.0;Windows;10;undefined;undefined;2560 x 1440;2560 x 1297
H012;38;Mannelijk;Ambidexter;4;62;left;no;50;rightarrow;-165;false;focus;no;681221;Chrome;112.0;Windows;10;undefined;undefined;2560 x 1440;2560 x 1297
H012;38;Mannelijk;Ambidexter;4;63;left;no;50;rightarrow;-88;false;focus;no;683469;Chrome;112.0;Windows;10;undefined;undefined;2560 x 1440;2560 x 1297
H012;38;Mannelijk;Ambidexter;4;64;right;no;50;rightarrow;483;true;focus;no;684724;Chrome;112.0;Windows;10;undefined;undefined;2560 x 1440;2560 x 1297
H012;38;Mannelijk;Ambidexter;4;65;right;no;50;rightarrow;551;true;focus;no;686053;Chrome;112.0;Windows;10;undefined;undefined;2560 x 1440;2560 x 1297
H012;38;Mannelijk;Ambidexter;4;66;right;no;50;rightarrow;319;true;focus;no;687140;Chrome;112.0;Windows;10;undefined;undefined;2560 x 1440;2560 x 1297
H012;38;Mannelijk;Ambidexter;4;67;left;no;50;leftarrow;406;true;focus;no;691197;Chrome;112.0;Windows;10;undefined;undefined;2560 x 1440;2560 x 1297
H012;38;Mannelijk;Ambidexter;4;68;left;no;50;leftarrow;429;true;focus;no;692389;Chrome;112.0;Windows;10;undefined;undefined;2560 x 1440;2560 x 1297
H012;38;Mannelijk;Ambidexter;4;69;right;no;50;rightarrow;386;true;focus;no;693557;Chrome;112.0;Windows;10;undefined;undefined;2560 x 1440;2560 x 1297
H012;38;Mannelijk;Ambidexter;4;70;right;yes;50;undefined;null;true;focus;no;695592;Chrome;112.0;Windows;10;undefined;undefined;2560 x 1440;2560 x 1297
H012;38;Mannelijk;Ambidexter;4;71;left;no;100;leftarrow;425;true;focus;no;696781;Chrome;112.0;Windows;10;undefined;undefined;2560 x 1440;2560 x 1297
H012;38;Mannelijk;Ambidexter;4;72;left;yes;100;leftarrow;410;false;focus;no;697948;Chrome;112.0;Windows;10;undefined;undefined;2560 x 1440;2560 x 1297
H012;38;Mannelijk;Ambidexter;4;73;left;no;50;leftarrow;419;true;focus;no;699141;Chrome;112.0;Windows;10;undefined;undefined;2560 x 1440;2560 x 1297
H012;38;Mannelijk;Ambidexter;4;74;left;no;50;leftarrow;466;true;focus;no;700381;Chrome;112.0;Windows;10;undefined;undefined;2560 x 1440;2560 x 1297
H012;38;Mannelijk;Ambidexter;4;75;right;no;50;rightarrow;764;true;focus;no;701910;Chrome;112.0;Windows;10;undefined;undefined;2560 x 1440;2560 x 1297
H012;38;Mannelijk;Ambidexter;4;76;right;yes;50;undefined;null;true;focus;no;703945;Chrome;112.0;Windows;10;undefined;undefined;2560 x 1440;2560 x 1297
H012;38;Mannelijk;Ambidexter;4;77;right;no;100;rightarrow;360;true;focus;no;705085;Chrome;112.0;Windows;10;undefined;undefined;2560 x 1440;2560 x 1297
H012;38;Mannelijk;Ambidexter;4;78;left;yes;100;undefined;null;true;focus;no;707106;Chrome;112.0;Windows;10;undefined;undefined;2560 x 1440;2560 x 1297
H012;38;Mannelijk;Ambidexter;4;79;left;no;150;leftarrow;367;true;focus;no;708238;Chrome;112.0;Windows;10;undefined;undefined;2560 x 1440;2560 x 1297
H012;38;Mannelijk;Ambidexter;4;80;right;no;150;rightarrow;464;true;focus;no;709485;Chrome;112.0;Windows;10;undefined;undefined;2560 x 1440;2560 x 1297
H012;38;Mannelijk;Ambidexter;4;81;right;no;150;rightarrow;470;true;focus;no;710733;Chrome;112.0;Windows;10;undefined;undefined;2560 x 1440;2560 x 1297
H012;38;Mannelijk;Ambidexter;4;82;left;yes;150;leftarrow;399;false;focus;no;711910;Chrome;112.0;Windows;10;undefined;undefined;2560 x 1440;2560 x 1297
H012;38;Mannelijk;Ambidexter;4;83;left;no;100;rightarrow;25;false;focus;no;712718;Chrome;112.0;Windows;10;undefined;undefined;2560 x 1440;2560 x 1297
H012;38;Mannelijk;Ambidexter;4;84;right;no;100;rightarrow;-90;false;focus;no;717302;Chrome;112.0;Windows;10;undefined;undefined;2560 x 1440;2560 x 1297
H012;38;Mannelijk;Ambidexter;4;85;left;no;100;leftarrow;488;true;focus;no;724078;Chrome;112.0;Windows;10;undefined;undefined;2560 x 1440;2560 x 1297
H012;38;Mannelijk;Ambidexter;4;86;right;no;100;rightarrow;381;true;focus;no;725229;Chrome;112.0;Windows;10;undefined;undefined;2560 x 1440;2560 x 1297
H012;38;Mannelijk;Ambidexter;4;87;left;no;100;leftarrow;327;true;focus;no;726341;Chrome;112.0;Windows;10;undefined;undefined;2560 x 1440;2560 x 1297
H012;38;Mannelijk;Ambidexter;4;88;right;yes;100;undefined;null;true;focus;no;728378;Chrome;112.0;Windows;10;undefined;undefined;2560 x 1440;2560 x 1297
H012;38;Mannelijk;Ambidexter;4;89;left;yes;150;leftarrow;347;false;focus;no;729494;Chrome;112.0;Windows;10;undefined;undefined;2560 x 1440;2560 x 1297
H012;38;Mannelijk;Ambidexter;4;90;left;no;100;leftarrow;-226;false;focus;no;730038;Chrome;112.0;Windows;10;undefined;undefined;2560 x 1440;2560 x 1297
H012;38;Mannelijk;Ambidexter;4;91;right;no;100;rightarrow;369;true;focus;no;732190;Chrome;112.0;Windows;10;undefined;undefined;2560 x 1440;2560 x 1297
H012;38;Mannelijk;Ambidexter;4;92;right;yes;100;rightarrow;390;false;focus;no;735454;Chrome;112.0;Windows;10;undefined;undefined;2560 x 1440;2560 x 1297
H012;38;Mannelijk;Ambidexter;4;93;right;no;50;rightarrow;356;true;focus;no;736582;Chrome;112.0;Windows;10;undefined;undefined;2560 x 1440;2560 x 1297
H012;38;Mannelijk;Ambidexter;4;94;left;no;50;leftarrow;430;true;focus;no;737775;Chrome;112.0;Windows;10;undefined;undefined;2560 x 1440;2560 x 1297
H012;38;Mannelijk;Ambidexter;4;95;right;no;50;rightarrow;347;true;focus;no;738895;Chrome;112.0;Windows;10;undefined;undefined;2560 x 1440;2560 x 1297
H012;38;Mannelijk;Ambidexter;4;96;left;no;50;leftarrow;387;true;focus;no;740055;Chrome;112.0;Windows;10;undefined;undefined;2560 x 1440;2560 x 1297
H012;38;Mannelijk;Ambidexter;4;97;right;no;50;rightarrow;420;true;focus;no;741254;Chrome;112.0;Windows;10;undefined;undefined;2560 x 1440;2560 x 1297
H012;38;Mannelijk;Ambidexter;4;98;right;no;50;rightarrow;750;true;focus;no;742783;Chrome;112.0;Windows;10;undefined;undefined;2560 x 1440;2560 x 1297
H012;38;Mannelijk;Ambidexter;4;99;left;no;50;leftarrow;356;true;focus;no;743919;Chrome;112.0;Windows;10;undefined;undefined;2560 x 1440;2560 x 1297
H012;38;Mannelijk;Ambidexter;4;100;right;no;50;rightarrow;481;true;focus;no;745175;Chrome;112.0;Windows;10;undefined;undefined;2560 x 1440;2560 x 1297
H012;38;Mannelijk;Ambidexter;4;101;left;no;50;rightarrow;376;false;focus;no;746319;Chrome;112.0;Windows;10;undefined;undefined;2560 x 1440;2560 x 1297
H012;38;Mannelijk;Ambidexter;4;102;left;no;50;leftarrow;385;true;focus;no;747486;Chrome;112.0;Windows;10;undefined;undefined;2560 x 1440;2560 x 1297
H012;38;Mannelijk;Ambidexter;4;103;right;yes;50;undefined;null;true;focus;no;749512;Chrome;112.0;Windows;10;undefined;undefined;2560 x 1440;2560 x 1297
H012;38;Mannelijk;Ambidexter;4;104;left;yes;100;leftarrow;372;false;focus;no;750664;Chrome;112.0;Windows;10;undefined;undefined;2560 x 1440;2560 x 1297
H012;38;Mannelijk;Ambidexter;4;105;left;no;50;leftarrow;745;true;focus;no;752192;Chrome;112.0;Windows;10;undefined;undefined;2560 x 1440;2560 x 1297
H012;38;Mannelijk;Ambidexter;4;106;right;yes;50;undefined;null;true;focus;no;754233;Chrome;112.0;Windows;10;undefined;undefined;2560 x 1440;2560 x 1297
H012;38;Mannelijk;Ambidexter;4;107;right;no;100;rightarrow;293;true;focus;no;755303;Chrome;112.0;Windows;10;undefined;undefined;2560 x 1440;2560 x 1297
H012;38;Mannelijk;Ambidexter;4;108;right;no;100;rightarrow;465;true;focus;no;756542;Chrome;112.0;Windows;10;undefined;undefined;2560 x 1440;2560 x 1297
H012;38;Mannelijk;Ambidexter;4;109;right;no;100;rightarrow;377;true;focus;no;757679;Chrome;112.0;Windows;10;undefined;undefined;2560 x 1440;2560 x 1297
H012;38;Mannelijk;Ambidexter;4;110;left;no;100;leftarrow;390;true;focus;no;758848;Chrome;112.0;Windows;10;undefined;undefined;2560 x 1440;2560 x 1297
H012;38;Mannelijk;Ambidexter;4;111;left;no;100;leftarrow;425;true;focus;no;760039;Chrome;112.0;Windows;10;undefined;undefined;2560 x 1440;2560 x 1297
H012;38;Mannelijk;Ambidexter;4;112;left;yes;100;undefined;null;true;focus;no;762084;Chrome;112.0;Windows;10;undefined;undefined;2560 x 1440;2560 x 1297
H012;38;Mannelijk;Ambidexter;4;113;right;no;150;rightarrow;356;true;focus;no;763223;Chrome;112.0;Windows;10;undefined;undefined;2560 x 1440;2560 x 1297
H012;38;Mannelijk;Ambidexter;4;114;right;no;150;rightarrow;389;true;focus;no;764392;Chrome;112.0;Windows;10;undefined;undefined;2560 x 1440;2560 x 1297
H012;38;Mannelijk;Ambidexter;4;115;right;no;150;rightarrow;872;true;focus;no;766048;Chrome;112.0;Windows;10;undefined;undefined;2560 x 1440;2560 x 1297
H012;38;Mannelijk;Ambidexter;4;116;left;no;150;leftarrow;448;true;focus;no;767264;Chrome;112.0;Windows;10;undefined;undefined;2560 x 1440;2560 x 1297
H012;38;Mannelijk;Ambidexter;4;117;left;yes;150;rightarrow;87;false;focus;no;768119;Chrome;112.0;Windows;10;undefined;undefined;2560 x 1440;2560 x 1297
H012;38;Mannelijk;Ambidexter;4;118;left;no;100;rightarrow;160;false;focus;no;769064;Chrome;112.0;Windows;10;undefined;undefined;2560 x 1440;2560 x 1297
H012;38;Mannelijk;Ambidexter;4;119;left;no;100;rightarrow;-8;false;focus;no;769831;Chrome;112.0;Windows;10;undefined;undefined;2560 x 1440;2560 x 1297
H012;38;Mannelijk;Ambidexter;4;120;right;yes;100;leftarrow;33;false;focus;no;770648;Chrome;112.0;Windows;10;undefined;undefined;2560 x 1440;2560 x 1297
H012;38;Mannelijk;Ambidexter;4;121;left;no;50;leftarrow;168;true;focus;no;771591;Chrome;112.0;Windows;10;undefined;undefined;2560 x 1440;2560 x 1297
H012;38;Mannelijk;Ambidexter;4;122;right;no;50;leftarrow;10;false;focus;no;772384;Chrome;112.0;Windows;10;undefined;undefined;2560 x 1440;2560 x 1297
H012;38;Mannelijk;Ambidexter;4;123;right;no;50;leftarrow;21;false;focus;no;773175;Chrome;112.0;Windows;10;undefined;undefined;2560 x 1440;2560 x 1297
H012;38;Mannelijk;Ambidexter;4;124;left;no;50;rightarrow;-20;false;focus;no;773929;Chrome;112.0;Windows;10;undefined;undefined;2560 x 1440;2560 x 1297
H012;38;Mannelijk;Ambidexter;4;125;left;yes;50;leftarrow;-22;false;focus;no;774687;Chrome;112.0;Windows;10;undefined;undefined;2560 x 1440;2560 x 1297
H012;38;Mannelijk;Ambidexter;4;126;right;no;50;rightarrow;59;true;focus;no;775511;Chrome;112.0;Windows;10;undefined;undefined;2560 x 1440;2560 x 1297
H012;38;Mannelijk;Ambidexter;4;127;left;no;50;leftarrow;12;true;focus;no;776304;Chrome;112.0;Windows;10;undefined;undefined;2560 x 1440;2560 x 1297
H012;38;Mannelijk;Ambidexter;4;128;right;yes;50;rightarrow;26;false;focus;no;777088;Chrome;112.0;Windows;10;undefined;undefined;2560 x 1440;2560 x 1297
H012;38;Mannelijk;Ambidexter;5;1;left;no;50;leftarrow;461;true;focus;no;800394;Chrome;112.0;Windows;10;undefined;undefined;2560 x 1440;2560 x 1297
H012;38;Mannelijk;Ambidexter;5;2;left;no;50;rightarrow;163;false;focus;no;801337;Chrome;112.0;Windows;10;undefined;undefined;2560 x 1440;2560 x 1297
H012;38;Mannelijk;Ambidexter;5;3;left;no;50;rightarrow;39;false;focus;no;802145;Chrome;112.0;Windows;10;undefined;undefined;2560 x 1440;2560 x 1297
H012;38;Mannelijk;Ambidexter;5;4;right;yes;50;rightarrow;-5;false;focus;no;802921;Chrome;112.0;Windows;10;undefined;undefined;2560 x 1440;2560 x 1297
H012;38;Mannelijk;Ambidexter;5;5;right;no;50;rightarrow;403;true;focus;no;804097;Chrome;112.0;Windows;10;undefined;undefined;2560 x 1440;2560 x 1297
H012;38;Mannelijk;Ambidexter;5;6;right;no;50;rightarrow;211;true;focus;no;805090;Chrome;112.0;Windows;10;undefined;undefined;2560 x 1440;2560 x 1297
H012;38;Mannelijk;Ambidexter;5;7;right;no;50;rightarrow;292;true;focus;no;806162;Chrome;112.0;Windows;10;undefined;undefined;2560 x 1440;2560 x 1297
H012;38;Mannelijk;Ambidexter;5;8;left;yes;50;leftarrow;593;false;focus;no;807521;Chrome;112.0;Windows;10;undefined;undefined;2560 x 1440;2560 x 1297
H012;38;Mannelijk;Ambidexter;5;9;right;yes;50;rightarrow;324;false;focus;no;808616;Chrome;112.0;Windows;10;undefined;undefined;2560 x 1440;2560 x 1297
H012;38;Mannelijk;Ambidexter;5;10;left;no;50;leftarrow;281;true;focus;no;809665;Chrome;112.0;Windows;10;undefined;undefined;2560 x 1440;2560 x 1297
H012;38;Mannelijk;Ambidexter;5;11;left;yes;50;leftarrow;373;false;focus;no;810817;Chrome;112.0;Windows;10;undefined;undefined;2560 x 1440;2560 x 1297
H012;38;Mannelijk;Ambidexter;5;12;left;no;50;leftarrow;662;true;focus;no;812257;Chrome;112.0;Windows;10;undefined;undefined;2560 x 1440;2560 x 1297
H012;38;Mannelijk;Ambidexter;5;13;left;no;50;leftarrow;388;true;focus;no;813417;Chrome;112.0;Windows;10;undefined;undefined;2560 x 1440;2560 x 1297
H012;38;Mannelijk;Ambidexter;5;14;right;no;50;leftarrow;-236;false;focus;no;813962;Chrome;112.0;Windows;10;undefined;undefined;2560 x 1440;2560 x 1297
H012;38;Mannelijk;Ambidexter;5;15;right;no;50;leftarrow;38;false;focus;no;815552;Chrome;112.0;Windows;10;undefined;undefined;2560 x 1440;2560 x 1297
H012;38;Mannelijk;Ambidexter;5;16;right;no;50;leftarrow;-152;false;focus;no;816177;Chrome;112.0;Windows;10;undefined;undefined;2560 x 1440;2560 x 1297
H012;38;Mannelijk;Ambidexter;5;17;right;yes;50;leftarrow;-157;false;focus;no;816785;Chrome;112.0;Windows;10;undefined;undefined;2560 x 1440;2560 x 1297
H012;38;Mannelijk;Ambidexter;5;18;left;no;50;leftarrow;-34;false;focus;no;817529;Chrome;112.0;Windows;10;undefined;undefined;2560 x 1440;2560 x 1297
H012;38;Mannelijk;Ambidexter;5;19;right;no;50;leftarrow;-232;false;focus;no;818073;Chrome;112.0;Windows;10;undefined;undefined;2560 x 1440;2560 x 1297
H012;38;Mannelijk;Ambidexter;5;20;left;no;50;rightarrow;-198;false;focus;no;818649;Chrome;112.0;Windows;10;undefined;undefined;2560 x 1440;2560 x 1297
H012;38;Mannelijk;Ambidexter;5;21;right;no;50;rightarrow;-232;false;focus;no;819193;Chrome;112.0;Windows;10;undefined;undefined;2560 x 1440;2560 x 1297
H012;38;Mannelijk;Ambidexter;5;22;left;no;50;rightarrow;18;false;focus;no;819985;Chrome;112.0;Windows;10;undefined;undefined;2560 x 1440;2560 x 1297
H012;38;Mannelijk;Ambidexter;5;23;left;yes;50;rightarrow;14;false;focus;no;820769;Chrome;112.0;Windows;10;undefined;undefined;2560 x 1440;2560 x 1297
H012;38;Mannelijk;Ambidexter;5;24;right;no;50;leftarrow;-60;false;focus;no;821489;Chrome;112.0;Windows;10;undefined;undefined;2560 x 1440;2560 x 1297
H012;38;Mannelijk;Ambidexter;5;25;left;no;50;rightarrow;7;false;focus;no;822266;Chrome;112.0;Windows;10;undefined;undefined;2560 x 1440;2560 x 1297
H012;38;Mannelijk;Ambidexter;5;26;right;yes;50;rightarrow;-45;false;focus;no;822994;Chrome;112.0;Windows;10;undefined;undefined;2560 x 1440;2560 x 1297
H012;38;Mannelijk;Ambidexter;5;27;right;no;50;rightarrow;53;true;focus;no;823826;Chrome;112.0;Windows;10;undefined;undefined;2560 x 1440;2560 x 1297
H012;38;Mannelijk;Ambidexter;5;28;left;no;50;rightarrow;29;false;focus;no;824625;Chrome;112.0;Windows;10;undefined;undefined;2560 x 1440;2560 x 1297
H012;38;Mannelijk;Ambidexter;5;29;left;no;50;rightarrow;-10;false;focus;no;825394;Chrome;112.0;Windows;10;undefined;undefined;2560 x 1440;2560 x 1297
H012;38;Mannelijk;Ambidexter;5;30;right;no;50;rightarrow;62;true;focus;no;826226;Chrome;112.0;Windows;10;undefined;undefined;2560 x 1440;2560 x 1297
H012;38;Mannelijk;Ambidexter;5;31;right;no;50;rightarrow;-163;false;focus;no;826842;Chrome;112.0;Windows;10;undefined;undefined;2560 x 1440;2560 x 1297
H012;38;Mannelijk;Ambidexter;5;32;left;yes;50;leftarrow;-193;false;focus;no;827418;Chrome;112.0;Windows;10;undefined;undefined;2560 x 1440;2560 x 1297
H012;38;Mannelijk;Ambidexter;5;33;left;yes;50;rightarrow;14;false;focus;no;828202;Chrome;112.0;Windows;10;undefined;undefined;2560 x 1440;2560 x 1297
H012;38;Mannelijk;Ambidexter;5;34;right;no;50;rightarrow;-101;false;focus;no;828882;Chrome;112.0;Windows;10;undefined;undefined;2560 x 1440;2560 x 1297
H012;38;Mannelijk;Ambidexter;5;35;left;no;50;rightarrow;-122;false;focus;no;829530;Chrome;112.0;Windows;10;undefined;undefined;2560 x 1440;2560 x 1297
H012;38;Mannelijk;Ambidexter;5;36;right;yes;50;rightarrow;-108;false;focus;no;830202;Chrome;112.0;Windows;10;undefined;undefined;2560 x 1440;2560 x 1297
H012;38;Mannelijk;Ambidexter;5;37;right;no;50;rightarrow;-121;false;focus;no;830858;Chrome;112.0;Windows;10;undefined;undefined;2560 x 1440;2560 x 1297
H012;38;Mannelijk;Ambidexter;5;38;left;no;50;rightarrow;-106;false;focus;no;831530;Chrome;112.0;Windows;10;undefined;undefined;2560 x 1440;2560 x 1297
H012;38;Mannelijk;Ambidexter;5;39;left;no;50;rightarrow;-177;false;focus;no;832114;Chrome;112.0;Windows;10;undefined;undefined;2560 x 1440;2560 x 1297
H012;38;Mannelijk;Ambidexter;5;40;right;no;50;rightarrow;-200;false;focus;no;832683;Chrome;112.0;Windows;10;undefined;undefined;2560 x 1440;2560 x 1297
H012;38;Mannelijk;Ambidexter;5;41;left;no;50;rightarrow;104;false;focus;no;833810;Chrome;112.0;Windows;10;undefined;undefined;2560 x 1440;2560 x 1297
H012;38;Mannelijk;Ambidexter;5;42;right;no;50;rightarrow;-213;false;focus;no;834378;Chrome;112.0;Windows;10;undefined;undefined;2560 x 1440;2560 x 1297
H012;38;Mannelijk;Ambidexter;5;43;left;yes;50;rightarrow;-179;false;focus;no;834962;Chrome;112.0;Windows;10;undefined;undefined;2560 x 1440;2560 x 1297
H012;38;Mannelijk;Ambidexter;5;44;left;no;50;rightarrow;-96;false;focus;no;835634;Chrome;112.0;Windows;10;undefined;undefined;2560 x 1440;2560 x 1297
H012;38;Mannelijk;Ambidexter;5;45;left;no;50;rightarrow;-159;false;focus;no;836258;Chrome;112.0;Windows;10;undefined;undefined;2560 x 1440;2560 x 1297
H012;38;Mannelijk;Ambidexter;5;46;right;no;50;rightarrow;-97;false;focus;no;836946;Chrome;112.0;Windows;10;undefined;undefined;2560 x 1440;2560 x 1297
H012;38;Mannelijk;Ambidexter;5;47;right;no;50;rightarrow;-117;false;focus;no;837611;Chrome;112.0;Windows;10;undefined;undefined;2560 x 1440;2560 x 1297
H012;38;Mannelijk;Ambidexter;5;48;right;yes;50;leftarrow;-198;false;focus;no;838185;Chrome;112.0;Windows;10;undefined;undefined;2560 x 1440;2560 x 1297
H012;38;Mannelijk;Ambidexter;5;49;right;no;50;rightarrow;-116;false;focus;no;838842;Chrome;112.0;Windows;10;undefined;undefined;2560 x 1440;2560 x 1297
H012;38;Mannelijk;Ambidexter;5;50;right;no;50;rightarrow;-163;false;focus;no;839450;Chrome;112.0;Windows;10;undefined;undefined;2560 x 1440;2560 x 1297
H012;38;Mannelijk;Ambidexter;5;51;left;yes;50;rightarrow;-249;false;focus;no;839971;Chrome;112.0;Windows;10;undefined;undefined;2560 x 1440;2560 x 1297
H012;38;Mannelijk;Ambidexter;5;52;right;no;50;leftarrow;null;false;focus;no;840498;Chrome;112.0;Windows;10;undefined;undefined;2560 x 1440;2560 x 1297
H012;38;Mannelijk;Ambidexter;5;53;left;no;50;leftarrow;128;true;focus;no;841403;Chrome;112.0;Windows;10;undefined;undefined;2560 x 1440;2560 x 1297
H012;38;Mannelijk;Ambidexter;5;54;left;no;50;rightarrow;-15;false;focus;no;842161;Chrome;112.0;Windows;10;undefined;undefined;2560 x 1440;2560 x 1297
H012;38;Mannelijk;Ambidexter;5;55;right;yes;50;rightarrow;-200;false;focus;no;842730;Chrome;112.0;Windows;10;undefined;undefined;2560 x 1440;2560 x 1297
H012;38;Mannelijk;Ambidexter;5;56;left;no;50;rightarrow;-186;false;focus;no;843330;Chrome;112.0;Windows;10;undefined;undefined;2560 x 1440;2560 x 1297
H012;38;Mannelijk;Ambidexter;5;57;left;no;50;rightarrow;-89;false;focus;no;844018;Chrome;112.0;Windows;10;undefined;undefined;2560 x 1440;2560 x 1297
H012;38;Mannelijk;Ambidexter;5;58;left;no;50;rightarrow;-147;false;focus;no;844634;Chrome;112.0;Windows;10;undefined;undefined;2560 x 1440;2560 x 1297
H012;38;Mannelijk;Ambidexter;5;59;left;no;50;rightarrow;-73;false;focus;no;845331;Chrome;112.0;Windows;10;undefined;undefined;2560 x 1440;2560 x 1297
H012;38;Mannelijk;Ambidexter;5;60;right;no;50;rightarrow;-42;false;focus;no;846058;Chrome;112.0;Windows;10;undefined;undefined;2560 x 1440;2560 x 1297
H012;38;Mannelijk;Ambidexter;5;61;right;no;50;rightarrow;8;true;focus;no;846827;Chrome;112.0;Windows;10;undefined;undefined;2560 x 1440;2560 x 1297
H012;38;Mannelijk;Ambidexter;5;62;right;yes;50;rightarrow;-130;false;focus;no;847466;Chrome;112.0;Windows;10;undefined;undefined;2560 x 1440;2560 x 1297
H012;38;Mannelijk;Ambidexter;5;63;left;yes;50;rightarrow;-99;false;focus;no;848138;Chrome;112.0;Windows;10;undefined;undefined;2560 x 1440;2560 x 1297
H012;38;Mannelijk;Ambidexter;5;64;right;no;50;rightarrow;-72;false;focus;no;848835;Chrome;112.0;Windows;10;undefined;undefined;2560 x 1440;2560 x 1297
H012;38;Mannelijk;Ambidexter;5;65;right;yes;50;leftarrow;-88;false;focus;no;849523;Chrome;112.0;Windows;10;undefined;undefined;2560 x 1440;2560 x 1297
H012;38;Mannelijk;Ambidexter;5;66;left;no;50;rightarrow;-156;false;focus;no;850138;Chrome;112.0;Windows;10;undefined;undefined;2560 x 1440;2560 x 1297
H012;38;Mannelijk;Ambidexter;5;67;right;no;50;rightarrow;-164;false;focus;no;850753;Chrome;112.0;Windows;10;undefined;undefined;2560 x 1440;2560 x 1297
H012;38;Mannelijk;Ambidexter;5;68;right;no;50;leftarrow;-160;false;focus;no;851354;Chrome;112.0;Windows;10;undefined;undefined;2560 x 1440;2560 x 1297
H012;38;Mannelijk;Ambidexter;5;69;left;no;50;rightarrow;-38;false;focus;no;852363;Chrome;112.0;Windows;10;undefined;undefined;2560 x 1440;2560 x 1297
H012;38;Mannelijk;Ambidexter;5;70;left;yes;50;rightarrow;-153;false;focus;no;852995;Chrome;112.0;Windows;10;undefined;undefined;2560 x 1440;2560 x 1297
H012;38;Mannelijk;Ambidexter;5;71;left;no;50;rightarrow;-176;false;focus;no;853595;Chrome;112.0;Windows;10;undefined;undefined;2560 x 1440;2560 x 1297
H012;38;Mannelijk;Ambidexter;5;72;right;no;50;rightarrow;-168;false;focus;no;854211;Chrome;112.0;Windows;10;undefined;undefined;2560 x 1440;2560 x 1297
H012;38;Mannelijk;Ambidexter;5;73;right;yes;50;rightarrow;-152;false;focus;no;854835;Chrome;112.0;Windows;10;undefined;undefined;2560 x 1440;2560 x 1297
H012;38;Mannelijk;Ambidexter;5;74;right;no;50;rightarrow;-190;false;focus;no;855411;Chrome;112.0;Windows;10;undefined;undefined;2560 x 1440;2560 x 1297
H012;38;Mannelijk;Ambidexter;5;75;left;no;50;rightarrow;-134;false;focus;no;856035;Chrome;112.0;Windows;10;undefined;undefined;2560 x 1440;2560 x 1297
H012;38;Mannelijk;Ambidexter;5;76;left;yes;50;rightarrow;-181;false;focus;no;856627;Chrome;112.0;Windows;10;undefined;undefined;2560 x 1440;2560 x 1297
H012;38;Mannelijk;Ambidexter;5;77;right;no;50;rightarrow;-184;false;focus;no;857211;Chrome;112.0;Windows;10;undefined;undefined;2560 x 1440;2560 x 1297
H012;38;Mannelijk;Ambidexter;5;78;left;no;50;rightarrow;-177;false;focus;no;857811;Chrome;112.0;Windows;10;undefined;undefined;2560 x 1440;2560 x 1297
H012;38;Mannelijk;Ambidexter;5;79;left;no;50;rightarrow;-176;false;focus;no;858419;Chrome;112.0;Windows;10;undefined;undefined;2560 x 1440;2560 x 1297
H012;38;Mannelijk;Ambidexter;5;80;right;no;50;rightarrow;-176;false;focus;no;859027;Chrome;112.0;Windows;10;undefined;undefined;2560 x 1440;2560 x 1297
H012;38;Mannelijk;Ambidexter;5;81;right;no;50;rightarrow;-207;false;focus;no;859603;Chrome;112.0;Windows;10;undefined;undefined;2560 x 1440;2560 x 1297
H012;38;Mannelijk;Ambidexter;5;82;right;no;50;rightarrow;-193;false;focus;no;860179;Chrome;112.0;Windows;10;undefined;undefined;2560 x 1440;2560 x 1297
H012;38;Mannelijk;Ambidexter;5;83;right;yes;50;rightarrow;-218;false;focus;no;860731;Chrome;112.0;Windows;10;undefined;undefined;2560 x 1440;2560 x 1297
H012;38;Mannelijk;Ambidexter;5;84;left;no;50;rightarrow;-218;false;focus;no;861291;Chrome;112.0;Windows;10;undefined;undefined;2560 x 1440;2560 x 1297
H012;38;Mannelijk;Ambidexter;5;85;left;yes;50;rightarrow;-226;false;focus;no;861843;Chrome;112.0;Windows;10;undefined;undefined;2560 x 1440;2560 x 1297
H012;38;Mannelijk;Ambidexter;5;86;right;no;50;rightarrow;-221;false;focus;no;862395;Chrome;112.0;Windows;10;undefined;undefined;2560 x 1440;2560 x 1297
H012;38;Mannelijk;Ambidexter;5;87;left;no;50;rightarrow;-234;false;focus;no;862946;Chrome;112.0;Windows;10;undefined;undefined;2560 x 1440;2560 x 1297
H012;38;Mannelijk;Ambidexter;5;88;left;no;50;rightarrow;138;false;focus;no;864108;Chrome;112.0;Windows;10;undefined;undefined;2560 x 1440;2560 x 1297
H012;38;Mannelijk;Ambidexter;5;89;left;no;50;rightarrow;-23;false;focus;no;865131;Chrome;112.0;Windows;10;undefined;undefined;2560 x 1440;2560 x 1297
H012;38;Mannelijk;Ambidexter;5;90;right;no;50;rightarrow;903;true;focus;no;867083;Chrome;112.0;Windows;10;undefined;undefined;2560 x 1440;2560 x 1297
H012;38;Mannelijk;Ambidexter;5;91;right;no;50;rightarrow;796;true;focus;no;868659;Chrome;112.0;Windows;10;undefined;undefined;2560 x 1440;2560 x 1297
H012;38;Mannelijk;Ambidexter;5;92;left;yes;50;undefined;null;true;focus;no;870696;Chrome;112.0;Windows;10;undefined;undefined;2560 x 1440;2560 x 1297
H012;38;Mannelijk;Ambidexter;5;93;right;yes;100;undefined;null;true;focus;no;872731;Chrome;112.0;Windows;10;undefined;undefined;2560 x 1440;2560 x 1297
H012;38;Mannelijk;Ambidexter;5;94;right;no;150;rightarrow;415;true;focus;no;873932;Chrome;112.0;Windows;10;undefined;undefined;2560 x 1440;2560 x 1297
H012;38;Mannelijk;Ambidexter;5;95;left;no;150;leftarrow;540;true;focus;no;875252;Chrome;112.0;Windows;10;undefined;undefined;2560 x 1440;2560 x 1297
H012;38;Mannelijk;Ambidexter;5;96;left;no;150;leftarrow;891;true;focus;no;876915;Chrome;112.0;Windows;10;undefined;undefined;2560 x 1440;2560 x 1297
H012;38;Mannelijk;Ambidexter;5;97;right;no;150;rightarrow;622;true;focus;no;878323;Chrome;112.0;Windows;10;undefined;undefined;2560 x 1440;2560 x 1297
H012;38;Mannelijk;Ambidexter;5;98;left;yes;150;undefined;null;true;focus;no;880357;Chrome;112.0;Windows;10;undefined;undefined;2560 x 1440;2560 x 1297
H012;38;Mannelijk;Ambidexter;5;99;right;no;200;rightarrow;391;true;focus;no;881515;Chrome;112.0;Windows;10;undefined;undefined;2560 x 1440;2560 x 1297
H012;38;Mannelijk;Ambidexter;5;100;left;no;200;leftarrow;745;true;focus;no;883019;Chrome;112.0;Windows;10;undefined;undefined;2560 x 1440;2560 x 1297
H012;38;Mannelijk;Ambidexter;5;101;right;yes;200;undefined;null;true;focus;no;885053;Chrome;112.0;Windows;10;undefined;undefined;2560 x 1440;2560 x 1297
H012;38;Mannelijk;Ambidexter;5;102;left;no;250;leftarrow;408;true;focus;no;886228;Chrome;112.0;Windows;10;undefined;undefined;2560 x 1440;2560 x 1297
H012;38;Mannelijk;Ambidexter;5;103;left;no;250;leftarrow;620;true;focus;no;887619;Chrome;112.0;Windows;10;undefined;undefined;2560 x 1440;2560 x 1297
H012;38;Mannelijk;Ambidexter;5;104;right;no;250;rightarrow;518;true;focus;no;888915;Chrome;112.0;Windows;10;undefined;undefined;2560 x 1440;2560 x 1297
H012;38;Mannelijk;Ambidexter;5;105;left;no;250;leftarrow;390;true;focus;no;890084;Chrome;112.0;Windows;10;undefined;undefined;2560 x 1440;2560 x 1297
H012;38;Mannelijk;Ambidexter;5;106;right;no;250;rightarrow;367;true;focus;no;891228;Chrome;112.0;Windows;10;undefined;undefined;2560 x 1440;2560 x 1297
H012;38;Mannelijk;Ambidexter;5;107;left;no;250;leftarrow;512;true;focus;no;892516;Chrome;112.0;Windows;10;undefined;undefined;2560 x 1440;2560 x 1297
H012;38;Mannelijk;Ambidexter;5;108;left;yes;250;leftarrow;520;false;focus;no;893820;Chrome;112.0;Windows;10;undefined;undefined;2560 x 1440;2560 x 1297
H012;38;Mannelijk;Ambidexter;5;109;right;no;200;rightarrow;410;true;focus;no;894996;Chrome;112.0;Windows;10;undefined;undefined;2560 x 1440;2560 x 1297
H012;38;Mannelijk;Ambidexter;5;110;right;no;200;rightarrow;514;true;focus;no;896293;Chrome;112.0;Windows;10;undefined;undefined;2560 x 1440;2560 x 1297
H012;38;Mannelijk;Ambidexter;5;111;right;yes;200;rightarrow;404;false;focus;no;897476;Chrome;112.0;Windows;10;undefined;undefined;2560 x 1440;2560 x 1297
H012;38;Mannelijk;Ambidexter;5;112;left;no;150;rightarrow;145;false;focus;no;898404;Chrome;112.0;Windows;10;undefined;undefined;2560 x 1440;2560 x 1297
H012;38;Mannelijk;Ambidexter;5;113;left;no;150;rightarrow;-230;false;focus;no;899212;Chrome;112.0;Windows;10;undefined;undefined;2560 x 1440;2560 x 1297
H012;38;Mannelijk;Ambidexter;5;114;left;yes;150;rightarrow;11;false;focus;no;899997;Chrome;112.0;Windows;10;undefined;undefined;2560 x 1440;2560 x 1297
H012;38;Mannelijk;Ambidexter;5;115;right;yes;100;rightarrow;-173;false;focus;no;900605;Chrome;112.0;Windows;10;undefined;undefined;2560 x 1440;2560 x 1297
H012;38;Mannelijk;Ambidexter;5;116;left;no;50;leftarrow;-77;false;focus;no;901308;Chrome;112.0;Windows;10;undefined;undefined;2560 x 1440;2560 x 1297
H012;38;Mannelijk;Ambidexter;5;117;right;no;50;rightarrow;-247;false;focus;no;901844;Chrome;112.0;Windows;10;undefined;undefined;2560 x 1440;2560 x 1297
H012;38;Mannelijk;Ambidexter;5;118;left;no;50;rightarrow;-170;false;focus;no;902452;Chrome;112.0;Windows;10;undefined;undefined;2560 x 1440;2560 x 1297
H012;38;Mannelijk;Ambidexter;5;119;right;no;50;rightarrow;-165;false;focus;no;903061;Chrome;112.0;Windows;10;undefined;undefined;2560 x 1440;2560 x 1297
H012;38;Mannelijk;Ambidexter;5;120;right;no;50;rightarrow;-147;false;focus;no;903684;Chrome;112.0;Windows;10;undefined;undefined;2560 x 1440;2560 x 1297
H012;38;Mannelijk;Ambidexter;5;121;left;yes;50;rightarrow;-160;false;focus;no;904292;Chrome;112.0;Windows;10;undefined;undefined;2560 x 1440;2560 x 1297
H012;38;Mannelijk;Ambidexter;5;122;left;no;50;rightarrow;-129;false;focus;no;904940;Chrome;112.0;Windows;10;undefined;undefined;2560 x 1440;2560 x 1297
H012;38;Mannelijk;Ambidexter;5;123;left;no;50;rightarrow;-163;false;focus;no;905557;Chrome;112.0;Windows;10;undefined;undefined;2560 x 1440;2560 x 1297
H012;38;Mannelijk;Ambidexter;5;124;right;no;50;rightarrow;-140;false;focus;no;906189;Chrome;112.0;Windows;10;undefined;undefined;2560 x 1440;2560 x 1297
H012;38;Mannelijk;Ambidexter;5;125;right;yes;50;rightarrow;-141;false;focus;no;906829;Chrome;112.0;Windows;10;undefined;undefined;2560 x 1440;2560 x 1297
H012;38;Mannelijk;Ambidexter;5;126;right;no;50;rightarrow;-187;false;focus;no;907421;Chrome;112.0;Windows;10;undefined;undefined;2560 x 1440;2560 x 1297
H012;38;Mannelijk;Ambidexter;5;127;right;no;50;rightarrow;-156;false;focus;no;908044;Chrome;112.0;Windows;10;undefined;undefined;2560 x 1440;2560 x 1297
H012;38;Mannelijk;Ambidexter;5;128;left;no;50;rightarrow;-145;false;focus;no;908675;Chrome;112.0;Windows;10;undefined;undefined;2560 x 1440;2560 x 1297
H012;38;Mannelijk;Ambidexter;6;1;right;no;50;rightarrow;20;true;focus;no;958694;Chrome;112.0;Windows;10;undefined;undefined;2560 x 1440;2560 x 1297
H012;38;Mannelijk;Ambidexter;6;2;right;no;50;rightarrow;363;true;focus;no;959830;Chrome;112.0;Windows;10;undefined;undefined;2560 x 1440;2560 x 1297
H012;38;Mannelijk;Ambidexter;6;3;left;no;50;leftarrow;330;true;focus;no;960934;Chrome;112.0;Windows;10;undefined;undefined;2560 x 1440;2560 x 1297
H012;38;Mannelijk;Ambidexter;6;4;left;no;50;leftarrow;386;true;focus;no;962094;Chrome;112.0;Windows;10;undefined;undefined;2560 x 1440;2560 x 1297
H012;38;Mannelijk;Ambidexter;6;5;right;yes;50;undefined;null;true;focus;no;964129;Chrome;112.0;Windows;10;undefined;undefined;2560 x 1440;2560 x 1297
H012;38;Mannelijk;Ambidexter;6;6;left;yes;100;leftarrow;358;false;focus;no;965254;Chrome;112.0;Windows;10;undefined;undefined;2560 x 1440;2560 x 1297
H012;38;Mannelijk;Ambidexter;6;7;right;no;50;rightarrow;685;true;focus;no;966718;Chrome;112.0;Windows;10;undefined;undefined;2560 x 1440;2560 x 1297
H012;38;Mannelijk;Ambidexter;6;8;left;no;50;leftarrow;428;true;focus;no;967926;Chrome;112.0;Windows;10;undefined;undefined;2560 x 1440;2560 x 1297
H012;38;Mannelijk;Ambidexter;6;9;left;no;50;leftarrow;577;true;focus;no;969286;Chrome;112.0;Windows;10;undefined;undefined;2560 x 1440;2560 x 1297
H012;38;Mannelijk;Ambidexter;6;10;left;no;50;leftarrow;568;true;focus;no;970630;Chrome;112.0;Windows;10;undefined;undefined;2560 x 1440;2560 x 1297
H012;38;Mannelijk;Ambidexter;6;11;right;no;50;rightarrow;628;true;focus;no;972030;Chrome;112.0;Windows;10;undefined;undefined;2560 x 1440;2560 x 1297
H012;38;Mannelijk;Ambidexter;6;12;right;no;50;rightarrow;643;true;focus;no;973455;Chrome;112.0;Windows;10;undefined;undefined;2560 x 1440;2560 x 1297
