participantID;age;gender;handedness;block_i;trial_i;stim;signal;SSD;response;rt;correct;focus;Fullscreen;time_elapsed;browser_name;browser_version;os_name;os_version;tablet;mobile;screen_resolution;window_resolution
H033;32;Vrouwelijk;Rechts;0;1;right;yes;200;rightarrow;917;false;focus;yes;94703;Chrome;112.0;Windows;10;undefined;undefined;1366 x 768;1366 x 768
H033;32;Vrouwelijk;Rechts;0;2;right;no;150;rightarrow;267;true;focus;yes;96526;Chrome;112.0;Windows;10;undefined;undefined;1366 x 768;1366 x 768
H033;32;Vrouwelijk;Rechts;0;3;left;no;150;leftarrow;520;true;focus;yes;98588;Chrome;112.0;Windows;10;undefined;undefined;1366 x 768;1366 x 768
H033;32;Vrouwelijk;Rechts;0;4;left;no;150;leftarrow;382;true;focus;yes;100520;Chrome;112.0;Windows;10;undefined;undefined;1366 x 768;1366 x 768
H033;32;Vrouwelijk;Rechts;0;5;left;yes;150;leftarrow;381;false;focus;yes;102449;Chrome;112.0;Windows;10;undefined;undefined;1366 x 768;1366 x 768
H033;32;Vrouwelijk;Rechts;0;6;right;no;100;rightarrow;464;true;focus;yes;104465;Chrome;112.0;Windows;10;undefined;undefined;1366 x 768;1366 x 768
H033;32;Vrouwelijk;Rechts;0;7;right;no;100;rightarrow;412;true;focus;yes;106419;Chrome;112.0;Windows;10;undefined;undefined;1366 x 768;1366 x 768
H033;32;Vrouwelijk;Rechts;0;8;left;no;100;leftarrow;378;true;focus;yes;108335;Chrome;112.0;Windows;10;undefined;undefined;1366 x 768;1366 x 768
H033;32;Vrouwelijk;Rechts;1;1;left;yes;100;leftarrow;380;false;focus;yes;129717;Chrome;112.0;Windows;10;undefined;undefined;1366 x 768;1366 x 768
H033;32;Vrouwelijk;Rechts;1;2;right;yes;50;rightarrow;409;false;focus;yes;130905;Chrome;112.0;Windows;10;undefined;undefined;1366 x 768;1366 x 768
H033;32;Vrouwelijk;Rechts;1;3;left;no;50;leftarrow;433;true;focus;yes;132110;Chrome;112.0;Windows;10;undefined;undefined;1366 x 768;1366 x 768
H033;32;Vrouwelijk;Rechts;1;4;right;no;50;rightarrow;385;true;focus;yes;133256;Chrome;112.0;Windows;10;undefined;undefined;1366 x 768;1366 x 768
H033;32;Vrouwelijk;Rechts;1;5;left;no;50;leftarrow;351;true;focus;yes;134392;Chrome;112.0;Windows;10;undefined;undefined;1366 x 768;1366 x 768
H033;32;Vrouwelijk;Rechts;1;6;right;no;50;rightarrow;428;true;focus;yes;135586;Chrome;112.0;Windows;10;undefined;undefined;1366 x 768;1366 x 768
H033;32;Vrouwelijk;Rechts;1;7;left;no;50;leftarrow;418;true;focus;yes;136780;Chrome;112.0;Windows;10;undefined;undefined;1366 x 768;1366 x 768
H033;32;Vrouwelijk;Rechts;1;8;right;no;50;rightarrow;452;true;focus;yes;138011;Chrome;112.0;Windows;10;undefined;undefined;1366 x 768;1366 x 768
H033;32;Vrouwelijk;Rechts;1;9;right;no;50;rightarrow;472;true;focus;yes;139263;Chrome;112.0;Windows;10;undefined;undefined;1366 x 768;1366 x 768
H033;32;Vrouwelijk;Rechts;1;10;right;no;50;rightarrow;415;true;focus;yes;140458;Chrome;112.0;Windows;10;undefined;undefined;1366 x 768;1366 x 768
H033;32;Vrouwelijk;Rechts;1;11;left;no;50;leftarrow;455;true;focus;yes;141700;Chrome;112.0;Windows;10;undefined;undefined;1366 x 768;1366 x 768
H033;32;Vrouwelijk;Rechts;1;12;left;no;50;leftarrow;392;true;focus;yes;142872;Chrome;112.0;Windows;10;undefined;undefined;1366 x 768;1366 x 768
H033;32;Vrouwelijk;Rechts;1;13;right;yes;50;undefined;null;true;focus;yes;144923;Chrome;112.0;Windows;10;undefined;undefined;1366 x 768;1366 x 768
H033;32;Vrouwelijk;Rechts;1;14;left;yes;100;leftarrow;392;false;focus;yes;146093;Chrome;112.0;Windows;10;undefined;undefined;1366 x 768;1366 x 768
H033;32;Vrouwelijk;Rechts;1;15;left;no;50;leftarrow;530;true;focus;yes;147406;Chrome;112.0;Windows;10;undefined;undefined;1366 x 768;1366 x 768
H033;32;Vrouwelijk;Rechts;1;16;right;no;50;rightarrow;477;true;focus;yes;148666;Chrome;112.0;Windows;10;undefined;undefined;1366 x 768;1366 x 768
H033;32;Vrouwelijk;Rechts;1;17;right;yes;50;undefined;null;true;focus;yes;150717;Chrome;112.0;Windows;10;undefined;undefined;1366 x 768;1366 x 768
H033;32;Vrouwelijk;Rechts;1;18;left;yes;100;leftarrow;399;false;focus;yes;151901;Chrome;112.0;Windows;10;undefined;undefined;1366 x 768;1366 x 768
H033;32;Vrouwelijk;Rechts;1;19;right;no;50;rightarrow;558;true;focus;yes;153250;Chrome;112.0;Windows;10;undefined;undefined;1366 x 768;1366 x 768
H033;32;Vrouwelijk;Rechts;1;20;right;no;50;rightarrow;477;true;focus;yes;154555;Chrome;112.0;Windows;10;undefined;undefined;1366 x 768;1366 x 768
H033;32;Vrouwelijk;Rechts;1;21;left;no;50;leftarrow;528;true;focus;yes;155871;Chrome;112.0;Windows;10;undefined;undefined;1366 x 768;1366 x 768
H033;32;Vrouwelijk;Rechts;1;22;right;no;50;rightarrow;663;true;focus;yes;157321;Chrome;112.0;Windows;10;undefined;undefined;1366 x 768;1366 x 768
H033;32;Vrouwelijk;Rechts;1;23;left;no;50;leftarrow;465;true;focus;yes;158560;Chrome;112.0;Windows;10;undefined;undefined;1366 x 768;1366 x 768
H033;32;Vrouwelijk;Rechts;1;24;left;no;50;leftarrow;487;true;focus;yes;159833;Chrome;112.0;Windows;10;undefined;undefined;1366 x 768;1366 x 768
H033;32;Vrouwelijk;Rechts;1;25;right;no;50;rightarrow;512;true;focus;yes;161124;Chrome;112.0;Windows;10;undefined;undefined;1366 x 768;1366 x 768
H033;32;Vrouwelijk;Rechts;1;26;right;no;50;rightarrow;533;true;focus;yes;162440;Chrome;112.0;Windows;10;undefined;undefined;1366 x 768;1366 x 768
H033;32;Vrouwelijk;Rechts;1;27;left;no;50;leftarrow;512;true;focus;yes;163732;Chrome;112.0;Windows;10;undefined;undefined;1366 x 768;1366 x 768
H033;32;Vrouwelijk;Rechts;1;28;left;yes;50;undefined;null;true;focus;yes;165811;Chrome;112.0;Windows;10;undefined;undefined;1366 x 768;1366 x 768
H033;32;Vrouwelijk;Rechts;1;29;right;yes;100;rightarrow;451;false;focus;yes;167077;Chrome;112.0;Windows;10;undefined;undefined;1366 x 768;1366 x 768
H033;32;Vrouwelijk;Rechts;1;30;left;no;50;leftarrow;513;true;focus;yes;168374;Chrome;112.0;Windows;10;undefined;undefined;1366 x 768;1366 x 768
H033;32;Vrouwelijk;Rechts;1;31;right;no;50;rightarrow;648;true;focus;yes;169807;Chrome;112.0;Windows;10;undefined;undefined;1366 x 768;1366 x 768
H033;32;Vrouwelijk;Rechts;1;32;left;no;50;leftarrow;436;true;focus;yes;171032;Chrome;112.0;Windows;10;undefined;undefined;1366 x 768;1366 x 768
H033;32;Vrouwelijk;Rechts;1;33;right;no;50;rightarrow;444;true;focus;yes;172259;Chrome;112.0;Windows;10;undefined;undefined;1366 x 768;1366 x 768
H033;32;Vrouwelijk;Rechts;1;34;right;yes;50;undefined;null;true;focus;yes;174311;Chrome;112.0;Windows;10;undefined;undefined;1366 x 768;1366 x 768
H033;32;Vrouwelijk;Rechts;1;35;right;no;100;rightarrow;883;true;focus;yes;175978;Chrome;112.0;Windows;10;undefined;undefined;1366 x 768;1366 x 768
H033;32;Vrouwelijk;Rechts;1;36;left;no;100;leftarrow;458;true;focus;yes;177224;Chrome;112.0;Windows;10;undefined;undefined;1366 x 768;1366 x 768
H033;32;Vrouwelijk;Rechts;1;37;left;no;100;leftarrow;449;true;focus;yes;178467;Chrome;112.0;Windows;10;undefined;undefined;1366 x 768;1366 x 768
H033;32;Vrouwelijk;Rechts;1;38;left;yes;100;undefined;null;true;focus;yes;180516;Chrome;112.0;Windows;10;undefined;undefined;1366 x 768;1366 x 768
H033;32;Vrouwelijk;Rechts;1;39;right;no;150;rightarrow;459;true;focus;yes;181760;Chrome;112.0;Windows;10;undefined;undefined;1366 x 768;1366 x 768
H033;32;Vrouwelijk;Rechts;1;40;left;no;150;leftarrow;486;true;focus;yes;183022;Chrome;112.0;Windows;10;undefined;undefined;1366 x 768;1366 x 768
H033;32;Vrouwelijk;Rechts;1;41;right;no;150;rightarrow;529;true;focus;yes;184329;Chrome;112.0;Windows;10;undefined;undefined;1366 x 768;1366 x 768
H033;32;Vrouwelijk;Rechts;1;42;left;no;150;leftarrow;434;true;focus;yes;185535;Chrome;112.0;Windows;10;undefined;undefined;1366 x 768;1366 x 768
H033;32;Vrouwelijk;Rechts;1;43;left;yes;150;leftarrow;435;false;focus;yes;186752;Chrome;112.0;Windows;10;undefined;undefined;1366 x 768;1366 x 768
H033;32;Vrouwelijk;Rechts;1;44;right;no;100;rightarrow;600;true;focus;yes;188136;Chrome;112.0;Windows;10;undefined;undefined;1366 x 768;1366 x 768
H033;32;Vrouwelijk;Rechts;1;45;left;no;100;leftarrow;663;true;focus;yes;189591;Chrome;112.0;Windows;10;undefined;undefined;1366 x 768;1366 x 768
H033;32;Vrouwelijk;Rechts;1;46;right;no;100;rightarrow;580;true;focus;yes;190960;Chrome;112.0;Windows;10;undefined;undefined;1366 x 768;1366 x 768
H033;32;Vrouwelijk;Rechts;1;47;right;yes;100;undefined;null;true;focus;yes;193001;Chrome;112.0;Windows;10;undefined;undefined;1366 x 768;1366 x 768
H033;32;Vrouwelijk;Rechts;1;48;left;no;150;leftarrow;437;true;focus;yes;194254;Chrome;112.0;Windows;10;undefined;undefined;1366 x 768;1366 x 768
H033;32;Vrouwelijk;Rechts;1;49;left;yes;150;leftarrow;440;false;focus;yes;195476;Chrome;112.0;Windows;10;undefined;undefined;1366 x 768;1366 x 768
H033;32;Vrouwelijk;Rechts;1;50;right;no;100;rightarrow;641;true;focus;yes;196895;Chrome;112.0;Windows;10;undefined;undefined;1366 x 768;1366 x 768
H033;32;Vrouwelijk;Rechts;1;51;left;no;100;leftarrow;472;true;focus;yes;198148;Chrome;112.0;Windows;10;undefined;undefined;1366 x 768;1366 x 768
H033;32;Vrouwelijk;Rechts;1;52;right;no;100;rightarrow;609;true;focus;yes;199535;Chrome;112.0;Windows;10;undefined;undefined;1366 x 768;1366 x 768
H033;32;Vrouwelijk;Rechts;1;53;left;no;100;leftarrow;497;true;focus;yes;200814;Chrome;112.0;Windows;10;undefined;undefined;1366 x 768;1366 x 768
H033;32;Vrouwelijk;Rechts;1;54;right;no;100;rightarrow;615;true;focus;yes;202213;Chrome;112.0;Windows;10;undefined;undefined;1366 x 768;1366 x 768
H033;32;Vrouwelijk;Rechts;1;55;left;no;100;leftarrow;502;true;focus;yes;203489;Chrome;112.0;Windows;10;undefined;undefined;1366 x 768;1366 x 768
H033;32;Vrouwelijk;Rechts;1;56;right;yes;100;undefined;null;true;focus;yes;205563;Chrome;112.0;Windows;10;undefined;undefined;1366 x 768;1366 x 768
H033;32;Vrouwelijk;Rechts;1;57;left;yes;150;leftarrow;480;false;focus;yes;206860;Chrome;112.0;Windows;10;undefined;undefined;1366 x 768;1366 x 768
H033;32;Vrouwelijk;Rechts;1;58;left;no;100;leftarrow;597;true;focus;yes;208242;Chrome;112.0;Windows;10;undefined;undefined;1366 x 768;1366 x 768
H033;32;Vrouwelijk;Rechts;1;59;right;yes;100;undefined;null;true;focus;yes;210282;Chrome;112.0;Windows;10;undefined;undefined;1366 x 768;1366 x 768
H033;32;Vrouwelijk;Rechts;1;60;left;no;150;leftarrow;705;true;focus;yes;211771;Chrome;112.0;Windows;10;undefined;undefined;1366 x 768;1366 x 768
H033;32;Vrouwelijk;Rechts;1;61;right;no;150;rightarrow;485;true;focus;yes;213037;Chrome;112.0;Windows;10;undefined;undefined;1366 x 768;1366 x 768
H033;32;Vrouwelijk;Rechts;1;62;left;no;150;leftarrow;510;true;focus;yes;214325;Chrome;112.0;Windows;10;undefined;undefined;1366 x 768;1366 x 768
H033;32;Vrouwelijk;Rechts;1;63;right;no;150;rightarrow;504;true;focus;yes;215620;Chrome;112.0;Windows;10;undefined;undefined;1366 x 768;1366 x 768
H033;32;Vrouwelijk;Rechts;1;64;right;no;150;rightarrow;527;true;focus;yes;216921;Chrome;112.0;Windows;10;undefined;undefined;1366 x 768;1366 x 768
H033;32;Vrouwelijk;Rechts;1;65;left;no;150;leftarrow;454;true;focus;yes;218161;Chrome;112.0;Windows;10;undefined;undefined;1366 x 768;1366 x 768
H033;32;Vrouwelijk;Rechts;1;66;left;yes;150;undefined;null;true;focus;yes;220204;Chrome;112.0;Windows;10;undefined;undefined;1366 x 768;1366 x 768
H033;32;Vrouwelijk;Rechts;1;67;right;no;200;rightarrow;525;true;focus;yes;221513;Chrome;112.0;Windows;10;undefined;undefined;1366 x 768;1366 x 768
H033;32;Vrouwelijk;Rechts;1;68;left;no;200;leftarrow;466;true;focus;yes;222768;Chrome;112.0;Windows;10;undefined;undefined;1366 x 768;1366 x 768
H033;32;Vrouwelijk;Rechts;1;69;right;no;200;rightarrow;581;true;focus;yes;224132;Chrome;112.0;Windows;10;undefined;undefined;1366 x 768;1366 x 768
H033;32;Vrouwelijk;Rechts;1;70;left;no;200;leftarrow;489;true;focus;yes;225386;Chrome;112.0;Windows;10;undefined;undefined;1366 x 768;1366 x 768
H033;32;Vrouwelijk;Rechts;1;71;right;no;200;rightarrow;479;true;focus;yes;226639;Chrome;112.0;Windows;10;undefined;undefined;1366 x 768;1366 x 768
H033;32;Vrouwelijk;Rechts;1;72;right;yes;200;rightarrow;504;false;focus;yes;227929;Chrome;112.0;Windows;10;undefined;undefined;1366 x 768;1366 x 768
H033;32;Vrouwelijk;Rechts;1;73;left;no;150;leftarrow;547;true;focus;yes;229256;Chrome;112.0;Windows;10;undefined;undefined;1366 x 768;1366 x 768
H033;32;Vrouwelijk;Rechts;1;74;right;no;150;rightarrow;704;true;focus;yes;230739;Chrome;112.0;Windows;10;undefined;undefined;1366 x 768;1366 x 768
H033;32;Vrouwelijk;Rechts;1;75;left;no;150;leftarrow;559;true;focus;yes;232079;Chrome;112.0;Windows;10;undefined;undefined;1366 x 768;1366 x 768
H033;32;Vrouwelijk;Rechts;1;76;right;no;150;rightarrow;608;true;focus;yes;233472;Chrome;112.0;Windows;10;undefined;undefined;1366 x 768;1366 x 768
H033;32;Vrouwelijk;Rechts;1;77;left;no;150;leftarrow;541;true;focus;yes;234795;Chrome;112.0;Windows;10;undefined;undefined;1366 x 768;1366 x 768
H033;32;Vrouwelijk;Rechts;1;78;right;no;150;rightarrow;559;true;focus;yes;236142;Chrome;112.0;Windows;10;undefined;undefined;1366 x 768;1366 x 768
H033;32;Vrouwelijk;Rechts;1;79;right;yes;150;undefined;null;true;focus;yes;238188;Chrome;112.0;Windows;10;undefined;undefined;1366 x 768;1366 x 768
H033;32;Vrouwelijk;Rechts;1;80;left;yes;200;undefined;null;true;focus;yes;240266;Chrome;112.0;Windows;10;undefined;undefined;1366 x 768;1366 x 768
H033;32;Vrouwelijk;Rechts;1;81;right;no;250;rightarrow;683;true;focus;yes;241751;Chrome;112.0;Windows;10;undefined;undefined;1366 x 768;1366 x 768
H033;32;Vrouwelijk;Rechts;1;82;left;no;250;leftarrow;483;true;focus;yes;243019;Chrome;112.0;Windows;10;undefined;undefined;1366 x 768;1366 x 768
H033;32;Vrouwelijk;Rechts;1;83;left;no;250;leftarrow;550;true;focus;yes;244351;Chrome;112.0;Windows;10;undefined;undefined;1366 x 768;1366 x 768
H033;32;Vrouwelijk;Rechts;1;84;left;yes;250;leftarrow;551;false;focus;yes;245679;Chrome;112.0;Windows;10;undefined;undefined;1366 x 768;1366 x 768
H033;32;Vrouwelijk;Rechts;1;85;right;yes;200;undefined;null;true;focus;yes;247735;Chrome;112.0;Windows;10;undefined;undefined;1366 x 768;1366 x 768
H033;32;Vrouwelijk;Rechts;1;86;right;no;250;rightarrow;562;true;focus;yes;249097;Chrome;112.0;Windows;10;undefined;undefined;1366 x 768;1366 x 768
H033;32;Vrouwelijk;Rechts;1;87;right;no;250;rightarrow;676;true;focus;yes;250557;Chrome;112.0;Windows;10;undefined;undefined;1366 x 768;1366 x 768
H033;32;Vrouwelijk;Rechts;1;88;left;no;250;leftarrow;576;true;focus;yes;251907;Chrome;112.0;Windows;10;undefined;undefined;1366 x 768;1366 x 768
H033;32;Vrouwelijk;Rechts;1;89;right;yes;250;undefined;null;true;focus;yes;253969;Chrome;112.0;Windows;10;undefined;undefined;1366 x 768;1366 x 768
H033;32;Vrouwelijk;Rechts;1;90;left;no;300;leftarrow;717;true;focus;yes;255486;Chrome;112.0;Windows;10;undefined;undefined;1366 x 768;1366 x 768
H033;32;Vrouwelijk;Rechts;1;91;right;no;300;rightarrow;767;true;focus;yes;257035;Chrome;112.0;Windows;10;undefined;undefined;1366 x 768;1366 x 768
H033;32;Vrouwelijk;Rechts;1;92;left;yes;300;leftarrow;531;false;focus;yes;258348;Chrome;112.0;Windows;10;undefined;undefined;1366 x 768;1366 x 768
H033;32;Vrouwelijk;Rechts;1;93;left;no;250;leftarrow;532;true;focus;yes;259660;Chrome;112.0;Windows;10;undefined;undefined;1366 x 768;1366 x 768
H033;32;Vrouwelijk;Rechts;1;94;right;no;250;rightarrow;530;true;focus;yes;260971;Chrome;112.0;Windows;10;undefined;undefined;1366 x 768;1366 x 768
H033;32;Vrouwelijk;Rechts;1;95;left;no;250;leftarrow;695;true;focus;yes;262451;Chrome;112.0;Windows;10;undefined;undefined;1366 x 768;1366 x 768
H033;32;Vrouwelijk;Rechts;1;96;right;no;250;rightarrow;641;true;focus;yes;263880;Chrome;112.0;Windows;10;undefined;undefined;1366 x 768;1366 x 768
H033;32;Vrouwelijk;Rechts;1;97;left;no;250;leftarrow;565;true;focus;yes;265225;Chrome;112.0;Windows;10;undefined;undefined;1366 x 768;1366 x 768
H033;32;Vrouwelijk;Rechts;1;98;right;no;250;rightarrow;774;true;focus;yes;266778;Chrome;112.0;Windows;10;undefined;undefined;1366 x 768;1366 x 768
H033;32;Vrouwelijk;Rechts;1;99;left;no;250;leftarrow;485;true;focus;yes;268052;Chrome;112.0;Windows;10;undefined;undefined;1366 x 768;1366 x 768
H033;32;Vrouwelijk;Rechts;1;100;left;yes;250;leftarrow;474;false;focus;yes;269306;Chrome;112.0;Windows;10;undefined;undefined;1366 x 768;1366 x 768
H033;32;Vrouwelijk;Rechts;1;101;right;no;200;rightarrow;690;true;focus;yes;270772;Chrome;112.0;Windows;10;undefined;undefined;1366 x 768;1366 x 768
H033;32;Vrouwelijk;Rechts;1;102;right;yes;200;undefined;null;true;focus;yes;272813;Chrome;112.0;Windows;10;undefined;undefined;1366 x 768;1366 x 768
H033;32;Vrouwelijk;Rechts;1;103;left;no;250;leftarrow;562;true;focus;yes;274175;Chrome;112.0;Windows;10;undefined;undefined;1366 x 768;1366 x 768
H033;32;Vrouwelijk;Rechts;1;104;right;no;250;rightarrow;661;true;focus;yes;275618;Chrome;112.0;Windows;10;undefined;undefined;1366 x 768;1366 x 768
H033;32;Vrouwelijk;Rechts;1;105;left;no;250;leftarrow;701;true;focus;yes;277096;Chrome;112.0;Windows;10;undefined;undefined;1366 x 768;1366 x 768
H033;32;Vrouwelijk;Rechts;1;106;right;no;250;rightarrow;804;true;focus;yes;278682;Chrome;112.0;Windows;10;undefined;undefined;1366 x 768;1366 x 768
H033;32;Vrouwelijk;Rechts;1;107;right;no;250;rightarrow;830;true;focus;yes;280288;Chrome;112.0;Windows;10;undefined;undefined;1366 x 768;1366 x 768
H033;32;Vrouwelijk;Rechts;1;108;left;no;250;leftarrow;785;true;focus;yes;281854;Chrome;112.0;Windows;10;undefined;undefined;1366 x 768;1366 x 768
H033;32;Vrouwelijk;Rechts;1;109;right;yes;250;undefined;null;true;focus;yes;283876;Chrome;112.0;Windows;10;undefined;undefined;1366 x 768;1366 x 768
H033;32;Vrouwelijk;Rechts;1;110;right;no;300;rightarrow;896;true;focus;yes;285555;Chrome;112.0;Windows;10;undefined;undefined;1366 x 768;1366 x 768
H033;32;Vrouwelijk;Rechts;1;111;left;yes;300;leftarrow;428;false;focus;yes;286748;Chrome;112.0;Windows;10;undefined;undefined;1366 x 768;1366 x 768
H033;32;Vrouwelijk;Rechts;1;112;left;no;250;leftarrow;725;true;focus;yes;288260;Chrome;112.0;Windows;10;undefined;undefined;1366 x 768;1366 x 768
H033;32;Vrouwelijk;Rechts;1;113;left;no;250;leftarrow;723;true;focus;yes;289756;Chrome;112.0;Windows;10;undefined;undefined;1366 x 768;1366 x 768
H033;32;Vrouwelijk;Rechts;1;114;right;no;250;rightarrow;688;true;focus;yes;291223;Chrome;112.0;Windows;10;undefined;undefined;1366 x 768;1366 x 768
H033;32;Vrouwelijk;Rechts;1;115;left;no;250;leftarrow;553;true;focus;yes;292558;Chrome;112.0;Windows;10;undefined;undefined;1366 x 768;1366 x 768
H033;32;Vrouwelijk;Rechts;1;116;right;no;250;rightarrow;686;true;focus;yes;294033;Chrome;112.0;Windows;10;undefined;undefined;1366 x 768;1366 x 768
H033;32;Vrouwelijk;Rechts;1;117;left;no;250;leftarrow;1007;true;focus;yes;295811;Chrome;112.0;Windows;10;undefined;undefined;1366 x 768;1366 x 768
H033;32;Vrouwelijk;Rechts;1;118;right;no;250;rightarrow;629;true;focus;yes;297244;Chrome;112.0;Windows;10;undefined;undefined;1366 x 768;1366 x 768
H033;32;Vrouwelijk;Rechts;1;119;left;yes;250;undefined;null;true;focus;yes;299298;Chrome;112.0;Windows;10;undefined;undefined;1366 x 768;1366 x 768
H033;32;Vrouwelijk;Rechts;1;120;right;yes;300;undefined;null;true;focus;yes;301341;Chrome;112.0;Windows;10;undefined;undefined;1366 x 768;1366 x 768
H033;32;Vrouwelijk;Rechts;1;121;right;no;350;rightarrow;549;true;focus;yes;302675;Chrome;112.0;Windows;10;undefined;undefined;1366 x 768;1366 x 768
H033;32;Vrouwelijk;Rechts;1;122;left;yes;350;leftarrow;504;false;focus;yes;303959;Chrome;112.0;Windows;10;undefined;undefined;1366 x 768;1366 x 768
H033;32;Vrouwelijk;Rechts;1;123;left;no;300;leftarrow;685;true;focus;yes;305421;Chrome;112.0;Windows;10;undefined;undefined;1366 x 768;1366 x 768
H033;32;Vrouwelijk;Rechts;1;124;right;no;300;rightarrow;636;true;focus;yes;306842;Chrome;112.0;Windows;10;undefined;undefined;1366 x 768;1366 x 768
H033;32;Vrouwelijk;Rechts;1;125;left;no;300;leftarrow;769;true;focus;yes;308394;Chrome;112.0;Windows;10;undefined;undefined;1366 x 768;1366 x 768
H033;32;Vrouwelijk;Rechts;1;126;left;no;300;leftarrow;599;true;focus;yes;309772;Chrome;112.0;Windows;10;undefined;undefined;1366 x 768;1366 x 768
H033;32;Vrouwelijk;Rechts;1;127;right;yes;300;undefined;null;true;focus;yes;311810;Chrome;112.0;Windows;10;undefined;undefined;1366 x 768;1366 x 768
H033;32;Vrouwelijk;Rechts;1;128;right;no;350;rightarrow;931;true;focus;yes;313528;Chrome;112.0;Windows;10;undefined;undefined;1366 x 768;1366 x 768
H033;32;Vrouwelijk;Rechts;2;1;right;yes;350;rightarrow;575;false;focus;yes;332734;Chrome;112.0;Windows;10;undefined;undefined;1366 x 768;1366 x 768
H033;32;Vrouwelijk;Rechts;2;2;right;no;300;rightarrow;838;true;focus;yes;334354;Chrome;112.0;Windows;10;undefined;undefined;1366 x 768;1366 x 768
H033;32;Vrouwelijk;Rechts;2;3;left;yes;300;undefined;null;true;focus;yes;336403;Chrome;112.0;Windows;10;undefined;undefined;1366 x 768;1366 x 768
H033;32;Vrouwelijk;Rechts;2;4;left;no;350;leftarrow;919;true;focus;yes;338107;Chrome;112.0;Windows;10;undefined;undefined;1366 x 768;1366 x 768
H033;32;Vrouwelijk;Rechts;2;5;left;no;350;leftarrow;548;true;focus;yes;339439;Chrome;112.0;Windows;10;undefined;undefined;1366 x 768;1366 x 768
H033;32;Vrouwelijk;Rechts;2;6;right;no;350;rightarrow;559;true;focus;yes;340780;Chrome;112.0;Windows;10;undefined;undefined;1366 x 768;1366 x 768
H033;32;Vrouwelijk;Rechts;2;7;right;no;350;rightarrow;580;true;focus;yes;342143;Chrome;112.0;Windows;10;undefined;undefined;1366 x 768;1366 x 768
H033;32;Vrouwelijk;Rechts;2;8;left;no;350;leftarrow;691;true;focus;yes;343629;Chrome;112.0;Windows;10;undefined;undefined;1366 x 768;1366 x 768
H033;32;Vrouwelijk;Rechts;2;9;left;no;350;leftarrow;585;true;focus;yes;345007;Chrome;112.0;Windows;10;undefined;undefined;1366 x 768;1366 x 768
H033;32;Vrouwelijk;Rechts;2;10;left;no;350;leftarrow;524;true;focus;yes;346320;Chrome;112.0;Windows;10;undefined;undefined;1366 x 768;1366 x 768
H033;32;Vrouwelijk;Rechts;2;11;left;no;350;leftarrow;575;true;focus;yes;347686;Chrome;112.0;Windows;10;undefined;undefined;1366 x 768;1366 x 768
H033;32;Vrouwelijk;Rechts;2;12;right;yes;350;undefined;null;true;focus;yes;349731;Chrome;112.0;Windows;10;undefined;undefined;1366 x 768;1366 x 768
H033;32;Vrouwelijk;Rechts;2;13;right;no;400;rightarrow;949;true;focus;yes;351481;Chrome;112.0;Windows;10;undefined;undefined;1366 x 768;1366 x 768
H033;32;Vrouwelijk;Rechts;2;14;left;yes;400;leftarrow;511;false;focus;yes;352777;Chrome;112.0;Windows;10;undefined;undefined;1366 x 768;1366 x 768
H033;32;Vrouwelijk;Rechts;2;15;right;no;350;rightarrow;467;true;focus;yes;354030;Chrome;112.0;Windows;10;undefined;undefined;1366 x 768;1366 x 768
H033;32;Vrouwelijk;Rechts;2;16;right;no;350;rightarrow;540;true;focus;yes;355353;Chrome;112.0;Windows;10;undefined;undefined;1366 x 768;1366 x 768
H033;32;Vrouwelijk;Rechts;2;17;left;yes;350;undefined;null;true;focus;yes;357419;Chrome;112.0;Windows;10;undefined;undefined;1366 x 768;1366 x 768
H033;32;Vrouwelijk;Rechts;2;18;left;no;400;leftarrow;835;true;focus;yes;359069;Chrome;112.0;Windows;10;undefined;undefined;1366 x 768;1366 x 768
H033;32;Vrouwelijk;Rechts;2;19;right;no;400;rightarrow;651;true;focus;yes;360512;Chrome;112.0;Windows;10;undefined;undefined;1366 x 768;1366 x 768
H033;32;Vrouwelijk;Rechts;2;20;right;yes;400;undefined;null;true;focus;yes;362562;Chrome;112.0;Windows;10;undefined;undefined;1366 x 768;1366 x 768
H033;32;Vrouwelijk;Rechts;2;21;left;no;450;leftarrow;556;true;focus;yes;363903;Chrome;112.0;Windows;10;undefined;undefined;1366 x 768;1366 x 768
H033;32;Vrouwelijk;Rechts;2;22;left;no;450;leftarrow;865;true;focus;yes;365557;Chrome;112.0;Windows;10;undefined;undefined;1366 x 768;1366 x 768
H033;32;Vrouwelijk;Rechts;2;23;right;no;450;rightarrow;816;true;focus;yes;367164;Chrome;112.0;Windows;10;undefined;undefined;1366 x 768;1366 x 768
H033;32;Vrouwelijk;Rechts;2;24;right;no;450;rightarrow;581;true;focus;yes;368522;Chrome;112.0;Windows;10;undefined;undefined;1366 x 768;1366 x 768
H033;32;Vrouwelijk;Rechts;2;25;left;no;450;leftarrow;553;true;focus;yes;369853;Chrome;112.0;Windows;10;undefined;undefined;1366 x 768;1366 x 768
H033;32;Vrouwelijk;Rechts;2;26;left;no;450;leftarrow;748;true;focus;yes;371391;Chrome;112.0;Windows;10;undefined;undefined;1366 x 768;1366 x 768
H033;32;Vrouwelijk;Rechts;2;27;left;yes;450;leftarrow;671;false;focus;yes;372847;Chrome;112.0;Windows;10;undefined;undefined;1366 x 768;1366 x 768
H033;32;Vrouwelijk;Rechts;2;28;right;no;400;rightarrow;483;true;focus;yes;374111;Chrome;112.0;Windows;10;undefined;undefined;1366 x 768;1366 x 768
H033;32;Vrouwelijk;Rechts;2;29;right;no;400;rightarrow;646;true;focus;yes;375540;Chrome;112.0;Windows;10;undefined;undefined;1366 x 768;1366 x 768
H033;32;Vrouwelijk;Rechts;2;30;right;yes;400;rightarrow;548;false;focus;yes;376880;Chrome;112.0;Windows;10;undefined;undefined;1366 x 768;1366 x 768
H033;32;Vrouwelijk;Rechts;2;31;right;no;350;rightarrow;795;true;focus;yes;378454;Chrome;112.0;Windows;10;undefined;undefined;1366 x 768;1366 x 768
H033;32;Vrouwelijk;Rechts;2;32;left;no;350;leftarrow;802;true;focus;yes;380040;Chrome;112.0;Windows;10;undefined;undefined;1366 x 768;1366 x 768
H033;32;Vrouwelijk;Rechts;2;33;right;no;350;rightarrow;693;true;focus;yes;381523;Chrome;112.0;Windows;10;undefined;undefined;1366 x 768;1366 x 768
H033;32;Vrouwelijk;Rechts;2;34;left;no;350;leftarrow;737;true;focus;yes;383036;Chrome;112.0;Windows;10;undefined;undefined;1366 x 768;1366 x 768
H033;32;Vrouwelijk;Rechts;2;35;right;no;350;rightarrow;772;true;focus;yes;384589;Chrome;112.0;Windows;10;undefined;undefined;1366 x 768;1366 x 768
H033;32;Vrouwelijk;Rechts;2;36;left;no;350;leftarrow;722;true;focus;yes;386101;Chrome;112.0;Windows;10;undefined;undefined;1366 x 768;1366 x 768
H033;32;Vrouwelijk;Rechts;2;37;right;no;350;rightarrow;767;true;focus;yes;387646;Chrome;112.0;Windows;10;undefined;undefined;1366 x 768;1366 x 768
H033;32;Vrouwelijk;Rechts;2;38;right;yes;350;undefined;null;true;focus;yes;389734;Chrome;112.0;Windows;10;undefined;undefined;1366 x 768;1366 x 768
H033;32;Vrouwelijk;Rechts;2;39;left;no;400;leftarrow;828;true;focus;yes;391380;Chrome;112.0;Windows;10;undefined;undefined;1366 x 768;1366 x 768
H033;32;Vrouwelijk;Rechts;2;40;left;yes;400;undefined;null;true;focus;yes;393422;Chrome;112.0;Windows;10;undefined;undefined;1366 x 768;1366 x 768
H033;32;Vrouwelijk;Rechts;2;41;right;no;450;rightarrow;690;true;focus;yes;394898;Chrome;112.0;Windows;10;undefined;undefined;1366 x 768;1366 x 768
H033;32;Vrouwelijk;Rechts;2;42;left;yes;450;leftarrow;629;false;focus;yes;396305;Chrome;112.0;Windows;10;undefined;undefined;1366 x 768;1366 x 768
H033;32;Vrouwelijk;Rechts;2;43;right;no;400;rightarrow;694;true;focus;yes;397792;Chrome;112.0;Windows;10;undefined;undefined;1366 x 768;1366 x 768
H033;32;Vrouwelijk;Rechts;2;44;left;no;400;leftarrow;764;true;focus;yes;399345;Chrome;112.0;Windows;10;undefined;undefined;1366 x 768;1366 x 768
H033;32;Vrouwelijk;Rechts;2;45;left;no;400;leftarrow;736;true;focus;yes;400865;Chrome;112.0;Windows;10;undefined;undefined;1366 x 768;1366 x 768
H033;32;Vrouwelijk;Rechts;2;46;right;no;400;rightarrow;863;true;focus;yes;402507;Chrome;112.0;Windows;10;undefined;undefined;1366 x 768;1366 x 768
H033;32;Vrouwelijk;Rechts;2;47;right;yes;400;undefined;null;true;focus;yes;404547;Chrome;112.0;Windows;10;undefined;undefined;1366 x 768;1366 x 768
H033;32;Vrouwelijk;Rechts;2;48;left;no;450;leftarrow;726;true;focus;yes;406058;Chrome;112.0;Windows;10;undefined;undefined;1366 x 768;1366 x 768
H033;32;Vrouwelijk;Rechts;2;49;right;no;450;rightarrow;619;true;focus;yes;407465;Chrome;112.0;Windows;10;undefined;undefined;1366 x 768;1366 x 768
H033;32;Vrouwelijk;Rechts;2;50;right;no;450;rightarrow;888;true;focus;yes;409142;Chrome;112.0;Windows;10;undefined;undefined;1366 x 768;1366 x 768
H033;32;Vrouwelijk;Rechts;2;51;left;yes;450;undefined;null;true;focus;yes;411187;Chrome;112.0;Windows;10;undefined;undefined;1366 x 768;1366 x 768
H033;32;Vrouwelijk;Rechts;2;52;right;no;500;rightarrow;657;true;focus;yes;412630;Chrome;112.0;Windows;10;undefined;undefined;1366 x 768;1366 x 768
H033;32;Vrouwelijk;Rechts;2;53;left;no;500;leftarrow;805;true;focus;yes;414215;Chrome;112.0;Windows;10;undefined;undefined;1366 x 768;1366 x 768
H033;32;Vrouwelijk;Rechts;2;54;left;no;500;leftarrow;824;true;focus;yes;415828;Chrome;112.0;Windows;10;undefined;undefined;1366 x 768;1366 x 768
H033;32;Vrouwelijk;Rechts;2;55;left;no;500;leftarrow;638;true;focus;yes;417252;Chrome;112.0;Windows;10;undefined;undefined;1366 x 768;1366 x 768
H033;32;Vrouwelijk;Rechts;2;56;right;yes;500;undefined;null;true;focus;yes;419313;Chrome;112.0;Windows;10;undefined;undefined;1366 x 768;1366 x 768
H033;32;Vrouwelijk;Rechts;2;57;right;no;550;rightarrow;1059;true;focus;yes;421189;Chrome;112.0;Windows;10;undefined;undefined;1366 x 768;1366 x 768
H033;32;Vrouwelijk;Rechts;2;58;left;yes;550;leftarrow;576;false;focus;yes;422544;Chrome;112.0;Windows;10;undefined;undefined;1366 x 768;1366 x 768
H033;32;Vrouwelijk;Rechts;2;59;right;yes;500;rightarrow;704;false;focus;yes;424034;Chrome;112.0;Windows;10;undefined;undefined;1366 x 768;1366 x 768
H033;32;Vrouwelijk;Rechts;2;60;left;no;450;leftarrow;762;true;focus;yes;425574;Chrome;112.0;Windows;10;undefined;undefined;1366 x 768;1366 x 768
H033;32;Vrouwelijk;Rechts;2;61;right;no;450;rightarrow;784;true;focus;yes;427142;Chrome;112.0;Windows;10;undefined;undefined;1366 x 768;1366 x 768
H033;32;Vrouwelijk;Rechts;2;62;right;no;450;rightarrow;734;true;focus;yes;428657;Chrome;112.0;Windows;10;undefined;undefined;1366 x 768;1366 x 768
H033;32;Vrouwelijk;Rechts;2;63;left;no;450;leftarrow;681;true;focus;yes;430109;Chrome;112.0;Windows;10;undefined;undefined;1366 x 768;1366 x 768
H033;32;Vrouwelijk;Rechts;2;64;left;no;450;leftarrow;1008;true;focus;yes;431899;Chrome;112.0;Windows;10;undefined;undefined;1366 x 768;1366 x 768
H033;32;Vrouwelijk;Rechts;2;65;left;no;450;leftarrow;568;true;focus;yes;433272;Chrome;112.0;Windows;10;undefined;undefined;1366 x 768;1366 x 768
H033;32;Vrouwelijk;Rechts;2;66;right;no;450;rightarrow;693;true;focus;yes;434756;Chrome;112.0;Windows;10;undefined;undefined;1366 x 768;1366 x 768
H033;32;Vrouwelijk;Rechts;2;67;right;yes;450;undefined;null;true;focus;yes;436809;Chrome;112.0;Windows;10;undefined;undefined;1366 x 768;1366 x 768
H033;32;Vrouwelijk;Rechts;2;68;right;no;500;rightarrow;724;true;focus;yes;438318;Chrome;112.0;Windows;10;undefined;undefined;1366 x 768;1366 x 768
H033;32;Vrouwelijk;Rechts;2;69;left;yes;500;leftarrow;792;false;focus;yes;439901;Chrome;112.0;Windows;10;undefined;undefined;1366 x 768;1366 x 768
H033;32;Vrouwelijk;Rechts;2;70;right;no;450;rightarrow;850;true;focus;yes;441521;Chrome;112.0;Windows;10;undefined;undefined;1366 x 768;1366 x 768
H033;32;Vrouwelijk;Rechts;2;71;left;no;450;leftarrow;762;true;focus;yes;443074;Chrome;112.0;Windows;10;undefined;undefined;1366 x 768;1366 x 768
H033;32;Vrouwelijk;Rechts;2;72;left;no;450;undefined;null;false;focus;yes;445137;Chrome;112.0;Windows;10;undefined;undefined;1366 x 768;1366 x 768
H033;32;Vrouwelijk;Rechts;2;73;left;yes;450;undefined;null;true;focus;yes;447183;Chrome;112.0;Windows;10;undefined;undefined;1366 x 768;1366 x 768
H033;32;Vrouwelijk;Rechts;2;74;left;no;500;leftarrow;740;true;focus;yes;448709;Chrome;112.0;Windows;10;undefined;undefined;1366 x 768;1366 x 768
H033;32;Vrouwelijk;Rechts;2;75;right;no;500;rightarrow;773;true;focus;yes;450273;Chrome;112.0;Windows;10;undefined;undefined;1366 x 768;1366 x 768
H033;32;Vrouwelijk;Rechts;2;76;right;no;500;rightarrow;671;true;focus;yes;451734;Chrome;112.0;Windows;10;undefined;undefined;1366 x 768;1366 x 768
H033;32;Vrouwelijk;Rechts;2;77;left;no;500;leftarrow;842;true;focus;yes;453368;Chrome;112.0;Windows;10;undefined;undefined;1366 x 768;1366 x 768
H033;32;Vrouwelijk;Rechts;2;78;right;no;500;rightarrow;765;true;focus;yes;454917;Chrome;112.0;Windows;10;undefined;undefined;1366 x 768;1366 x 768
H033;32;Vrouwelijk;Rechts;2;79;right;yes;500;rightarrow;691;false;focus;yes;456394;Chrome;112.0;Windows;10;undefined;undefined;1366 x 768;1366 x 768
H033;32;Vrouwelijk;Rechts;2;80;left;no;450;leftarrow;603;true;focus;yes;457776;Chrome;112.0;Windows;10;undefined;undefined;1366 x 768;1366 x 768
H033;32;Vrouwelijk;Rechts;2;81;right;no;450;rightarrow;648;true;focus;yes;459211;Chrome;112.0;Windows;10;undefined;undefined;1366 x 768;1366 x 768
H033;32;Vrouwelijk;Rechts;2;82;right;yes;450;undefined;null;true;focus;yes;461262;Chrome;112.0;Windows;10;undefined;undefined;1366 x 768;1366 x 768
H033;32;Vrouwelijk;Rechts;2;83;left;no;500;leftarrow;619;true;focus;yes;462685;Chrome;112.0;Windows;10;undefined;undefined;1366 x 768;1366 x 768
H033;32;Vrouwelijk;Rechts;2;84;left;yes;500;leftarrow;624;false;focus;yes;464097;Chrome;112.0;Windows;10;undefined;undefined;1366 x 768;1366 x 768
H033;32;Vrouwelijk;Rechts;2;85;left;no;450;leftarrow;825;true;focus;yes;465707;Chrome;112.0;Windows;10;undefined;undefined;1366 x 768;1366 x 768
H033;32;Vrouwelijk;Rechts;2;86;right;no;450;rightarrow;659;true;focus;yes;467158;Chrome;112.0;Windows;10;undefined;undefined;1366 x 768;1366 x 768
H033;32;Vrouwelijk;Rechts;2;87;right;no;450;undefined;null;false;focus;yes;469228;Chrome;112.0;Windows;10;undefined;undefined;1366 x 768;1366 x 768
H033;32;Vrouwelijk;Rechts;2;88;left;no;450;leftarrow;567;true;focus;yes;470580;Chrome;112.0;Windows;10;undefined;undefined;1366 x 768;1366 x 768
H033;32;Vrouwelijk;Rechts;2;89;right;no;450;rightarrow;549;true;focus;yes;471906;Chrome;112.0;Windows;10;undefined;undefined;1366 x 768;1366 x 768
H033;32;Vrouwelijk;Rechts;2;90;right;yes;450;rightarrow;670;false;focus;yes;473371;Chrome;112.0;Windows;10;undefined;undefined;1366 x 768;1366 x 768
H033;32;Vrouwelijk;Rechts;2;91;left;yes;400;undefined;null;true;focus;yes;475431;Chrome;112.0;Windows;10;undefined;undefined;1366 x 768;1366 x 768
H033;32;Vrouwelijk;Rechts;2;92;left;no;450;leftarrow;560;true;focus;yes;476783;Chrome;112.0;Windows;10;undefined;undefined;1366 x 768;1366 x 768
H033;32;Vrouwelijk;Rechts;2;93;right;no;450;rightarrow;568;true;focus;yes;478135;Chrome;112.0;Windows;10;undefined;undefined;1366 x 768;1366 x 768
H033;32;Vrouwelijk;Rechts;2;94;left;no;450;leftarrow;724;true;focus;yes;479650;Chrome;112.0;Windows;10;undefined;undefined;1366 x 768;1366 x 768
H033;32;Vrouwelijk;Rechts;2;95;left;no;450;leftarrow;796;true;focus;yes;481237;Chrome;112.0;Windows;10;undefined;undefined;1366 x 768;1366 x 768
H033;32;Vrouwelijk;Rechts;2;96;right;no;450;rightarrow;751;true;focus;yes;482766;Chrome;112.0;Windows;10;undefined;undefined;1366 x 768;1366 x 768
H033;32;Vrouwelijk;Rechts;2;97;right;no;450;rightarrow;754;true;focus;yes;484301;Chrome;112.0;Windows;10;undefined;undefined;1366 x 768;1366 x 768
H033;32;Vrouwelijk;Rechts;2;98;left;no;450;leftarrow;631;true;focus;yes;485708;Chrome;112.0;Windows;10;undefined;undefined;1366 x 768;1366 x 768
H033;32;Vrouwelijk;Rechts;2;99;left;no;450;leftarrow;741;true;focus;yes;487241;Chrome;112.0;Windows;10;undefined;undefined;1366 x 768;1366 x 768
H033;32;Vrouwelijk;Rechts;2;100;left;yes;450;leftarrow;578;false;focus;yes;488608;Chrome;112.0;Windows;10;undefined;undefined;1366 x 768;1366 x 768
H033;32;Vrouwelijk;Rechts;2;101;left;no;400;leftarrow;934;true;focus;yes;490325;Chrome;112.0;Windows;10;undefined;undefined;1366 x 768;1366 x 768
H033;32;Vrouwelijk;Rechts;2;102;right;yes;400;undefined;null;true;focus;yes;492370;Chrome;112.0;Windows;10;undefined;undefined;1366 x 768;1366 x 768
H033;32;Vrouwelijk;Rechts;2;103;right;no;450;rightarrow;701;true;focus;yes;493856;Chrome;112.0;Windows;10;undefined;undefined;1366 x 768;1366 x 768
H033;32;Vrouwelijk;Rechts;2;104;right;no;450;rightarrow;839;true;focus;yes;495479;Chrome;112.0;Windows;10;undefined;undefined;1366 x 768;1366 x 768
H033;32;Vrouwelijk;Rechts;2;105;right;no;450;rightarrow;853;true;focus;yes;497118;Chrome;112.0;Windows;10;undefined;undefined;1366 x 768;1366 x 768
H033;32;Vrouwelijk;Rechts;2;106;right;yes;450;undefined;null;true;focus;yes;499183;Chrome;112.0;Windows;10;undefined;undefined;1366 x 768;1366 x 768
H033;32;Vrouwelijk;Rechts;2;107;left;no;500;leftarrow;759;true;focus;yes;500743;Chrome;112.0;Windows;10;undefined;undefined;1366 x 768;1366 x 768
H033;32;Vrouwelijk;Rechts;2;108;right;no;500;rightarrow;958;true;focus;yes;502489;Chrome;112.0;Windows;10;undefined;undefined;1366 x 768;1366 x 768
H033;32;Vrouwelijk;Rechts;2;109;left;yes;500;leftarrow;671;false;focus;yes;503952;Chrome;112.0;Windows;10;undefined;undefined;1366 x 768;1366 x 768
H033;32;Vrouwelijk;Rechts;2;110;left;no;450;leftarrow;928;true;focus;yes;505664;Chrome;112.0;Windows;10;undefined;undefined;1366 x 768;1366 x 768
H033;32;Vrouwelijk;Rechts;2;111;left;no;450;leftarrow;858;true;focus;yes;507310;Chrome;112.0;Windows;10;undefined;undefined;1366 x 768;1366 x 768
H033;32;Vrouwelijk;Rechts;2;112;right;no;450;rightarrow;674;true;focus;yes;508768;Chrome;112.0;Windows;10;undefined;undefined;1366 x 768;1366 x 768
H033;32;Vrouwelijk;Rechts;2;113;left;no;450;leftarrow;630;true;focus;yes;510176;Chrome;112.0;Windows;10;undefined;undefined;1366 x 768;1366 x 768
H033;32;Vrouwelijk;Rechts;2;114;right;no;450;rightarrow;827;true;focus;yes;511784;Chrome;112.0;Windows;10;undefined;undefined;1366 x 768;1366 x 768
H033;32;Vrouwelijk;Rechts;2;115;left;yes;450;undefined;null;true;focus;yes;513823;Chrome;112.0;Windows;10;undefined;undefined;1366 x 768;1366 x 768
H033;32;Vrouwelijk;Rechts;2;116;left;no;500;leftarrow;625;true;focus;yes;515239;Chrome;112.0;Windows;10;undefined;undefined;1366 x 768;1366 x 768
H033;32;Vrouwelijk;Rechts;2;117;right;no;500;rightarrow;662;true;focus;yes;516692;Chrome;112.0;Windows;10;undefined;undefined;1366 x 768;1366 x 768
H033;32;Vrouwelijk;Rechts;2;118;left;no;500;leftarrow;738;true;focus;yes;518221;Chrome;112.0;Windows;10;undefined;undefined;1366 x 768;1366 x 768
H033;32;Vrouwelijk;Rechts;2;119;right;no;500;rightarrow;576;true;focus;yes;519576;Chrome;112.0;Windows;10;undefined;undefined;1366 x 768;1366 x 768
H033;32;Vrouwelijk;Rechts;2;120;right;yes;500;rightarrow;636;false;focus;yes;520994;Chrome;112.0;Windows;10;undefined;undefined;1366 x 768;1366 x 768
H033;32;Vrouwelijk;Rechts;2;121;left;yes;450;undefined;null;true;focus;yes;523042;Chrome;112.0;Windows;10;undefined;undefined;1366 x 768;1366 x 768
H033;32;Vrouwelijk;Rechts;2;122;left;no;500;leftarrow;604;true;focus;yes;524431;Chrome;112.0;Windows;10;undefined;undefined;1366 x 768;1366 x 768
H033;32;Vrouwelijk;Rechts;2;123;left;no;500;leftarrow;509;true;focus;yes;525727;Chrome;112.0;Windows;10;undefined;undefined;1366 x 768;1366 x 768
H033;32;Vrouwelijk;Rechts;2;124;right;yes;500;rightarrow;636;false;focus;yes;527152;Chrome;112.0;Windows;10;undefined;undefined;1366 x 768;1366 x 768
H033;32;Vrouwelijk;Rechts;2;125;right;no;450;rightarrow;921;true;focus;yes;528857;Chrome;112.0;Windows;10;undefined;undefined;1366 x 768;1366 x 768
H033;32;Vrouwelijk;Rechts;2;126;right;no;450;rightarrow;795;true;focus;yes;530433;Chrome;112.0;Windows;10;undefined;undefined;1366 x 768;1366 x 768
H033;32;Vrouwelijk;Rechts;2;127;left;no;450;leftarrow;894;true;focus;yes;532112;Chrome;112.0;Windows;10;undefined;undefined;1366 x 768;1366 x 768
H033;32;Vrouwelijk;Rechts;2;128;right;no;450;rightarrow;1107;true;focus;yes;533997;Chrome;112.0;Windows;10;undefined;undefined;1366 x 768;1366 x 768
H033;32;Vrouwelijk;Rechts;3;1;right;no;450;rightarrow;507;true;focus;yes;553279;Chrome;112.0;Windows;10;undefined;undefined;1366 x 768;1366 x 768
H033;32;Vrouwelijk;Rechts;3;2;right;yes;450;rightarrow;536;false;focus;yes;554602;Chrome;112.0;Windows;10;undefined;undefined;1366 x 768;1366 x 768
H033;32;Vrouwelijk;Rechts;3;3;left;no;400;leftarrow;710;true;focus;yes;556105;Chrome;112.0;Windows;10;undefined;undefined;1366 x 768;1366 x 768
H033;32;Vrouwelijk;Rechts;3;4;left;yes;400;undefined;null;true;focus;yes;558141;Chrome;112.0;Windows;10;undefined;undefined;1366 x 768;1366 x 768
H033;32;Vrouwelijk;Rechts;3;5;right;no;450;rightarrow;692;true;focus;yes;559618;Chrome;112.0;Windows;10;undefined;undefined;1366 x 768;1366 x 768
H033;32;Vrouwelijk;Rechts;3;6;right;no;450;rightarrow;771;true;focus;yes;561165;Chrome;112.0;Windows;10;undefined;undefined;1366 x 768;1366 x 768
H033;32;Vrouwelijk;Rechts;3;7;left;no;450;leftarrow;787;true;focus;yes;562716;Chrome;112.0;Windows;10;undefined;undefined;1366 x 768;1366 x 768
H033;32;Vrouwelijk;Rechts;3;8;left;no;450;leftarrow;785;true;focus;yes;564288;Chrome;112.0;Windows;10;undefined;undefined;1366 x 768;1366 x 768
H033;32;Vrouwelijk;Rechts;3;9;left;yes;450;undefined;null;true;focus;yes;566328;Chrome;112.0;Windows;10;undefined;undefined;1366 x 768;1366 x 768
H033;32;Vrouwelijk;Rechts;3;10;right;no;500;rightarrow;813;true;focus;yes;567943;Chrome;112.0;Windows;10;undefined;undefined;1366 x 768;1366 x 768
H033;32;Vrouwelijk;Rechts;3;11;right;yes;500;undefined;null;true;focus;yes;570000;Chrome;112.0;Windows;10;undefined;undefined;1366 x 768;1366 x 768
H033;32;Vrouwelijk;Rechts;3;12;left;no;550;leftarrow;638;true;focus;yes;571424;Chrome;112.0;Windows;10;undefined;undefined;1366 x 768;1366 x 768
H033;32;Vrouwelijk;Rechts;3;13;left;no;550;leftarrow;1045;true;focus;yes;573253;Chrome;112.0;Windows;10;undefined;undefined;1366 x 768;1366 x 768
H033;32;Vrouwelijk;Rechts;3;14;right;no;550;rightarrow;1203;true;focus;yes;575238;Chrome;112.0;Windows;10;undefined;undefined;1366 x 768;1366 x 768
H033;32;Vrouwelijk;Rechts;3;15;left;no;550;undefined;null;false;focus;yes;577282;Chrome;112.0;Windows;10;undefined;undefined;1366 x 768;1366 x 768
H033;32;Vrouwelijk;Rechts;3;16;right;no;550;rightarrow;480;true;focus;yes;578546;Chrome;112.0;Windows;10;undefined;undefined;1366 x 768;1366 x 768
H033;32;Vrouwelijk;Rechts;3;17;right;no;550;rightarrow;483;true;focus;yes;579815;Chrome;112.0;Windows;10;undefined;undefined;1366 x 768;1366 x 768
H033;32;Vrouwelijk;Rechts;3;18;right;no;550;rightarrow;512;true;focus;yes;581110;Chrome;112.0;Windows;10;undefined;undefined;1366 x 768;1366 x 768
H033;32;Vrouwelijk;Rechts;3;19;left;no;550;leftarrow;613;true;focus;yes;582508;Chrome;112.0;Windows;10;undefined;undefined;1366 x 768;1366 x 768
H033;32;Vrouwelijk;Rechts;3;20;left;yes;550;leftarrow;847;false;focus;yes;584149;Chrome;112.0;Windows;10;undefined;undefined;1366 x 768;1366 x 768
H033;32;Vrouwelijk;Rechts;3;21;left;no;500;leftarrow;1090;true;focus;yes;586032;Chrome;112.0;Windows;10;undefined;undefined;1366 x 768;1366 x 768
H033;32;Vrouwelijk;Rechts;3;22;left;no;500;leftarrow;774;true;focus;yes;587591;Chrome;112.0;Windows;10;undefined;undefined;1366 x 768;1366 x 768
H033;32;Vrouwelijk;Rechts;3;23;right;no;500;rightarrow;971;true;focus;yes;589350;Chrome;112.0;Windows;10;undefined;undefined;1366 x 768;1366 x 768
H033;32;Vrouwelijk;Rechts;3;24;right;yes;500;undefined;null;true;focus;yes;591391;Chrome;112.0;Windows;10;undefined;undefined;1366 x 768;1366 x 768
H033;32;Vrouwelijk;Rechts;3;25;right;no;550;rightarrow;996;true;focus;yes;593172;Chrome;112.0;Windows;10;undefined;undefined;1366 x 768;1366 x 768
H033;32;Vrouwelijk;Rechts;3;26;left;yes;550;leftarrow;813;false;focus;yes;594770;Chrome;112.0;Windows;10;undefined;undefined;1366 x 768;1366 x 768
H033;32;Vrouwelijk;Rechts;3;27;right;yes;500;rightarrow;784;false;focus;yes;596336;Chrome;112.0;Windows;10;undefined;undefined;1366 x 768;1366 x 768
H033;32;Vrouwelijk;Rechts;3;28;left;no;450;leftarrow;919;true;focus;yes;598033;Chrome;112.0;Windows;10;undefined;undefined;1366 x 768;1366 x 768
H033;32;Vrouwelijk;Rechts;3;29;left;no;450;leftarrow;1030;true;focus;yes;599848;Chrome;112.0;Windows;10;undefined;undefined;1366 x 768;1366 x 768
H033;32;Vrouwelijk;Rechts;3;30;right;no;450;rightarrow;606;true;focus;yes;601228;Chrome;112.0;Windows;10;undefined;undefined;1366 x 768;1366 x 768
H033;32;Vrouwelijk;Rechts;3;31;right;no;450;rightarrow;910;true;focus;yes;602932;Chrome;112.0;Windows;10;undefined;undefined;1366 x 768;1366 x 768
H033;32;Vrouwelijk;Rechts;3;32;left;no;450;leftarrow;630;true;focus;yes;604355;Chrome;112.0;Windows;10;undefined;undefined;1366 x 768;1366 x 768
H033;32;Vrouwelijk;Rechts;3;33;left;no;450;leftarrow;872;true;focus;yes;606050;Chrome;112.0;Windows;10;undefined;undefined;1366 x 768;1366 x 768
H033;32;Vrouwelijk;Rechts;3;34;right;no;450;rightarrow;709;true;focus;yes;607543;Chrome;112.0;Windows;10;undefined;undefined;1366 x 768;1366 x 768
H033;32;Vrouwelijk;Rechts;3;35;left;no;450;leftarrow;1180;true;focus;yes;609515;Chrome;112.0;Windows;10;undefined;undefined;1366 x 768;1366 x 768
H033;32;Vrouwelijk;Rechts;3;36;right;no;450;rightarrow;911;true;focus;yes;611213;Chrome;112.0;Windows;10;undefined;undefined;1366 x 768;1366 x 768
H033;32;Vrouwelijk;Rechts;3;37;right;no;450;rightarrow;799;true;focus;yes;612790;Chrome;112.0;Windows;10;undefined;undefined;1366 x 768;1366 x 768
H033;32;Vrouwelijk;Rechts;3;38;right;yes;450;rightarrow;785;false;focus;yes;614354;Chrome;112.0;Windows;10;undefined;undefined;1366 x 768;1366 x 768
H033;32;Vrouwelijk;Rechts;3;39;left;no;400;leftarrow;989;true;focus;yes;616118;Chrome;112.0;Windows;10;undefined;undefined;1366 x 768;1366 x 768
H033;32;Vrouwelijk;Rechts;3;40;left;yes;400;undefined;null;true;focus;yes;618159;Chrome;112.0;Windows;10;undefined;undefined;1366 x 768;1366 x 768
H033;32;Vrouwelijk;Rechts;3;41;right;no;450;rightarrow;753;true;focus;yes;619696;Chrome;112.0;Windows;10;undefined;undefined;1366 x 768;1366 x 768
H033;32;Vrouwelijk;Rechts;3;42;left;no;450;leftarrow;919;true;focus;yes;621409;Chrome;112.0;Windows;10;undefined;undefined;1366 x 768;1366 x 768
H033;32;Vrouwelijk;Rechts;3;43;right;no;450;rightarrow;1161;true;focus;yes;623355;Chrome;112.0;Windows;10;undefined;undefined;1366 x 768;1366 x 768
H033;32;Vrouwelijk;Rechts;3;44;right;yes;450;undefined;null;true;focus;yes;625408;Chrome;112.0;Windows;10;undefined;undefined;1366 x 768;1366 x 768
H033;32;Vrouwelijk;Rechts;3;45;right;no;500;undefined;null;false;focus;yes;627471;Chrome;112.0;Windows;10;undefined;undefined;1366 x 768;1366 x 768
H033;32;Vrouwelijk;Rechts;3;46;left;no;500;leftarrow;519;true;focus;yes;628822;Chrome;112.0;Windows;10;undefined;undefined;1366 x 768;1366 x 768
H033;32;Vrouwelijk;Rechts;3;47;left;yes;500;leftarrow;559;false;focus;yes;630175;Chrome;112.0;Windows;10;undefined;undefined;1366 x 768;1366 x 768
H033;32;Vrouwelijk;Rechts;3;48;left;no;450;leftarrow;789;true;focus;yes;631748;Chrome;112.0;Windows;10;undefined;undefined;1366 x 768;1366 x 768
H033;32;Vrouwelijk;Rechts;3;49;left;yes;450;leftarrow;715;false;focus;yes;633251;Chrome;112.0;Windows;10;undefined;undefined;1366 x 768;1366 x 768
H033;32;Vrouwelijk;Rechts;3;50;right;no;400;rightarrow;1073;true;focus;yes;635127;Chrome;112.0;Windows;10;undefined;undefined;1366 x 768;1366 x 768
H033;32;Vrouwelijk;Rechts;3;51;right;no;400;rightarrow;1023;true;focus;yes;636934;Chrome;112.0;Windows;10;undefined;undefined;1366 x 768;1366 x 768
H033;32;Vrouwelijk;Rechts;3;52;left;no;400;leftarrow;873;true;focus;yes;638598;Chrome;112.0;Windows;10;undefined;undefined;1366 x 768;1366 x 768
H033;32;Vrouwelijk;Rechts;3;53;right;no;400;rightarrow;1095;true;focus;yes;640476;Chrome;112.0;Windows;10;undefined;undefined;1366 x 768;1366 x 768
H033;32;Vrouwelijk;Rechts;3;54;left;no;400;leftarrow;529;true;focus;yes;641784;Chrome;112.0;Windows;10;undefined;undefined;1366 x 768;1366 x 768
H033;32;Vrouwelijk;Rechts;3;55;right;yes;400;rightarrow;593;false;focus;yes;643160;Chrome;112.0;Windows;10;undefined;undefined;1366 x 768;1366 x 768
H033;32;Vrouwelijk;Rechts;3;56;left;no;350;leftarrow;472;true;focus;yes;644416;Chrome;112.0;Windows;10;undefined;undefined;1366 x 768;1366 x 768
H033;32;Vrouwelijk;Rechts;3;57;right;no;350;rightarrow;877;true;focus;yes;646070;Chrome;112.0;Windows;10;undefined;undefined;1366 x 768;1366 x 768
H033;32;Vrouwelijk;Rechts;3;58;left;no;350;leftarrow;764;true;focus;yes;647614;Chrome;112.0;Windows;10;undefined;undefined;1366 x 768;1366 x 768
H033;32;Vrouwelijk;Rechts;3;59;left;no;350;leftarrow;973;true;focus;yes;649370;Chrome;112.0;Windows;10;undefined;undefined;1366 x 768;1366 x 768
H033;32;Vrouwelijk;Rechts;3;60;right;yes;350;undefined;null;true;focus;yes;651439;Chrome;112.0;Windows;10;undefined;undefined;1366 x 768;1366 x 768
H033;32;Vrouwelijk;Rechts;3;61;left;no;400;leftarrow;683;true;focus;yes;652922;Chrome;112.0;Windows;10;undefined;undefined;1366 x 768;1366 x 768
H033;32;Vrouwelijk;Rechts;3;62;right;no;400;rightarrow;552;true;focus;yes;654261;Chrome;112.0;Windows;10;undefined;undefined;1366 x 768;1366 x 768
H033;32;Vrouwelijk;Rechts;3;63;right;no;400;rightarrow;895;true;focus;yes;655948;Chrome;112.0;Windows;10;undefined;undefined;1366 x 768;1366 x 768
H033;32;Vrouwelijk;Rechts;3;64;left;yes;400;undefined;null;true;focus;yes;658017;Chrome;112.0;Windows;10;undefined;undefined;1366 x 768;1366 x 768
H033;32;Vrouwelijk;Rechts;3;65;right;yes;450;rightarrow;512;false;focus;yes;659331;Chrome;112.0;Windows;10;undefined;undefined;1366 x 768;1366 x 768
H033;32;Vrouwelijk;Rechts;3;66;right;no;400;rightarrow;985;true;focus;yes;661101;Chrome;112.0;Windows;10;undefined;undefined;1366 x 768;1366 x 768
H033;32;Vrouwelijk;Rechts;3;67;right;no;400;rightarrow;920;true;focus;yes;662800;Chrome;112.0;Windows;10;undefined;undefined;1366 x 768;1366 x 768
H033;32;Vrouwelijk;Rechts;3;68;left;no;400;leftarrow;880;true;focus;yes;664465;Chrome;112.0;Windows;10;undefined;undefined;1366 x 768;1366 x 768
H033;32;Vrouwelijk;Rechts;3;69;right;no;400;rightarrow;1019;true;focus;yes;666273;Chrome;112.0;Windows;10;undefined;undefined;1366 x 768;1366 x 768
H033;32;Vrouwelijk;Rechts;3;70;left;no;400;leftarrow;947;true;focus;yes;668014;Chrome;112.0;Windows;10;undefined;undefined;1366 x 768;1366 x 768
H033;32;Vrouwelijk;Rechts;3;71;left;no;400;leftarrow;902;true;focus;yes;669702;Chrome;112.0;Windows;10;undefined;undefined;1366 x 768;1366 x 768
H033;32;Vrouwelijk;Rechts;3;72;left;yes;400;undefined;null;true;focus;yes;671768;Chrome;112.0;Windows;10;undefined;undefined;1366 x 768;1366 x 768
H033;32;Vrouwelijk;Rechts;3;73;left;no;450;leftarrow;617;true;focus;yes;673183;Chrome;112.0;Windows;10;undefined;undefined;1366 x 768;1366 x 768
H033;32;Vrouwelijk;Rechts;3;74;left;no;450;leftarrow;876;true;focus;yes;674851;Chrome;112.0;Windows;10;undefined;undefined;1366 x 768;1366 x 768
H033;32;Vrouwelijk;Rechts;3;75;right;no;450;rightarrow;843;true;focus;yes;676472;Chrome;112.0;Windows;10;undefined;undefined;1366 x 768;1366 x 768
H033;32;Vrouwelijk;Rechts;3;76;right;no;450;rightarrow;898;true;focus;yes;678142;Chrome;112.0;Windows;10;undefined;undefined;1366 x 768;1366 x 768
H033;32;Vrouwelijk;Rechts;3;77;left;no;450;leftarrow;928;true;focus;yes;679857;Chrome;112.0;Windows;10;undefined;undefined;1366 x 768;1366 x 768
H033;32;Vrouwelijk;Rechts;3;78;left;yes;450;leftarrow;808;false;focus;yes;681454;Chrome;112.0;Windows;10;undefined;undefined;1366 x 768;1366 x 768
H033;32;Vrouwelijk;Rechts;3;79;right;yes;400;undefined;null;true;focus;yes;683500;Chrome;112.0;Windows;10;undefined;undefined;1366 x 768;1366 x 768
H033;32;Vrouwelijk;Rechts;3;80;right;no;450;rightarrow;747;true;focus;yes;685032;Chrome;112.0;Windows;10;undefined;undefined;1366 x 768;1366 x 768
H033;32;Vrouwelijk;Rechts;3;81;right;no;450;undefined;null;false;focus;yes;687078;Chrome;112.0;Windows;10;undefined;undefined;1366 x 768;1366 x 768
H033;32;Vrouwelijk;Rechts;3;82;right;yes;450;rightarrow;512;false;focus;yes;688375;Chrome;112.0;Windows;10;undefined;undefined;1366 x 768;1366 x 768
H033;32;Vrouwelijk;Rechts;3;83;left;no;400;leftarrow;591;true;focus;yes;689753;Chrome;112.0;Windows;10;undefined;undefined;1366 x 768;1366 x 768
H033;32;Vrouwelijk;Rechts;3;86;right;no;400;rightarrow;642;true;focus;yes;694693;Chrome;112.0;Windows;10;undefined;undefined;1366 x 768;1366 x 768
H033;32;Vrouwelijk;Rechts;3;84;right;no;400;rightarrow;998;true;focus;yes;691548;Chrome;112.0;Windows;10;undefined;undefined;1366 x 768;1366 x 768
H033;32;Vrouwelijk;Rechts;3;87;left;yes;400;undefined;null;true;focus;yes;696750;Chrome;112.0;Windows;10;undefined;undefined;1366 x 768;1366 x 768
H033;32;Vrouwelijk;Rechts;3;85;left;no;400;leftarrow;936;true;focus;yes;693270;Chrome;112.0;Windows;10;undefined;undefined;1366 x 768;1366 x 768
H033;32;Vrouwelijk;Rechts;3;89;left;yes;450;leftarrow;609;false;focus;yes;699504;Chrome;112.0;Windows;10;undefined;undefined;1366 x 768;1366 x 768
H033;32;Vrouwelijk;Rechts;3;90;right;no;400;rightarrow;1022;true;focus;yes;701307;Chrome;112.0;Windows;10;undefined;undefined;1366 x 768;1366 x 768
H033;32;Vrouwelijk;Rechts;3;91;right;no;400;rightarrow;1087;true;focus;yes;703185;Chrome;112.0;Windows;10;undefined;undefined;1366 x 768;1366 x 768
H033;32;Vrouwelijk;Rechts;3;88;left;no;450;leftarrow;537;true;focus;yes;698104;Chrome;112.0;Windows;10;undefined;undefined;1366 x 768;1366 x 768
H033;32;Vrouwelijk;Rechts;3;92;right;no;400;rightarrow;1123;true;focus;yes;705096;Chrome;112.0;Windows;10;undefined;undefined;1366 x 768;1366 x 768
H033;32;Vrouwelijk;Rechts;3;93;left;no;400;undefined;null;false;focus;yes;707141;Chrome;112.0;Windows;10;undefined;undefined;1366 x 768;1366 x 768
H033;32;Vrouwelijk;Rechts;3;94;right;yes;400;rightarrow;506;false;focus;yes;708434;Chrome;112.0;Windows;10;undefined;undefined;1366 x 768;1366 x 768
H033;32;Vrouwelijk;Rechts;3;95;left;no;350;leftarrow;599;true;focus;yes;709823;Chrome;112.0;Windows;10;undefined;undefined;1366 x 768;1366 x 768
H033;32;Vrouwelijk;Rechts;3;96;left;no;350;undefined;null;false;focus;yes;711875;Chrome;112.0;Windows;10;undefined;undefined;1366 x 768;1366 x 768
H033;32;Vrouwelijk;Rechts;3;97;left;no;350;leftarrow;422;true;focus;yes;713083;Chrome;112.0;Windows;10;undefined;undefined;1366 x 768;1366 x 768
H033;32;Vrouwelijk;Rechts;3;98;left;no;350;leftarrow;463;true;focus;yes;714326;Chrome;112.0;Windows;10;undefined;undefined;1366 x 768;1366 x 768
H033;32;Vrouwelijk;Rechts;3;99;left;yes;350;leftarrow;511;false;focus;yes;715626;Chrome;112.0;Windows;10;undefined;undefined;1366 x 768;1366 x 768
H033;32;Vrouwelijk;Rechts;3;100;right;no;300;rightarrow;704;true;focus;yes;717116;Chrome;112.0;Windows;10;undefined;undefined;1366 x 768;1366 x 768
H033;32;Vrouwelijk;Rechts;3;101;right;yes;300;undefined;null;true;focus;yes;719157;Chrome;112.0;Windows;10;undefined;undefined;1366 x 768;1366 x 768
H033;32;Vrouwelijk;Rechts;3;102;left;no;350;leftarrow;522;true;focus;yes;720465;Chrome;112.0;Windows;10;undefined;undefined;1366 x 768;1366 x 768
H033;32;Vrouwelijk;Rechts;3;103;right;no;350;rightarrow;841;true;focus;yes;722096;Chrome;112.0;Windows;10;undefined;undefined;1366 x 768;1366 x 768
H033;32;Vrouwelijk;Rechts;3;104;right;no;350;rightarrow;629;true;focus;yes;723503;Chrome;112.0;Windows;10;undefined;undefined;1366 x 768;1366 x 768
H033;32;Vrouwelijk;Rechts;3;105;right;no;350;rightarrow;714;true;focus;yes;724996;Chrome;112.0;Windows;10;undefined;undefined;1366 x 768;1366 x 768
H033;32;Vrouwelijk;Rechts;3;106;left;no;350;leftarrow;840;true;focus;yes;726636;Chrome;112.0;Windows;10;undefined;undefined;1366 x 768;1366 x 768
H033;32;Vrouwelijk;Rechts;3;107;left;no;350;leftarrow;688;true;focus;yes;728110;Chrome;112.0;Windows;10;undefined;undefined;1366 x 768;1366 x 768
H033;32;Vrouwelijk;Rechts;3;108;right;yes;350;undefined;null;true;focus;yes;730153;Chrome;112.0;Windows;10;undefined;undefined;1366 x 768;1366 x 768
H033;32;Vrouwelijk;Rechts;3;109;left;yes;400;undefined;null;true;focus;yes;732198;Chrome;112.0;Windows;10;undefined;undefined;1366 x 768;1366 x 768
H033;32;Vrouwelijk;Rechts;3;110;right;no;450;rightarrow;655;true;focus;yes;733661;Chrome;112.0;Windows;10;undefined;undefined;1366 x 768;1366 x 768
H033;32;Vrouwelijk;Rechts;3;111;right;no;450;rightarrow;906;true;focus;yes;735360;Chrome;112.0;Windows;10;undefined;undefined;1366 x 768;1366 x 768
H033;32;Vrouwelijk;Rechts;3;112;left;no;450;leftarrow;863;true;focus;yes;737002;Chrome;112.0;Windows;10;undefined;undefined;1366 x 768;1366 x 768
H033;32;Vrouwelijk;Rechts;3;113;right;no;450;rightarrow;706;true;focus;yes;738487;Chrome;112.0;Windows;10;undefined;undefined;1366 x 768;1366 x 768
H033;32;Vrouwelijk;Rechts;3;114;right;no;450;rightarrow;929;true;focus;yes;740226;Chrome;112.0;Windows;10;undefined;undefined;1366 x 768;1366 x 768
H033;32;Vrouwelijk;Rechts;3;115;left;no;450;leftarrow;506;true;focus;yes;741521;Chrome;112.0;Windows;10;undefined;undefined;1366 x 768;1366 x 768
H033;32;Vrouwelijk;Rechts;3;116;left;yes;450;leftarrow;691;false;focus;yes;743002;Chrome;112.0;Windows;10;undefined;undefined;1366 x 768;1366 x 768
H033;32;Vrouwelijk;Rechts;3;117;left;no;400;leftarrow;982;true;focus;yes;744764;Chrome;112.0;Windows;10;undefined;undefined;1366 x 768;1366 x 768
H033;32;Vrouwelijk;Rechts;3;118;right;yes;400;rightarrow;567;false;focus;yes;746129;Chrome;112.0;Windows;10;undefined;undefined;1366 x 768;1366 x 768
H033;32;Vrouwelijk;Rechts;3;119;left;no;350;leftarrow;1159;true;focus;yes;748052;Chrome;112.0;Windows;10;undefined;undefined;1366 x 768;1366 x 768
H033;32;Vrouwelijk;Rechts;3;120;right;no;350;rightarrow;861;true;focus;yes;749705;Chrome;112.0;Windows;10;undefined;undefined;1366 x 768;1366 x 768
H033;32;Vrouwelijk;Rechts;3;121;left;no;350;leftarrow;522;true;focus;yes;751005;Chrome;112.0;Windows;10;undefined;undefined;1366 x 768;1366 x 768
H033;32;Vrouwelijk;Rechts;3;122;right;yes;350;undefined;null;true;focus;yes;753058;Chrome;112.0;Windows;10;undefined;undefined;1366 x 768;1366 x 768
H033;32;Vrouwelijk;Rechts;3;123;left;no;400;leftarrow;522;true;focus;yes;754365;Chrome;112.0;Windows;10;undefined;undefined;1366 x 768;1366 x 768
H033;32;Vrouwelijk;Rechts;3;124;right;no;400;rightarrow;900;true;focus;yes;756056;Chrome;112.0;Windows;10;undefined;undefined;1366 x 768;1366 x 768
H033;32;Vrouwelijk;Rechts;3;125;right;no;400;rightarrow;938;true;focus;yes;757779;Chrome;112.0;Windows;10;undefined;undefined;1366 x 768;1366 x 768
H033;32;Vrouwelijk;Rechts;3;126;left;yes;400;undefined;null;true;focus;yes;759808;Chrome;112.0;Windows;10;undefined;undefined;1366 x 768;1366 x 768
H033;32;Vrouwelijk;Rechts;3;127;left;no;450;leftarrow;627;true;focus;yes;761220;Chrome;112.0;Windows;10;undefined;undefined;1366 x 768;1366 x 768
H033;32;Vrouwelijk;Rechts;3;128;right;no;450;rightarrow;766;true;focus;yes;762766;Chrome;112.0;Windows;10;undefined;undefined;1366 x 768;1366 x 768
H033;32;Vrouwelijk;Rechts;4;1;left;no;450;leftarrow;547;true;focus;yes;782252;Chrome;112.0;Windows;10;undefined;undefined;1366 x 768;1366 x 768
H033;32;Vrouwelijk;Rechts;4;2;left;yes;450;leftarrow;578;false;focus;yes;783614;Chrome;112.0;Windows;10;undefined;undefined;1366 x 768;1366 x 768
H033;32;Vrouwelijk;Rechts;4;3;left;no;400;leftarrow;753;true;focus;yes;785179;Chrome;112.0;Windows;10;undefined;undefined;1366 x 768;1366 x 768
H033;32;Vrouwelijk;Rechts;4;4;left;no;400;leftarrow;601;true;focus;yes;786574;Chrome;112.0;Windows;10;undefined;undefined;1366 x 768;1366 x 768
H033;32;Vrouwelijk;Rechts;4;5;right;yes;400;undefined;null;true;focus;yes;788625;Chrome;112.0;Windows;10;undefined;undefined;1366 x 768;1366 x 768
H033;32;Vrouwelijk;Rechts;4;6;right;no;450;rightarrow;608;true;focus;yes;790020;Chrome;112.0;Windows;10;undefined;undefined;1366 x 768;1366 x 768
H033;32;Vrouwelijk;Rechts;4;7;right;no;450;rightarrow;633;true;focus;yes;791464;Chrome;112.0;Windows;10;undefined;undefined;1366 x 768;1366 x 768
H033;32;Vrouwelijk;Rechts;4;8;right;no;450;rightarrow;790;true;focus;yes;793047;Chrome;112.0;Windows;10;undefined;undefined;1366 x 768;1366 x 768
H033;32;Vrouwelijk;Rechts;4;9;left;no;450;leftarrow;740;true;focus;yes;794573;Chrome;112.0;Windows;10;undefined;undefined;1366 x 768;1366 x 768
H033;32;Vrouwelijk;Rechts;4;10;right;no;450;rightarrow;990;true;focus;yes;796354;Chrome;112.0;Windows;10;undefined;undefined;1366 x 768;1366 x 768
H033;32;Vrouwelijk;Rechts;4;11;left;no;450;leftarrow;738;true;focus;yes;797882;Chrome;112.0;Windows;10;undefined;undefined;1366 x 768;1366 x 768
H033;32;Vrouwelijk;Rechts;4;12;left;yes;450;undefined;null;true;focus;yes;799938;Chrome;112.0;Windows;10;undefined;undefined;1366 x 768;1366 x 768
H033;32;Vrouwelijk;Rechts;4;13;right;yes;500;rightarrow;517;false;focus;yes;801240;Chrome;112.0;Windows;10;undefined;undefined;1366 x 768;1366 x 768
H033;32;Vrouwelijk;Rechts;4;14;right;no;450;rightarrow;820;true;focus;yes;802853;Chrome;112.0;Windows;10;undefined;undefined;1366 x 768;1366 x 768
H033;32;Vrouwelijk;Rechts;4;15;right;no;450;rightarrow;787;true;focus;yes;804431;Chrome;112.0;Windows;10;undefined;undefined;1366 x 768;1366 x 768
H033;32;Vrouwelijk;Rechts;4;16;left;no;450;leftarrow;766;true;focus;yes;805991;Chrome;112.0;Windows;10;undefined;undefined;1366 x 768;1366 x 768
H033;32;Vrouwelijk;Rechts;4;17;left;no;450;leftarrow;740;true;focus;yes;807511;Chrome;112.0;Windows;10;undefined;undefined;1366 x 768;1366 x 768
H033;32;Vrouwelijk;Rechts;4;18;left;no;450;leftarrow;803;true;focus;yes;809104;Chrome;112.0;Windows;10;undefined;undefined;1366 x 768;1366 x 768
H033;32;Vrouwelijk;Rechts;4;19;right;yes;450;undefined;null;true;focus;yes;811156;Chrome;112.0;Windows;10;undefined;undefined;1366 x 768;1366 x 768
H033;32;Vrouwelijk;Rechts;4;20;left;no;500;leftarrow;585;true;focus;yes;812526;Chrome;112.0;Windows;10;undefined;undefined;1366 x 768;1366 x 768
H033;32;Vrouwelijk;Rechts;4;21;right;no;500;rightarrow;835;true;focus;yes;814154;Chrome;112.0;Windows;10;undefined;undefined;1366 x 768;1366 x 768
H033;32;Vrouwelijk;Rechts;4;22;right;no;500;rightarrow;910;true;focus;yes;815853;Chrome;112.0;Windows;10;undefined;undefined;1366 x 768;1366 x 768
H033;32;Vrouwelijk;Rechts;4;23;left;yes;500;leftarrow;750;false;focus;yes;817394;Chrome;112.0;Windows;10;undefined;undefined;1366 x 768;1366 x 768
H033;32;Vrouwelijk;Rechts;4;24;right;no;450;rightarrow;686;true;focus;yes;818863;Chrome;112.0;Windows;10;undefined;undefined;1366 x 768;1366 x 768
H033;32;Vrouwelijk;Rechts;4;25;left;yes;450;undefined;null;true;focus;yes;820937;Chrome;112.0;Windows;10;undefined;undefined;1366 x 768;1366 x 768
H033;32;Vrouwelijk;Rechts;4;26;right;no;500;rightarrow;552;true;focus;yes;822291;Chrome;112.0;Windows;10;undefined;undefined;1366 x 768;1366 x 768
H033;32;Vrouwelijk;Rechts;4;27;right;no;500;rightarrow;615;true;focus;yes;823698;Chrome;112.0;Windows;10;undefined;undefined;1366 x 768;1366 x 768
H033;32;Vrouwelijk;Rechts;4;28;left;no;500;leftarrow;608;true;focus;yes;825097;Chrome;112.0;Windows;10;undefined;undefined;1366 x 768;1366 x 768
H033;32;Vrouwelijk;Rechts;4;29;left;no;500;leftarrow;531;true;focus;yes;826409;Chrome;112.0;Windows;10;undefined;undefined;1366 x 768;1366 x 768
H033;32;Vrouwelijk;Rechts;4;30;right;yes;500;rightarrow;603;false;focus;yes;827795;Chrome;112.0;Windows;10;undefined;undefined;1366 x 768;1366 x 768
H033;32;Vrouwelijk;Rechts;4;31;right;no;450;rightarrow;933;true;focus;yes;829516;Chrome;112.0;Windows;10;undefined;undefined;1366 x 768;1366 x 768
H033;32;Vrouwelijk;Rechts;4;32;left;no;450;leftarrow;766;true;focus;yes;831068;Chrome;112.0;Windows;10;undefined;undefined;1366 x 768;1366 x 768
H033;32;Vrouwelijk;Rechts;4;33;right;no;450;rightarrow;927;true;focus;yes;832775;Chrome;112.0;Windows;10;undefined;undefined;1366 x 768;1366 x 768
H033;32;Vrouwelijk;Rechts;4;34;left;no;450;leftarrow;757;true;focus;yes;834308;Chrome;112.0;Windows;10;undefined;undefined;1366 x 768;1366 x 768
H033;32;Vrouwelijk;Rechts;4;35;right;no;450;rightarrow;1034;true;focus;yes;836133;Chrome;112.0;Windows;10;undefined;undefined;1366 x 768;1366 x 768
H033;32;Vrouwelijk;Rechts;4;36;left;no;450;leftarrow;878;true;focus;yes;837803;Chrome;112.0;Windows;10;undefined;undefined;1366 x 768;1366 x 768
H033;32;Vrouwelijk;Rechts;4;37;right;yes;450;undefined;null;true;focus;yes;839844;Chrome;112.0;Windows;10;undefined;undefined;1366 x 768;1366 x 768
H033;32;Vrouwelijk;Rechts;4;38;right;no;500;rightarrow;554;true;focus;yes;841184;Chrome;112.0;Windows;10;undefined;undefined;1366 x 768;1366 x 768
H033;32;Vrouwelijk;Rechts;4;39;left;yes;500;leftarrow;776;false;focus;yes;842752;Chrome;112.0;Windows;10;undefined;undefined;1366 x 768;1366 x 768
H033;32;Vrouwelijk;Rechts;4;40;left;no;450;leftarrow;1049;true;focus;yes;844600;Chrome;112.0;Windows;10;undefined;undefined;1366 x 768;1366 x 768
H033;32;Vrouwelijk;Rechts;4;41;right;yes;450;undefined;null;true;focus;yes;846640;Chrome;112.0;Windows;10;undefined;undefined;1366 x 768;1366 x 768
H033;32;Vrouwelijk;Rechts;4;42;right;no;500;rightarrow;687;true;focus;yes;848129;Chrome;112.0;Windows;10;undefined;undefined;1366 x 768;1366 x 768
H033;32;Vrouwelijk;Rechts;4;43;left;yes;500;leftarrow;591;false;focus;yes;849502;Chrome;112.0;Windows;10;undefined;undefined;1366 x 768;1366 x 768
H033;32;Vrouwelijk;Rechts;4;44;left;no;450;leftarrow;989;true;focus;yes;851274;Chrome;112.0;Windows;10;undefined;undefined;1366 x 768;1366 x 768
H033;32;Vrouwelijk;Rechts;4;45;left;no;450;leftarrow;1124;true;focus;yes;853191;Chrome;112.0;Windows;10;undefined;undefined;1366 x 768;1366 x 768
H033;32;Vrouwelijk;Rechts;4;46;right;no;450;rightarrow;794;true;focus;yes;854766;Chrome;112.0;Windows;10;undefined;undefined;1366 x 768;1366 x 768
H033;32;Vrouwelijk;Rechts;4;47;left;no;450;leftarrow;672;true;focus;yes;856223;Chrome;112.0;Windows;10;undefined;undefined;1366 x 768;1366 x 768
H033;32;Vrouwelijk;Rechts;4;48;right;no;450;rightarrow;720;true;focus;yes;857723;Chrome;112.0;Windows;10;undefined;undefined;1366 x 768;1366 x 768
H033;32;Vrouwelijk;Rechts;4;49;left;no;450;leftarrow;805;true;focus;yes;859309;Chrome;112.0;Windows;10;undefined;undefined;1366 x 768;1366 x 768
H033;32;Vrouwelijk;Rechts;4;50;left;no;450;leftarrow;714;true;focus;yes;860828;Chrome;112.0;Windows;10;undefined;undefined;1366 x 768;1366 x 768
H033;32;Vrouwelijk;Rechts;4;51;right;no;450;rightarrow;824;true;focus;yes;862442;Chrome;112.0;Windows;10;undefined;undefined;1366 x 768;1366 x 768
H033;32;Vrouwelijk;Rechts;4;52;right;yes;450;rightarrow;773;false;focus;yes;863997;Chrome;112.0;Windows;10;undefined;undefined;1366 x 768;1366 x 768
H033;32;Vrouwelijk;Rechts;4;53;left;yes;400;leftarrow;610;false;focus;yes;865396;Chrome;112.0;Windows;10;undefined;undefined;1366 x 768;1366 x 768
H033;32;Vrouwelijk;Rechts;4;54;right;no;350;undefined;null;false;focus;yes;867469;Chrome;112.0;Windows;10;undefined;undefined;1366 x 768;1366 x 768
H033;32;Vrouwelijk;Rechts;4;55;right;no;350;rightarrow;461;true;focus;yes;868730;Chrome;112.0;Windows;10;undefined;undefined;1366 x 768;1366 x 768
H033;32;Vrouwelijk;Rechts;4;56;left;no;350;leftarrow;637;true;focus;yes;870156;Chrome;112.0;Windows;10;undefined;undefined;1366 x 768;1366 x 768
H033;32;Vrouwelijk;Rechts;4;57;left;no;350;leftarrow;898;true;focus;yes;871840;Chrome;112.0;Windows;10;undefined;undefined;1366 x 768;1366 x 768
H033;32;Vrouwelijk;Rechts;4;58;left;no;350;leftarrow;853;true;focus;yes;873480;Chrome;112.0;Windows;10;undefined;undefined;1366 x 768;1366 x 768
H033;32;Vrouwelijk;Rechts;4;59;left;no;350;leftarrow;603;true;focus;yes;874872;Chrome;112.0;Windows;10;undefined;undefined;1366 x 768;1366 x 768
H033;32;Vrouwelijk;Rechts;4;60;left;yes;350;leftarrow;589;false;focus;yes;876250;Chrome;112.0;Windows;10;undefined;undefined;1366 x 768;1366 x 768
H033;32;Vrouwelijk;Rechts;4;61;right;yes;300;undefined;null;true;focus;yes;878298;Chrome;112.0;Windows;10;undefined;undefined;1366 x 768;1366 x 768
H033;32;Vrouwelijk;Rechts;4;62;right;no;350;undefined;null;false;focus;yes;880343;Chrome;112.0;Windows;10;undefined;undefined;1366 x 768;1366 x 768
H033;32;Vrouwelijk;Rechts;4;63;right;no;350;rightarrow;962;true;focus;yes;882093;Chrome;112.0;Windows;10;undefined;undefined;1366 x 768;1366 x 768
H033;32;Vrouwelijk;Rechts;4;64;right;no;350;rightarrow;895;true;focus;yes;883774;Chrome;112.0;Windows;10;undefined;undefined;1366 x 768;1366 x 768
H033;32;Vrouwelijk;Rechts;4;65;right;no;350;rightarrow;741;true;focus;yes;885307;Chrome;112.0;Windows;10;undefined;undefined;1366 x 768;1366 x 768
H033;32;Vrouwelijk;Rechts;4;66;right;yes;350;undefined;null;true;focus;yes;887390;Chrome;112.0;Windows;10;undefined;undefined;1366 x 768;1366 x 768
H033;32;Vrouwelijk;Rechts;4;67;left;no;400;leftarrow;615;true;focus;yes;888806;Chrome;112.0;Windows;10;undefined;undefined;1366 x 768;1366 x 768
H033;32;Vrouwelijk;Rechts;4;68;right;no;400;rightarrow;696;true;focus;yes;890294;Chrome;112.0;Windows;10;undefined;undefined;1366 x 768;1366 x 768
H033;32;Vrouwelijk;Rechts;4;69;left;no;400;leftarrow;969;true;focus;yes;892054;Chrome;112.0;Windows;10;undefined;undefined;1366 x 768;1366 x 768
H033;32;Vrouwelijk;Rechts;4;70;left;yes;400;undefined;null;true;focus;yes;894109;Chrome;112.0;Windows;10;undefined;undefined;1366 x 768;1366 x 768
H033;32;Vrouwelijk;Rechts;4;71;left;no;450;leftarrow;538;true;focus;yes;895450;Chrome;112.0;Windows;10;undefined;undefined;1366 x 768;1366 x 768
H033;32;Vrouwelijk;Rechts;4;72;right;no;450;rightarrow;699;true;focus;yes;896936;Chrome;112.0;Windows;10;undefined;undefined;1366 x 768;1366 x 768
H033;32;Vrouwelijk;Rechts;4;73;right;no;450;rightarrow;1046;true;focus;yes;898769;Chrome;112.0;Windows;10;undefined;undefined;1366 x 768;1366 x 768
H033;32;Vrouwelijk;Rechts;4;74;right;no;450;rightarrow;867;true;focus;yes;900419;Chrome;112.0;Windows;10;undefined;undefined;1366 x 768;1366 x 768
H033;32;Vrouwelijk;Rechts;4;75;left;yes;450;undefined;null;true;focus;yes;902468;Chrome;112.0;Windows;10;undefined;undefined;1366 x 768;1366 x 768
H033;32;Vrouwelijk;Rechts;4;76;left;no;500;leftarrow;541;true;focus;yes;903794;Chrome;112.0;Windows;10;undefined;undefined;1366 x 768;1366 x 768
H033;32;Vrouwelijk;Rechts;4;77;left;no;500;leftarrow;870;true;focus;yes;905453;Chrome;112.0;Windows;10;undefined;undefined;1366 x 768;1366 x 768
H033;32;Vrouwelijk;Rechts;4;78;right;no;500;rightarrow;849;true;focus;yes;907087;Chrome;112.0;Windows;10;undefined;undefined;1366 x 768;1366 x 768
H033;32;Vrouwelijk;Rechts;4;79;right;yes;500;undefined;null;true;focus;yes;909140;Chrome;112.0;Windows;10;undefined;undefined;1366 x 768;1366 x 768
H033;32;Vrouwelijk;Rechts;4;80;left;no;550;leftarrow;520;true;focus;yes;910446;Chrome;112.0;Windows;10;undefined;undefined;1366 x 768;1366 x 768
H033;32;Vrouwelijk;Rechts;4;81;left;yes;550;undefined;null;true;focus;yes;912499;Chrome;112.0;Windows;10;undefined;undefined;1366 x 768;1366 x 768
H033;32;Vrouwelijk;Rechts;4;82;right;no;600;rightarrow;605;true;focus;yes;913890;Chrome;112.0;Windows;10;undefined;undefined;1366 x 768;1366 x 768
H033;32;Vrouwelijk;Rechts;4;83;right;yes;600;rightarrow;647;false;focus;yes;915322;Chrome;112.0;Windows;10;undefined;undefined;1366 x 768;1366 x 768
H033;32;Vrouwelijk;Rechts;4;84;right;no;550;rightarrow;619;true;focus;yes;916731;Chrome;112.0;Windows;10;undefined;undefined;1366 x 768;1366 x 768
H033;32;Vrouwelijk;Rechts;4;85;left;no;550;leftarrow;910;true;focus;yes;918429;Chrome;112.0;Windows;10;undefined;undefined;1366 x 768;1366 x 768
H033;32;Vrouwelijk;Rechts;4;86;right;no;550;rightarrow;767;true;focus;yes;919974;Chrome;112.0;Windows;10;undefined;undefined;1366 x 768;1366 x 768
H033;32;Vrouwelijk;Rechts;4;87;left;no;550;leftarrow;737;true;focus;yes;921492;Chrome;112.0;Windows;10;undefined;undefined;1366 x 768;1366 x 768
H033;32;Vrouwelijk;Rechts;4;88;left;no;550;leftarrow;920;true;focus;yes;923222;Chrome;112.0;Windows;10;undefined;undefined;1366 x 768;1366 x 768
H033;32;Vrouwelijk;Rechts;4;89;right;no;550;rightarrow;694;true;focus;yes;924705;Chrome;112.0;Windows;10;undefined;undefined;1366 x 768;1366 x 768
H033;32;Vrouwelijk;Rechts;4;90;left;yes;550;leftarrow;689;false;focus;yes;926179;Chrome;112.0;Windows;10;undefined;undefined;1366 x 768;1366 x 768
H033;32;Vrouwelijk;Rechts;4;91;right;no;500;rightarrow;930;true;focus;yes;927887;Chrome;112.0;Windows;10;undefined;undefined;1366 x 768;1366 x 768
H033;32;Vrouwelijk;Rechts;4;92;left;no;500;leftarrow;956;true;focus;yes;929648;Chrome;112.0;Windows;10;undefined;undefined;1366 x 768;1366 x 768
H033;32;Vrouwelijk;Rechts;4;93;left;no;500;leftarrow;840;true;focus;yes;931272;Chrome;112.0;Windows;10;undefined;undefined;1366 x 768;1366 x 768
H033;32;Vrouwelijk;Rechts;4;94;right;yes;500;rightarrow;725;false;focus;yes;932773;Chrome;112.0;Windows;10;undefined;undefined;1366 x 768;1366 x 768
H033;32;Vrouwelijk;Rechts;4;95;left;no;450;leftarrow;804;true;focus;yes;934370;Chrome;112.0;Windows;10;undefined;undefined;1366 x 768;1366 x 768
H033;32;Vrouwelijk;Rechts;4;96;right;no;450;rightarrow;791;true;focus;yes;935968;Chrome;112.0;Windows;10;undefined;undefined;1366 x 768;1366 x 768
H033;32;Vrouwelijk;Rechts;4;97;left;no;450;leftarrow;1192;true;focus;yes;937946;Chrome;112.0;Windows;10;undefined;undefined;1366 x 768;1366 x 768
H033;32;Vrouwelijk;Rechts;4;98;left;no;450;leftarrow;1158;true;focus;yes;939896;Chrome;112.0;Windows;10;undefined;undefined;1366 x 768;1366 x 768
H033;32;Vrouwelijk;Rechts;4;99;right;no;450;rightarrow;779;true;focus;yes;941455;Chrome;112.0;Windows;10;undefined;undefined;1366 x 768;1366 x 768
H033;32;Vrouwelijk;Rechts;4;100;right;no;450;rightarrow;797;true;focus;yes;943034;Chrome;112.0;Windows;10;undefined;undefined;1366 x 768;1366 x 768
H033;32;Vrouwelijk;Rechts;4;101;left;yes;450;undefined;null;true;focus;yes;945079;Chrome;112.0;Windows;10;undefined;undefined;1366 x 768;1366 x 768
H033;32;Vrouwelijk;Rechts;4;102;right;yes;500;rightarrow;535;false;focus;yes;946413;Chrome;112.0;Windows;10;undefined;undefined;1366 x 768;1366 x 768
H033;32;Vrouwelijk;Rechts;4;103;right;no;450;rightarrow;938;true;focus;yes;948128;Chrome;112.0;Windows;10;undefined;undefined;1366 x 768;1366 x 768
H033;32;Vrouwelijk;Rechts;4;104;left;no;450;leftarrow;700;true;focus;yes;949609;Chrome;112.0;Windows;10;undefined;undefined;1366 x 768;1366 x 768
H033;32;Vrouwelijk;Rechts;4;105;left;no;450;leftarrow;730;true;focus;yes;951124;Chrome;112.0;Windows;10;undefined;undefined;1366 x 768;1366 x 768
H033;32;Vrouwelijk;Rechts;4;106;right;no;450;rightarrow;766;true;focus;yes;952675;Chrome;112.0;Windows;10;undefined;undefined;1366 x 768;1366 x 768
H033;32;Vrouwelijk;Rechts;4;107;left;yes;450;undefined;null;true;focus;yes;954717;Chrome;112.0;Windows;10;undefined;undefined;1366 x 768;1366 x 768
H033;32;Vrouwelijk;Rechts;4;108;right;yes;500;rightarrow;565;false;focus;yes;956068;Chrome;112.0;Windows;10;undefined;undefined;1366 x 768;1366 x 768
H033;32;Vrouwelijk;Rechts;4;109;right;no;450;rightarrow;827;true;focus;yes;957673;Chrome;112.0;Windows;10;undefined;undefined;1366 x 768;1366 x 768
H033;32;Vrouwelijk;Rechts;4;110;left;no;450;leftarrow;908;true;focus;yes;959366;Chrome;112.0;Windows;10;undefined;undefined;1366 x 768;1366 x 768
H033;32;Vrouwelijk;Rechts;4;111;right;no;450;rightarrow;740;true;focus;yes;960901;Chrome;112.0;Windows;10;undefined;undefined;1366 x 768;1366 x 768
H033;32;Vrouwelijk;Rechts;4;112;left;no;450;leftarrow;810;true;focus;yes;962502;Chrome;112.0;Windows;10;undefined;undefined;1366 x 768;1366 x 768
H033;32;Vrouwelijk;Rechts;4;113;right;no;450;rightarrow;1012;true;focus;yes;964321;Chrome;112.0;Windows;10;undefined;undefined;1366 x 768;1366 x 768
H033;32;Vrouwelijk;Rechts;4;114;left;no;450;leftarrow;862;true;focus;yes;965969;Chrome;112.0;Windows;10;undefined;undefined;1366 x 768;1366 x 768
H033;32;Vrouwelijk;Rechts;4;115;left;no;450;leftarrow;828;true;focus;yes;967590;Chrome;112.0;Windows;10;undefined;undefined;1366 x 768;1366 x 768
H033;32;Vrouwelijk;Rechts;4;116;right;yes;450;undefined;null;true;focus;yes;969647;Chrome;112.0;Windows;10;undefined;undefined;1366 x 768;1366 x 768
H033;32;Vrouwelijk;Rechts;4;117;right;no;500;rightarrow;874;true;focus;yes;971323;Chrome;112.0;Windows;10;undefined;undefined;1366 x 768;1366 x 768
H033;32;Vrouwelijk;Rechts;4;118;left;yes;500;undefined;null;true;focus;yes;973366;Chrome;112.0;Windows;10;undefined;undefined;1366 x 768;1366 x 768
H033;32;Vrouwelijk;Rechts;4;119;left;no;550;leftarrow;555;true;focus;yes;974708;Chrome;112.0;Windows;10;undefined;undefined;1366 x 768;1366 x 768
H033;32;Vrouwelijk;Rechts;4;120;right;no;550;rightarrow;617;true;focus;yes;976144;Chrome;112.0;Windows;10;undefined;undefined;1366 x 768;1366 x 768
H033;32;Vrouwelijk;Rechts;4;121;left;no;550;leftarrow;832;true;focus;yes;977780;Chrome;112.0;Windows;10;undefined;undefined;1366 x 768;1366 x 768
H033;32;Vrouwelijk;Rechts;4;122;left;yes;550;leftarrow;839;false;focus;yes;979398;Chrome;112.0;Windows;10;undefined;undefined;1366 x 768;1366 x 768
H033;32;Vrouwelijk;Rechts;4;123;right;no;500;rightarrow;826;true;focus;yes;981010;Chrome;112.0;Windows;10;undefined;undefined;1366 x 768;1366 x 768
H033;32;Vrouwelijk;Rechts;4;124;left;no;500;leftarrow;959;true;focus;yes;982751;Chrome;112.0;Windows;10;undefined;undefined;1366 x 768;1366 x 768
H033;32;Vrouwelijk;Rechts;4;125;right;no;500;rightarrow;699;true;focus;yes;984227;Chrome;112.0;Windows;10;undefined;undefined;1366 x 768;1366 x 768
H033;32;Vrouwelijk;Rechts;4;126;right;yes;500;undefined;null;true;focus;yes;986272;Chrome;112.0;Windows;10;undefined;undefined;1366 x 768;1366 x 768
H033;32;Vrouwelijk;Rechts;4;127;left;no;550;leftarrow;598;true;focus;yes;987656;Chrome;112.0;Windows;10;undefined;undefined;1366 x 768;1366 x 768
H033;32;Vrouwelijk;Rechts;4;128;right;no;550;rightarrow;1025;true;focus;yes;989474;Chrome;112.0;Windows;10;undefined;undefined;1366 x 768;1366 x 768
H033;32;Vrouwelijk;Rechts;5;1;right;no;550;rightarrow;563;true;focus;yes;1008779;Chrome;112.0;Windows;10;undefined;undefined;1366 x 768;1366 x 768
H033;32;Vrouwelijk;Rechts;5;2;right;no;550;rightarrow;512;true;focus;yes;1010074;Chrome;112.0;Windows;10;undefined;undefined;1366 x 768;1366 x 768
H033;32;Vrouwelijk;Rechts;5;3;left;no;550;leftarrow;603;true;focus;yes;1011460;Chrome;112.0;Windows;10;undefined;undefined;1366 x 768;1366 x 768
H033;32;Vrouwelijk;Rechts;5;4;right;no;550;rightarrow;685;true;focus;yes;1012931;Chrome;112.0;Windows;10;undefined;undefined;1366 x 768;1366 x 768
H033;32;Vrouwelijk;Rechts;5;5;left;no;550;leftarrow;634;true;focus;yes;1014351;Chrome;112.0;Windows;10;undefined;undefined;1366 x 768;1366 x 768
H033;32;Vrouwelijk;Rechts;5;6;right;yes;550;rightarrow;781;false;focus;yes;1015919;Chrome;112.0;Windows;10;undefined;undefined;1366 x 768;1366 x 768
H033;32;Vrouwelijk;Rechts;5;7;left;yes;500;leftarrow;757;false;focus;yes;1017456;Chrome;112.0;Windows;10;undefined;undefined;1366 x 768;1366 x 768
H033;32;Vrouwelijk;Rechts;5;8;left;no;450;leftarrow;826;true;focus;yes;1019071;Chrome;112.0;Windows;10;undefined;undefined;1366 x 768;1366 x 768
H033;32;Vrouwelijk;Rechts;5;9;left;no;450;leftarrow;725;true;focus;yes;1020597;Chrome;112.0;Windows;10;undefined;undefined;1366 x 768;1366 x 768
H033;32;Vrouwelijk;Rechts;5;10;right;no;450;rightarrow;852;true;focus;yes;1022238;Chrome;112.0;Windows;10;undefined;undefined;1366 x 768;1366 x 768
H033;32;Vrouwelijk;Rechts;5;11;right;yes;450;rightarrow;519;false;focus;yes;1023553;Chrome;112.0;Windows;10;undefined;undefined;1366 x 768;1366 x 768
H033;32;Vrouwelijk;Rechts;5;12;left;no;400;leftarrow;986;true;focus;yes;1025319;Chrome;112.0;Windows;10;undefined;undefined;1366 x 768;1366 x 768
H033;32;Vrouwelijk;Rechts;5;13;right;no;400;rightarrow;887;true;focus;yes;1026985;Chrome;112.0;Windows;10;undefined;undefined;1366 x 768;1366 x 768
H033;32;Vrouwelijk;Rechts;5;14;right;no;400;rightarrow;745;true;focus;yes;1028516;Chrome;112.0;Windows;10;undefined;undefined;1366 x 768;1366 x 768
H033;32;Vrouwelijk;Rechts;5;15;left;no;400;leftarrow;746;true;focus;yes;1030049;Chrome;112.0;Windows;10;undefined;undefined;1366 x 768;1366 x 768
H033;32;Vrouwelijk;Rechts;5;16;left;yes;400;undefined;null;true;focus;yes;1032094;Chrome;112.0;Windows;10;undefined;undefined;1366 x 768;1366 x 768
H033;32;Vrouwelijk;Rechts;5;17;right;yes;450;rightarrow;652;false;focus;yes;1033532;Chrome;112.0;Windows;10;undefined;undefined;1366 x 768;1366 x 768
H033;32;Vrouwelijk;Rechts;5;18;right;no;400;rightarrow;666;true;focus;yes;1034984;Chrome;112.0;Windows;10;undefined;undefined;1366 x 768;1366 x 768
H033;32;Vrouwelijk;Rechts;5;19;left;no;400;leftarrow;862;true;focus;yes;1036633;Chrome;112.0;Windows;10;undefined;undefined;1366 x 768;1366 x 768
H033;32;Vrouwelijk;Rechts;5;20;left;no;400;leftarrow;810;true;focus;yes;1038236;Chrome;112.0;Windows;10;undefined;undefined;1366 x 768;1366 x 768
H033;32;Vrouwelijk;Rechts;5;21;right;no;400;rightarrow;921;true;focus;yes;1039959;Chrome;112.0;Windows;10;undefined;undefined;1366 x 768;1366 x 768
H033;32;Vrouwelijk;Rechts;5;22;left;no;400;leftarrow;939;true;focus;yes;1041685;Chrome;112.0;Windows;10;undefined;undefined;1366 x 768;1366 x 768
H033;32;Vrouwelijk;Rechts;5;23;left;yes;400;undefined;null;true;focus;yes;1043742;Chrome;112.0;Windows;10;undefined;undefined;1366 x 768;1366 x 768
H033;32;Vrouwelijk;Rechts;5;24;right;no;450;rightarrow;882;true;focus;yes;1045405;Chrome;112.0;Windows;10;undefined;undefined;1366 x 768;1366 x 768
H033;32;Vrouwelijk;Rechts;5;25;right;yes;450;undefined;null;true;focus;yes;1047453;Chrome;112.0;Windows;10;undefined;undefined;1366 x 768;1366 x 768
H033;32;Vrouwelijk;Rechts;5;26;left;no;500;leftarrow;768;true;focus;yes;1049007;Chrome;112.0;Windows;10;undefined;undefined;1366 x 768;1366 x 768
H033;32;Vrouwelijk;Rechts;5;27;right;no;500;rightarrow;745;true;focus;yes;1050530;Chrome;112.0;Windows;10;undefined;undefined;1366 x 768;1366 x 768
H033;32;Vrouwelijk;Rechts;5;28;right;no;500;rightarrow;890;true;focus;yes;1052207;Chrome;112.0;Windows;10;undefined;undefined;1366 x 768;1366 x 768
H033;32;Vrouwelijk;Rechts;5;29;left;no;500;leftarrow;795;true;focus;yes;1053784;Chrome;112.0;Windows;10;undefined;undefined;1366 x 768;1366 x 768
H033;32;Vrouwelijk;Rechts;5;30;right;no;500;rightarrow;897;true;focus;yes;1055468;Chrome;112.0;Windows;10;undefined;undefined;1366 x 768;1366 x 768
H033;32;Vrouwelijk;Rechts;5;31;left;yes;500;undefined;null;true;focus;yes;1057514;Chrome;112.0;Windows;10;undefined;undefined;1366 x 768;1366 x 768
H033;32;Vrouwelijk;Rechts;5;32;left;no;550;leftarrow;749;true;focus;yes;1059049;Chrome;112.0;Windows;10;undefined;undefined;1366 x 768;1366 x 768
H033;32;Vrouwelijk;Rechts;5;33;right;yes;550;undefined;null;true;focus;yes;1061093;Chrome;112.0;Windows;10;undefined;undefined;1366 x 768;1366 x 768
H033;32;Vrouwelijk;Rechts;5;34;right;no;600;rightarrow;790;true;focus;yes;1062684;Chrome;112.0;Windows;10;undefined;undefined;1366 x 768;1366 x 768
H033;32;Vrouwelijk;Rechts;5;35;left;yes;600;undefined;null;true;focus;yes;1064733;Chrome;112.0;Windows;10;undefined;undefined;1366 x 768;1366 x 768
H033;32;Vrouwelijk;Rechts;5;36;right;no;650;rightarrow;725;true;focus;yes;1066242;Chrome;112.0;Windows;10;undefined;undefined;1366 x 768;1366 x 768
H033;32;Vrouwelijk;Rechts;5;37;left;no;650;undefined;null;false;focus;yes;1068296;Chrome;112.0;Windows;10;undefined;undefined;1366 x 768;1366 x 768
H033;32;Vrouwelijk;Rechts;5;38;left;no;650;leftarrow;806;true;focus;yes;1069890;Chrome;112.0;Windows;10;undefined;undefined;1366 x 768;1366 x 768
H033;32;Vrouwelijk;Rechts;5;39;left;no;650;leftarrow;992;true;focus;yes;1071668;Chrome;112.0;Windows;10;undefined;undefined;1366 x 768;1366 x 768
H033;32;Vrouwelijk;Rechts;5;40;right;no;650;rightarrow;792;true;focus;yes;1073250;Chrome;112.0;Windows;10;undefined;undefined;1366 x 768;1366 x 768
H033;32;Vrouwelijk;Rechts;5;41;left;no;650;leftarrow;997;true;focus;yes;1075032;Chrome;112.0;Windows;10;undefined;undefined;1366 x 768;1366 x 768
H033;32;Vrouwelijk;Rechts;5;42;left;no;650;undefined;null;false;focus;yes;1077079;Chrome;112.0;Windows;10;undefined;undefined;1366 x 768;1366 x 768
H033;32;Vrouwelijk;Rechts;5;43;right;no;650;rightarrow;1031;true;focus;yes;1078896;Chrome;112.0;Windows;10;undefined;undefined;1366 x 768;1366 x 768
H033;32;Vrouwelijk;Rechts;5;44;left;yes;650;undefined;null;true;focus;yes;1080936;Chrome;112.0;Windows;10;undefined;undefined;1366 x 768;1366 x 768
H033;32;Vrouwelijk;Rechts;5;45;right;no;700;rightarrow;855;true;focus;yes;1082579;Chrome;112.0;Windows;10;undefined;undefined;1366 x 768;1366 x 768
H033;32;Vrouwelijk;Rechts;5;46;right;no;700;rightarrow;1002;true;focus;yes;1084372;Chrome;112.0;Windows;10;undefined;undefined;1366 x 768;1366 x 768
H033;32;Vrouwelijk;Rechts;5;47;left;no;700;leftarrow;965;true;focus;yes;1086129;Chrome;112.0;Windows;10;undefined;undefined;1366 x 768;1366 x 768
H033;32;Vrouwelijk;Rechts;5;48;right;yes;700;rightarrow;1039;false;focus;yes;1087955;Chrome;112.0;Windows;10;undefined;undefined;1366 x 768;1366 x 768
H033;32;Vrouwelijk;Rechts;5;49;right;no;650;rightarrow;783;true;focus;yes;1089514;Chrome;112.0;Windows;10;undefined;undefined;1366 x 768;1366 x 768
H033;32;Vrouwelijk;Rechts;5;50;right;no;650;rightarrow;1014;true;focus;yes;1091321;Chrome;112.0;Windows;10;undefined;undefined;1366 x 768;1366 x 768
H033;32;Vrouwelijk;Rechts;5;51;right;no;650;rightarrow;790;true;focus;yes;1092896;Chrome;112.0;Windows;10;undefined;undefined;1366 x 768;1366 x 768
H033;32;Vrouwelijk;Rechts;5;52;right;yes;650;rightarrow;777;false;focus;yes;1094474;Chrome;112.0;Windows;10;undefined;undefined;1366 x 768;1366 x 768
H033;32;Vrouwelijk;Rechts;5;53;left;no;600;leftarrow;796;true;focus;yes;1096055;Chrome;112.0;Windows;10;undefined;undefined;1366 x 768;1366 x 768
H033;32;Vrouwelijk;Rechts;5;54;left;yes;600;undefined;null;true;focus;yes;1098097;Chrome;112.0;Windows;10;undefined;undefined;1366 x 768;1366 x 768
H033;32;Vrouwelijk;Rechts;5;55;left;no;650;leftarrow;681;true;focus;yes;1099565;Chrome;112.0;Windows;10;undefined;undefined;1366 x 768;1366 x 768
H033;32;Vrouwelijk;Rechts;5;56;left;no;650;leftarrow;1232;true;focus;yes;1101585;Chrome;112.0;Windows;10;undefined;undefined;1366 x 768;1366 x 768
H033;32;Vrouwelijk;Rechts;5;57;left;no;650;leftarrow;899;true;focus;yes;1103267;Chrome;112.0;Windows;10;undefined;undefined;1366 x 768;1366 x 768
H033;32;Vrouwelijk;Rechts;5;58;left;yes;650;leftarrow;778;false;focus;yes;1104834;Chrome;112.0;Windows;10;undefined;undefined;1366 x 768;1366 x 768
H033;32;Vrouwelijk;Rechts;5;59;right;no;600;rightarrow;956;true;focus;yes;1106572;Chrome;112.0;Windows;10;undefined;undefined;1366 x 768;1366 x 768
H033;32;Vrouwelijk;Rechts;5;60;right;no;600;undefined;null;false;focus;yes;1108614;Chrome;112.0;Windows;10;undefined;undefined;1366 x 768;1366 x 768
H033;32;Vrouwelijk;Rechts;5;61;right;no;600;rightarrow;535;true;focus;yes;1109933;Chrome;112.0;Windows;10;undefined;undefined;1366 x 768;1366 x 768
H033;32;Vrouwelijk;Rechts;5;62;right;yes;600;rightarrow;530;false;focus;yes;1111259;Chrome;112.0;Windows;10;undefined;undefined;1366 x 768;1366 x 768
H033;32;Vrouwelijk;Rechts;5;63;left;no;550;leftarrow;804;true;focus;yes;1112846;Chrome;112.0;Windows;10;undefined;undefined;1366 x 768;1366 x 768
H033;32;Vrouwelijk;Rechts;5;64;left;no;550;leftarrow;890;true;focus;yes;1114525;Chrome;112.0;Windows;10;undefined;undefined;1366 x 768;1366 x 768
H033;32;Vrouwelijk;Rechts;5;65;left;no;550;leftarrow;1032;true;focus;yes;1116335;Chrome;112.0;Windows;10;undefined;undefined;1366 x 768;1366 x 768
H033;32;Vrouwelijk;Rechts;5;66;right;no;550;rightarrow;861;true;focus;yes;1117980;Chrome;112.0;Windows;10;undefined;undefined;1366 x 768;1366 x 768
H033;32;Vrouwelijk;Rechts;5;67;right;no;550;rightarrow;1091;true;focus;yes;1119866;Chrome;112.0;Windows;10;undefined;undefined;1366 x 768;1366 x 768
H033;32;Vrouwelijk;Rechts;5;68;left;no;550;leftarrow;965;true;focus;yes;1121614;Chrome;112.0;Windows;10;undefined;undefined;1366 x 768;1366 x 768
H033;32;Vrouwelijk;Rechts;5;69;right;no;550;rightarrow;1097;true;focus;yes;1123496;Chrome;112.0;Windows;10;undefined;undefined;1366 x 768;1366 x 768
H033;32;Vrouwelijk;Rechts;5;70;left;yes;550;undefined;null;true;focus;yes;1125535;Chrome;112.0;Windows;10;undefined;undefined;1366 x 768;1366 x 768
H033;32;Vrouwelijk;Rechts;5;71;right;yes;600;undefined;null;true;focus;yes;1127597;Chrome;112.0;Windows;10;undefined;undefined;1366 x 768;1366 x 768
H033;32;Vrouwelijk;Rechts;5;72;left;no;650;leftarrow;898;true;focus;yes;1129312;Chrome;112.0;Windows;10;undefined;undefined;1366 x 768;1366 x 768
H033;32;Vrouwelijk;Rechts;5;73;right;no;650;rightarrow;1132;true;focus;yes;1131235;Chrome;112.0;Windows;10;undefined;undefined;1366 x 768;1366 x 768
H033;32;Vrouwelijk;Rechts;5;74;left;no;650;undefined;null;false;focus;yes;1133286;Chrome;112.0;Windows;10;undefined;undefined;1366 x 768;1366 x 768
H033;32;Vrouwelijk;Rechts;5;75;right;no;650;rightarrow;1054;true;focus;yes;1135125;Chrome;112.0;Windows;10;undefined;undefined;1366 x 768;1366 x 768
H033;32;Vrouwelijk;Rechts;5;76;left;no;650;leftarrow;1017;true;focus;yes;1136931;Chrome;112.0;Windows;10;undefined;undefined;1366 x 768;1366 x 768
H033;32;Vrouwelijk;Rechts;5;77;right;no;650;rightarrow;1047;true;focus;yes;1138759;Chrome;112.0;Windows;10;undefined;undefined;1366 x 768;1366 x 768
H033;32;Vrouwelijk;Rechts;5;78;left;no;650;leftarrow;1000;true;focus;yes;1140539;Chrome;112.0;Windows;10;undefined;undefined;1366 x 768;1366 x 768
H033;32;Vrouwelijk;Rechts;5;79;right;yes;650;undefined;null;true;focus;yes;1142594;Chrome;112.0;Windows;10;undefined;undefined;1366 x 768;1366 x 768
H033;32;Vrouwelijk;Rechts;5;80;left;yes;700;undefined;null;true;focus;yes;1144640;Chrome;112.0;Windows;10;undefined;undefined;1366 x 768;1366 x 768
H033;32;Vrouwelijk;Rechts;5;81;right;no;750;rightarrow;996;true;focus;yes;1146423;Chrome;112.0;Windows;10;undefined;undefined;1366 x 768;1366 x 768
H033;32;Vrouwelijk;Rechts;5;82;left;no;750;leftarrow;1039;true;focus;yes;1148245;Chrome;112.0;Windows;10;undefined;undefined;1366 x 768;1366 x 768
H033;32;Vrouwelijk;Rechts;5;83;left;no;750;leftarrow;1067;true;focus;yes;1150104;Chrome;112.0;Windows;10;undefined;undefined;1366 x 768;1366 x 768
H033;32;Vrouwelijk;Rechts;5;84;right;no;750;rightarrow;1202;true;focus;yes;1152097;Chrome;112.0;Windows;10;undefined;undefined;1366 x 768;1366 x 768
H033;32;Vrouwelijk;Rechts;5;85;right;yes;750;rightarrow;972;false;focus;yes;1153851;Chrome;112.0;Windows;10;undefined;undefined;1366 x 768;1366 x 768
H033;32;Vrouwelijk;Rechts;5;86;right;no;700;undefined;null;false;focus;yes;1155906;Chrome;112.0;Windows;10;undefined;undefined;1366 x 768;1366 x 768
H033;32;Vrouwelijk;Rechts;5;87;left;yes;700;leftarrow;609;false;focus;yes;1157301;Chrome;112.0;Windows;10;undefined;undefined;1366 x 768;1366 x 768
H033;32;Vrouwelijk;Rechts;5;88;left;no;650;leftarrow;651;true;focus;yes;1158735;Chrome;112.0;Windows;10;undefined;undefined;1366 x 768;1366 x 768
H033;32;Vrouwelijk;Rechts;5;89;left;no;650;leftarrow;1049;true;focus;yes;1160570;Chrome;112.0;Windows;10;undefined;undefined;1366 x 768;1366 x 768
H033;32;Vrouwelijk;Rechts;5;90;left;no;650;leftarrow;878;true;focus;yes;1162241;Chrome;112.0;Windows;10;undefined;undefined;1366 x 768;1366 x 768
H033;32;Vrouwelijk;Rechts;5;91;right;no;650;rightarrow;1074;true;focus;yes;1164095;Chrome;112.0;Windows;10;undefined;undefined;1366 x 768;1366 x 768
H033;32;Vrouwelijk;Rechts;5;92;left;no;650;leftarrow;718;true;focus;yes;1165598;Chrome;112.0;Windows;10;undefined;undefined;1366 x 768;1366 x 768
H033;32;Vrouwelijk;Rechts;5;93;right;yes;650;rightarrow;948;false;focus;yes;1167327;Chrome;112.0;Windows;10;undefined;undefined;1366 x 768;1366 x 768
H033;32;Vrouwelijk;Rechts;5;94;left;yes;600;undefined;null;true;focus;yes;1169374;Chrome;112.0;Windows;10;undefined;undefined;1366 x 768;1366 x 768
H033;32;Vrouwelijk;Rechts;5;95;right;no;650;rightarrow;906;true;focus;yes;1171067;Chrome;112.0;Windows;10;undefined;undefined;1366 x 768;1366 x 768
H033;32;Vrouwelijk;Rechts;5;96;right;no;650;rightarrow;864;true;focus;yes;1172714;Chrome;112.0;Windows;10;undefined;undefined;1366 x 768;1366 x 768
H033;32;Vrouwelijk;Rechts;5;97;left;no;650;leftarrow;1072;true;focus;yes;1174577;Chrome;112.0;Windows;10;undefined;undefined;1366 x 768;1366 x 768
H033;32;Vrouwelijk;Rechts;5;98;right;no;650;rightarrow;965;true;focus;yes;1176330;Chrome;112.0;Windows;10;undefined;undefined;1366 x 768;1366 x 768
H033;32;Vrouwelijk;Rechts;5;99;left;no;650;leftarrow;1062;true;focus;yes;1178178;Chrome;112.0;Windows;10;undefined;undefined;1366 x 768;1366 x 768
H033;32;Vrouwelijk;Rechts;5;100;left;yes;650;leftarrow;949;false;focus;yes;1179923;Chrome;112.0;Windows;10;undefined;undefined;1366 x 768;1366 x 768
H033;32;Vrouwelijk;Rechts;5;101;right;no;600;undefined;null;false;focus;yes;1181968;Chrome;112.0;Windows;10;undefined;undefined;1366 x 768;1366 x 768
H033;32;Vrouwelijk;Rechts;5;102;right;yes;600;rightarrow;490;false;focus;yes;1183246;Chrome;112.0;Windows;10;undefined;undefined;1366 x 768;1366 x 768
H033;32;Vrouwelijk;Rechts;5;103;right;no;550;rightarrow;621;true;focus;yes;1184659;Chrome;112.0;Windows;10;undefined;undefined;1366 x 768;1366 x 768
H033;32;Vrouwelijk;Rechts;5;104;left;no;550;leftarrow;751;true;focus;yes;1186193;Chrome;112.0;Windows;10;undefined;undefined;1366 x 768;1366 x 768
H033;32;Vrouwelijk;Rechts;5;105;left;no;550;leftarrow;949;true;focus;yes;1187937;Chrome;112.0;Windows;10;undefined;undefined;1366 x 768;1366 x 768
H033;32;Vrouwelijk;Rechts;5;106;right;no;550;rightarrow;1024;true;focus;yes;1189763;Chrome;112.0;Windows;10;undefined;undefined;1366 x 768;1366 x 768
H033;32;Vrouwelijk;Rechts;5;107;left;no;550;leftarrow;1068;true;focus;yes;1191620;Chrome;112.0;Windows;10;undefined;undefined;1366 x 768;1366 x 768
H033;32;Vrouwelijk;Rechts;5;108;left;yes;550;undefined;null;true;focus;yes;1193671;Chrome;112.0;Windows;10;undefined;undefined;1366 x 768;1366 x 768
H033;32;Vrouwelijk;Rechts;5;109;right;no;600;rightarrow;1275;true;focus;yes;1195734;Chrome;112.0;Windows;10;undefined;undefined;1366 x 768;1366 x 768
H033;32;Vrouwelijk;Rechts;5;110;right;yes;600;undefined;null;true;focus;yes;1197781;Chrome;112.0;Windows;10;undefined;undefined;1366 x 768;1366 x 768
H033;32;Vrouwelijk;Rechts;5;111;right;no;650;rightarrow;1254;true;focus;yes;1199822;Chrome;112.0;Windows;10;undefined;undefined;1366 x 768;1366 x 768
H033;32;Vrouwelijk;Rechts;5;112;left;no;650;leftarrow;1091;true;focus;yes;1201705;Chrome;112.0;Windows;10;undefined;undefined;1366 x 768;1366 x 768
H033;32;Vrouwelijk;Rechts;5;113;right;no;650;undefined;null;false;focus;yes;1203748;Chrome;112.0;Windows;10;undefined;undefined;1366 x 768;1366 x 768
H033;32;Vrouwelijk;Rechts;5;114;left;yes;650;undefined;null;true;focus;yes;1205780;Chrome;112.0;Windows;10;undefined;undefined;1366 x 768;1366 x 768
H033;32;Vrouwelijk;Rechts;5;115;right;no;700;rightarrow;908;true;focus;yes;1207476;Chrome;112.0;Windows;10;undefined;undefined;1366 x 768;1366 x 768
H033;32;Vrouwelijk;Rechts;5;116;left;no;700;undefined;null;false;focus;yes;1209530;Chrome;112.0;Windows;10;undefined;undefined;1366 x 768;1366 x 768
H033;32;Vrouwelijk;Rechts;5;117;left;no;700;leftarrow;477;true;focus;yes;1210794;Chrome;112.0;Windows;10;undefined;undefined;1366 x 768;1366 x 768
H033;32;Vrouwelijk;Rechts;5;118;left;no;700;leftarrow;560;true;focus;yes;1212141;Chrome;112.0;Windows;10;undefined;undefined;1366 x 768;1366 x 768
H033;32;Vrouwelijk;Rechts;5;119;right;no;700;rightarrow;831;true;focus;yes;1213773;Chrome;112.0;Windows;10;undefined;undefined;1366 x 768;1366 x 768
H033;32;Vrouwelijk;Rechts;5;120;right;yes;700;undefined;null;true;focus;yes;1215827;Chrome;112.0;Windows;10;undefined;undefined;1366 x 768;1366 x 768
H033;32;Vrouwelijk;Rechts;5;121;left;no;750;leftarrow;828;true;focus;yes;1217443;Chrome;112.0;Windows;10;undefined;undefined;1366 x 768;1366 x 768
H033;32;Vrouwelijk;Rechts;5;122;right;no;750;rightarrow;1003;true;focus;yes;1219227;Chrome;112.0;Windows;10;undefined;undefined;1366 x 768;1366 x 768
H033;32;Vrouwelijk;Rechts;5;123;right;no;750;rightarrow;970;true;focus;yes;1220990;Chrome;112.0;Windows;10;undefined;undefined;1366 x 768;1366 x 768
H033;32;Vrouwelijk;Rechts;5;124;right;yes;750;rightarrow;877;false;focus;yes;1222663;Chrome;112.0;Windows;10;undefined;undefined;1366 x 768;1366 x 768
H033;32;Vrouwelijk;Rechts;5;125;left;no;700;undefined;null;false;focus;yes;1224749;Chrome;112.0;Windows;10;undefined;undefined;1366 x 768;1366 x 768
H033;32;Vrouwelijk;Rechts;5;126;right;no;700;rightarrow;852;true;focus;yes;1226686;Chrome;112.0;Windows;10;undefined;undefined;1366 x 768;1366 x 768
H033;32;Vrouwelijk;Rechts;5;127;left;no;700;leftarrow;827;true;focus;yes;1228301;Chrome;112.0;Windows;10;undefined;undefined;1366 x 768;1366 x 768
H033;32;Vrouwelijk;Rechts;5;128;left;yes;700;leftarrow;967;false;focus;yes;1230050;Chrome;112.0;Windows;10;undefined;undefined;1366 x 768;1366 x 768
H033;32;Vrouwelijk;Rechts;6;1;right;no;650;rightarrow;585;true;focus;yes;1249208;Chrome;112.0;Windows;10;undefined;undefined;1366 x 768;1366 x 768
H033;32;Vrouwelijk;Rechts;6;2;left;no;650;leftarrow;756;true;focus;yes;1250745;Chrome;112.0;Windows;10;undefined;undefined;1366 x 768;1366 x 768
H033;32;Vrouwelijk;Rechts;6;3;left;yes;650;leftarrow;758;false;focus;yes;1252292;Chrome;112.0;Windows;10;undefined;undefined;1366 x 768;1366 x 768
H033;32;Vrouwelijk;Rechts;6;4;right;no;600;rightarrow;962;true;focus;yes;1254044;Chrome;112.0;Windows;10;undefined;undefined;1366 x 768;1366 x 768
H033;32;Vrouwelijk;Rechts;6;5;left;no;600;leftarrow;1020;true;focus;yes;1255852;Chrome;112.0;Windows;10;undefined;undefined;1366 x 768;1366 x 768
H033;32;Vrouwelijk;Rechts;6;6;left;no;600;leftarrow;912;true;focus;yes;1257557;Chrome;112.0;Windows;10;undefined;undefined;1366 x 768;1366 x 768
H033;32;Vrouwelijk;Rechts;6;7;right;yes;600;undefined;null;true;focus;yes;1259608;Chrome;112.0;Windows;10;undefined;undefined;1366 x 768;1366 x 768
H033;32;Vrouwelijk;Rechts;6;8;right;no;650;rightarrow;689;true;focus;yes;1261099;Chrome;112.0;Windows;10;undefined;undefined;1366 x 768;1366 x 768
H033;32;Vrouwelijk;Rechts;6;9;left;no;650;leftarrow;878;true;focus;yes;1262761;Chrome;112.0;Windows;10;undefined;undefined;1366 x 768;1366 x 768
H033;32;Vrouwelijk;Rechts;6;10;left;yes;650;undefined;null;true;focus;yes;1264813;Chrome;112.0;Windows;10;undefined;undefined;1366 x 768;1366 x 768
H033;32;Vrouwelijk;Rechts;6;11;left;no;700;leftarrow;879;true;focus;yes;1266478;Chrome;112.0;Windows;10;undefined;undefined;1366 x 768;1366 x 768
H033;32;Vrouwelijk;Rechts;6;12;right;yes;700;undefined;null;true;focus;yes;1268531;Chrome;112.0;Windows;10;undefined;undefined;1366 x 768;1366 x 768
H033;32;Vrouwelijk;Rechts;6;13;right;no;750;rightarrow;759;true;focus;yes;1270077;Chrome;112.0;Windows;10;undefined;undefined;1366 x 768;1366 x 768
H033;32;Vrouwelijk;Rechts;6;14;left;no;750;leftarrow;749;true;focus;yes;1271615;Chrome;112.0;Windows;10;undefined;undefined;1366 x 768;1366 x 768
H033;32;Vrouwelijk;Rechts;6;15;right;no;750;rightarrow;714;true;focus;yes;1273110;Chrome;112.0;Windows;10;undefined;undefined;1366 x 768;1366 x 768
H033;32;Vrouwelijk;Rechts;6;16;right;no;750;rightarrow;1032;true;focus;yes;1274928;Chrome;112.0;Windows;10;undefined;undefined;1366 x 768;1366 x 768
H033;32;Vrouwelijk;Rechts;6;17;left;no;750;leftarrow;744;true;focus;yes;1276452;Chrome;112.0;Windows;10;undefined;undefined;1366 x 768;1366 x 768
H033;32;Vrouwelijk;Rechts;6;18;right;yes;750;rightarrow;975;false;focus;yes;1278214;Chrome;112.0;Windows;10;undefined;undefined;1366 x 768;1366 x 768
H033;32;Vrouwelijk;Rechts;6;19;left;no;700;leftarrow;763;true;focus;yes;1279755;Chrome;112.0;Windows;10;undefined;undefined;1366 x 768;1366 x 768
H033;32;Vrouwelijk;Rechts;6;20;right;no;700;rightarrow;936;true;focus;yes;1281489;Chrome;112.0;Windows;10;undefined;undefined;1366 x 768;1366 x 768
H033;32;Vrouwelijk;Rechts;6;21;right;no;700;rightarrow;1057;true;focus;yes;1283328;Chrome;112.0;Windows;10;undefined;undefined;1366 x 768;1366 x 768
H033;32;Vrouwelijk;Rechts;6;22;right;no;700;rightarrow;889;true;focus;yes;1285004;Chrome;112.0;Windows;10;undefined;undefined;1366 x 768;1366 x 768
H033;32;Vrouwelijk;Rechts;6;23;left;no;700;leftarrow;736;true;focus;yes;1286537;Chrome;112.0;Windows;10;undefined;undefined;1366 x 768;1366 x 768
H033;32;Vrouwelijk;Rechts;6;24;left;yes;700;undefined;null;true;focus;yes;1288594;Chrome;112.0;Windows;10;undefined;undefined;1366 x 768;1366 x 768
H033;32;Vrouwelijk;Rechts;6;25;left;no;750;leftarrow;877;true;focus;yes;1290274;Chrome;112.0;Windows;10;undefined;undefined;1366 x 768;1366 x 768
H033;32;Vrouwelijk;Rechts;6;26;left;yes;750;leftarrow;941;false;focus;yes;1292008;Chrome;112.0;Windows;10;undefined;undefined;1366 x 768;1366 x 768
