participantID,age,gender,handedness,block_i,trial_i,stim,signal,SSD,response,rt,correct,focus,Fullscreen,time_elapsed,browser_name,browser_version,os_name,os_version,tablet,mobile,screen_resolution,window_resolution
S009,69,Mannelijk,Rechts,0,1,left,yes,200,leftarrow,863,false,focus,yes,204448,Firefox,109.0,Windows,10,undefined,undefined,1504 x 1003,1504 x 1003
S009,69,Mannelijk,Rechts,0,2,right,no,150,rightarrow,546,true,focus,yes,206526,Firefox,109.0,Windows,10,undefined,undefined,1504 x 1003,1504 x 1003
S009,69,Mannelijk,Rechts,0,3,left,no,150,leftarrow,668,true,focus,yes,208725,Firefox,109.0,Windows,10,undefined,undefined,1504 x 1003,1504 x 1003
S009,69,Mannelijk,Rechts,0,4,right,yes,150,rightarrow,820,false,focus,yes,211077,Firefox,109.0,Windows,10,undefined,undefined,1504 x 1003,1504 x 1003
S009,69,Mannelijk,Rechts,0,5,right,no,100,rightarrow,875,true,focus,yes,213473,Firefox,109.0,Windows,10,undefined,undefined,1504 x 1003,1504 x 1003
S009,69,Mannelijk,Rechts,0,6,left,no,100,leftarrow,548,true,focus,yes,215536,Firefox,109.0,Windows,10,undefined,undefined,1504 x 1003,1504 x 1003
S009,69,Mannelijk,Rechts,0,7,left,no,100,leftarrow,575,true,focus,yes,217654,Firefox,109.0,Windows,10,undefined,undefined,1504 x 1003,1504 x 1003
S009,69,Mannelijk,Rechts,0,8,right,no,100,rightarrow,409,true,focus,yes,219595,Firefox,109.0,Windows,10,undefined,undefined,1504 x 1003,1504 x 1003
S009,69,Mannelijk,Rechts,1,1,left,no,100,leftarrow,528,true,focus,yes,240465,Firefox,109.0,Windows,10,undefined,undefined,1504 x 1003,1504 x 1003
S009,69,Mannelijk,Rechts,1,2,right,no,100,rightarrow,573,true,focus,yes,241819,Firefox,109.0,Windows,10,undefined,undefined,1504 x 1003,1504 x 1003
S009,69,Mannelijk,Rechts,1,3,right,no,100,rightarrow,542,true,focus,yes,243129,Firefox,109.0,Windows,10,undefined,undefined,1504 x 1003,1504 x 1003
S009,69,Mannelijk,Rechts,1,4,right,no,100,rightarrow,537,true,focus,yes,244435,Firefox,109.0,Windows,10,undefined,undefined,1504 x 1003,1504 x 1003
S009,69,Mannelijk,Rechts,1,5,left,yes,100,leftarrow,542,false,focus,yes,245752,Firefox,109.0,Windows,10,undefined,undefined,1504 x 1003,1504 x 1003
S009,69,Mannelijk,Rechts,1,6,right,yes,50,rightarrow,501,false,focus,yes,247024,Firefox,109.0,Windows,10,undefined,undefined,1504 x 1003,1504 x 1003
S009,69,Mannelijk,Rechts,1,7,left,no,50,leftarrow,501,true,focus,yes,248299,Firefox,109.0,Windows,10,undefined,undefined,1504 x 1003,1504 x 1003
S009,69,Mannelijk,Rechts,1,8,left,no,50,leftarrow,427,true,focus,yes,249498,Firefox,109.0,Windows,10,undefined,undefined,1504 x 1003,1504 x 1003
S009,69,Mannelijk,Rechts,1,9,left,no,50,leftarrow,639,true,focus,yes,250896,Firefox,109.0,Windows,10,undefined,undefined,1504 x 1003,1504 x 1003
S009,69,Mannelijk,Rechts,1,10,right,no,50,rightarrow,516,true,focus,yes,252169,Firefox,109.0,Windows,10,undefined,undefined,1504 x 1003,1504 x 1003
S009,69,Mannelijk,Rechts,1,11,right,yes,50,rightarrow,574,false,focus,yes,253509,Firefox,109.0,Windows,10,undefined,undefined,1504 x 1003,1504 x 1003
S009,69,Mannelijk,Rechts,1,12,left,yes,50,leftarrow,530,false,focus,yes,254800,Firefox,109.0,Windows,10,undefined,undefined,1504 x 1003,1504 x 1003
S009,69,Mannelijk,Rechts,1,13,left,no,50,leftarrow,461,true,focus,yes,256030,Firefox,109.0,Windows,10,undefined,undefined,1504 x 1003,1504 x 1003
S009,69,Mannelijk,Rechts,1,14,right,no,50,rightarrow,611,true,focus,yes,257410,Firefox,109.0,Windows,10,undefined,undefined,1504 x 1003,1504 x 1003
S009,69,Mannelijk,Rechts,1,15,right,no,50,rightarrow,565,true,focus,yes,258735,Firefox,109.0,Windows,10,undefined,undefined,1504 x 1003,1504 x 1003
S009,69,Mannelijk,Rechts,1,16,left,no,50,leftarrow,487,true,focus,yes,259991,Firefox,109.0,Windows,10,undefined,undefined,1504 x 1003,1504 x 1003
S009,69,Mannelijk,Rechts,1,17,left,no,50,leftarrow,546,true,focus,yes,261305,Firefox,109.0,Windows,10,undefined,undefined,1504 x 1003,1504 x 1003
S009,69,Mannelijk,Rechts,1,18,right,yes,50,rightarrow,467,false,focus,yes,262533,Firefox,109.0,Windows,10,undefined,undefined,1504 x 1003,1504 x 1003
S009,69,Mannelijk,Rechts,1,19,right,no,50,rightarrow,501,true,focus,yes,263808,Firefox,109.0,Windows,10,undefined,undefined,1504 x 1003,1504 x 1003
S009,69,Mannelijk,Rechts,1,20,left,no,50,leftarrow,402,true,focus,yes,264975,Firefox,109.0,Windows,10,undefined,undefined,1504 x 1003,1504 x 1003
S009,69,Mannelijk,Rechts,1,21,right,no,50,rightarrow,422,true,focus,yes,266161,Firefox,109.0,Windows,10,undefined,undefined,1504 x 1003,1504 x 1003
S009,69,Mannelijk,Rechts,1,22,left,no,50,leftarrow,447,true,focus,yes,267375,Firefox,109.0,Windows,10,undefined,undefined,1504 x 1003,1504 x 1003
S009,69,Mannelijk,Rechts,1,23,right,no,50,rightarrow,482,true,focus,yes,268625,Firefox,109.0,Windows,10,undefined,undefined,1504 x 1003,1504 x 1003
S009,69,Mannelijk,Rechts,1,24,left,yes,50,leftarrow,503,false,focus,yes,269916,Firefox,109.0,Windows,10,undefined,undefined,1504 x 1003,1504 x 1003
S009,69,Mannelijk,Rechts,1,25,right,yes,50,rightarrow,636,false,focus,yes,271317,Firefox,109.0,Windows,10,undefined,undefined,1504 x 1003,1504 x 1003
S009,69,Mannelijk,Rechts,1,26,left,no,50,leftarrow,445,true,focus,yes,272535,Firefox,109.0,Windows,10,undefined,undefined,1504 x 1003,1504 x 1003
S009,69,Mannelijk,Rechts,1,27,left,no,50,leftarrow,500,true,focus,yes,273821,Firefox,109.0,Windows,10,undefined,undefined,1504 x 1003,1504 x 1003
S009,69,Mannelijk,Rechts,1,28,right,no,50,rightarrow,665,true,focus,yes,275255,Firefox,109.0,Windows,10,undefined,undefined,1504 x 1003,1504 x 1003
S009,69,Mannelijk,Rechts,1,29,left,no,50,leftarrow,482,true,focus,yes,276508,Firefox,109.0,Windows,10,undefined,undefined,1504 x 1003,1504 x 1003
S009,69,Mannelijk,Rechts,1,30,left,yes,50,leftarrow,492,false,focus,yes,277761,Firefox,109.0,Windows,10,undefined,undefined,1504 x 1003,1504 x 1003
S009,69,Mannelijk,Rechts,1,31,right,no,50,rightarrow,479,true,focus,yes,279016,Firefox,109.0,Windows,10,undefined,undefined,1504 x 1003,1504 x 1003
S009,69,Mannelijk,Rechts,1,32,right,no,50,rightarrow,378,true,focus,yes,280164,Firefox,109.0,Windows,10,undefined,undefined,1504 x 1003,1504 x 1003
S009,69,Mannelijk,Rechts,1,33,left,yes,50,leftarrow,519,false,focus,yes,281446,Firefox,109.0,Windows,10,undefined,undefined,1504 x 1003,1504 x 1003
S009,69,Mannelijk,Rechts,1,34,left,no,50,leftarrow,446,true,focus,yes,282666,Firefox,109.0,Windows,10,undefined,undefined,1504 x 1003,1504 x 1003
S009,69,Mannelijk,Rechts,1,35,right,no,50,rightarrow,417,true,focus,yes,283851,Firefox,109.0,Windows,10,undefined,undefined,1504 x 1003,1504 x 1003
S009,69,Mannelijk,Rechts,1,36,right,no,50,rightarrow,408,true,focus,yes,285022,Firefox,109.0,Windows,10,undefined,undefined,1504 x 1003,1504 x 1003
S009,69,Mannelijk,Rechts,1,37,left,no,50,leftarrow,499,true,focus,yes,286295,Firefox,109.0,Windows,10,undefined,undefined,1504 x 1003,1504 x 1003
S009,69,Mannelijk,Rechts,1,38,left,no,50,leftarrow,589,true,focus,yes,287652,Firefox,109.0,Windows,10,undefined,undefined,1504 x 1003,1504 x 1003
S009,69,Mannelijk,Rechts,1,39,right,no,50,rightarrow,535,true,focus,yes,288949,Firefox,109.0,Windows,10,undefined,undefined,1504 x 1003,1504 x 1003
S009,69,Mannelijk,Rechts,1,40,right,yes,50,rightarrow,503,false,focus,yes,290215,Firefox,109.0,Windows,10,undefined,undefined,1504 x 1003,1504 x 1003
S009,69,Mannelijk,Rechts,1,41,left,no,50,leftarrow,531,true,focus,yes,291508,Firefox,109.0,Windows,10,undefined,undefined,1504 x 1003,1504 x 1003
S009,69,Mannelijk,Rechts,1,42,right,no,50,rightarrow,510,true,focus,yes,292780,Firefox,109.0,Windows,10,undefined,undefined,1504 x 1003,1504 x 1003
S009,69,Mannelijk,Rechts,1,43,right,no,50,rightarrow,563,true,focus,yes,294119,Firefox,109.0,Windows,10,undefined,undefined,1504 x 1003,1504 x 1003
S009,69,Mannelijk,Rechts,1,44,left,yes,50,leftarrow,529,false,focus,yes,295409,Firefox,109.0,Windows,10,undefined,undefined,1504 x 1003,1504 x 1003
S009,69,Mannelijk,Rechts,1,45,left,no,50,leftarrow,448,true,focus,yes,296626,Firefox,109.0,Windows,10,undefined,undefined,1504 x 1003,1504 x 1003
S009,69,Mannelijk,Rechts,1,46,left,no,50,leftarrow,426,true,focus,yes,297820,Firefox,109.0,Windows,10,undefined,undefined,1504 x 1003,1504 x 1003
S009,69,Mannelijk,Rechts,1,47,right,yes,50,rightarrow,396,false,focus,yes,298993,Firefox,109.0,Windows,10,undefined,undefined,1504 x 1003,1504 x 1003
S009,69,Mannelijk,Rechts,1,48,right,no,50,rightarrow,634,true,focus,yes,300390,Firefox,109.0,Windows,10,undefined,undefined,1504 x 1003,1504 x 1003
S009,69,Mannelijk,Rechts,1,49,right,no,50,rightarrow,661,true,focus,yes,301815,Firefox,109.0,Windows,10,undefined,undefined,1504 x 1003,1504 x 1003
S009,69,Mannelijk,Rechts,1,50,left,no,50,leftarrow,467,true,focus,yes,303054,Firefox,109.0,Windows,10,undefined,undefined,1504 x 1003,1504 x 1003
S009,69,Mannelijk,Rechts,1,51,right,no,50,rightarrow,564,true,focus,yes,304380,Firefox,109.0,Windows,10,undefined,undefined,1504 x 1003,1504 x 1003
S009,69,Mannelijk,Rechts,1,52,left,no,50,leftarrow,445,true,focus,yes,305601,Firefox,109.0,Windows,10,undefined,undefined,1504 x 1003,1504 x 1003
S009,69,Mannelijk,Rechts,1,53,right,no,50,rightarrow,558,true,focus,yes,306921,Firefox,109.0,Windows,10,undefined,undefined,1504 x 1003,1504 x 1003
S009,69,Mannelijk,Rechts,1,54,right,yes,50,rightarrow,511,false,focus,yes,308197,Firefox,109.0,Windows,10,undefined,undefined,1504 x 1003,1504 x 1003
S009,69,Mannelijk,Rechts,1,55,left,yes,50,leftarrow,467,false,focus,yes,309435,Firefox,109.0,Windows,10,undefined,undefined,1504 x 1003,1504 x 1003
S009,69,Mannelijk,Rechts,1,56,left,no,50,leftarrow,599,true,focus,yes,310793,Firefox,109.0,Windows,10,undefined,undefined,1504 x 1003,1504 x 1003
S009,69,Mannelijk,Rechts,1,57,right,no,50,rightarrow,497,true,focus,yes,312050,Firefox,109.0,Windows,10,undefined,undefined,1504 x 1003,1504 x 1003
S009,69,Mannelijk,Rechts,1,58,right,no,50,rightarrow,421,true,focus,yes,313243,Firefox,109.0,Windows,10,undefined,undefined,1504 x 1003,1504 x 1003
S009,69,Mannelijk,Rechts,1,59,right,yes,50,rightarrow,523,false,focus,yes,314530,Firefox,109.0,Windows,10,undefined,undefined,1504 x 1003,1504 x 1003
S009,69,Mannelijk,Rechts,1,60,left,yes,50,leftarrow,573,false,focus,yes,315863,Firefox,109.0,Windows,10,undefined,undefined,1504 x 1003,1504 x 1003
S009,69,Mannelijk,Rechts,1,61,left,no,50,leftarrow,509,true,focus,yes,317130,Firefox,109.0,Windows,10,undefined,undefined,1504 x 1003,1504 x 1003
S009,69,Mannelijk,Rechts,1,62,left,no,50,leftarrow,520,true,focus,yes,318417,Firefox,109.0,Windows,10,undefined,undefined,1504 x 1003,1504 x 1003
S009,69,Mannelijk,Rechts,1,63,left,no,50,leftarrow,502,true,focus,yes,319690,Firefox,109.0,Windows,10,undefined,undefined,1504 x 1003,1504 x 1003
S009,69,Mannelijk,Rechts,1,64,right,no,50,rightarrow,638,true,focus,yes,321097,Firefox,109.0,Windows,10,undefined,undefined,1504 x 1003,1504 x 1003
S009,69,Mannelijk,Rechts,1,65,right,no,50,rightarrow,523,true,focus,yes,322386,Firefox,109.0,Windows,10,undefined,undefined,1504 x 1003,1504 x 1003
S009,69,Mannelijk,Rechts,1,66,left,yes,50,leftarrow,486,false,focus,yes,323640,Firefox,109.0,Windows,10,undefined,undefined,1504 x 1003,1504 x 1003
S009,69,Mannelijk,Rechts,1,67,right,yes,50,rightarrow,606,false,focus,yes,325014,Firefox,109.0,Windows,10,undefined,undefined,1504 x 1003,1504 x 1003
S009,69,Mannelijk,Rechts,1,68,left,no,50,leftarrow,465,true,focus,yes,326236,Firefox,109.0,Windows,10,undefined,undefined,1504 x 1003,1504 x 1003
S009,69,Mannelijk,Rechts,1,69,right,no,50,rightarrow,414,true,focus,yes,327424,Firefox,109.0,Windows,10,undefined,undefined,1504 x 1003,1504 x 1003
S009,69,Mannelijk,Rechts,1,70,right,no,50,rightarrow,512,true,focus,yes,328697,Firefox,109.0,Windows,10,undefined,undefined,1504 x 1003,1504 x 1003
S009,69,Mannelijk,Rechts,1,71,left,no,50,leftarrow,447,true,focus,yes,329918,Firefox,109.0,Windows,10,undefined,undefined,1504 x 1003,1504 x 1003
S009,69,Mannelijk,Rechts,1,72,left,no,50,leftarrow,455,true,focus,yes,331147,Firefox,109.0,Windows,10,undefined,undefined,1504 x 1003,1504 x 1003
S009,69,Mannelijk,Rechts,1,73,left,no,50,leftarrow,418,true,focus,yes,332337,Firefox,109.0,Windows,10,undefined,undefined,1504 x 1003,1504 x 1003
S009,69,Mannelijk,Rechts,1,74,right,yes,50,rightarrow,518,false,focus,yes,333622,Firefox,109.0,Windows,10,undefined,undefined,1504 x 1003,1504 x 1003
S009,69,Mannelijk,Rechts,1,75,right,no,50,rightarrow,365,true,focus,yes,334757,Firefox,109.0,Windows,10,undefined,undefined,1504 x 1003,1504 x 1003
S009,69,Mannelijk,Rechts,1,76,right,no,50,leftarrow,382,false,focus,yes,335897,Firefox,109.0,Windows,10,undefined,undefined,1504 x 1003,1504 x 1003
S009,69,Mannelijk,Rechts,1,77,left,no,50,leftarrow,642,true,focus,yes,337310,Firefox,109.0,Windows,10,undefined,undefined,1504 x 1003,1504 x 1003
S009,69,Mannelijk,Rechts,1,78,left,no,50,leftarrow,501,true,focus,yes,338576,Firefox,109.0,Windows,10,undefined,undefined,1504 x 1003,1504 x 1003
S009,69,Mannelijk,Rechts,1,79,left,yes,50,leftarrow,463,false,focus,yes,339818,Firefox,109.0,Windows,10,undefined,undefined,1504 x 1003,1504 x 1003
S009,69,Mannelijk,Rechts,1,80,right,no,50,rightarrow,518,true,focus,yes,341102,Firefox,109.0,Windows,10,undefined,undefined,1504 x 1003,1504 x 1003
S009,69,Mannelijk,Rechts,1,81,right,no,50,rightarrow,636,true,focus,yes,342501,Firefox,109.0,Windows,10,undefined,undefined,1504 x 1003,1504 x 1003
S009,69,Mannelijk,Rechts,1,82,left,no,50,leftarrow,551,true,focus,yes,343827,Firefox,109.0,Windows,10,undefined,undefined,1504 x 1003,1504 x 1003
S009,69,Mannelijk,Rechts,1,83,left,no,50,leftarrow,420,true,focus,yes,345010,Firefox,109.0,Windows,10,undefined,undefined,1504 x 1003,1504 x 1003
S009,69,Mannelijk,Rechts,1,84,left,no,50,leftarrow,510,true,focus,yes,346296,Firefox,109.0,Windows,10,undefined,undefined,1504 x 1003,1504 x 1003
S009,69,Mannelijk,Rechts,1,85,right,no,50,rightarrow,386,true,focus,yes,347450,Firefox,109.0,Windows,10,undefined,undefined,1504 x 1003,1504 x 1003
S009,69,Mannelijk,Rechts,1,86,right,yes,50,rightarrow,654,false,focus,yes,348868,Firefox,109.0,Windows,10,undefined,undefined,1504 x 1003,1504 x 1003
S009,69,Mannelijk,Rechts,1,87,left,yes,50,leftarrow,503,false,focus,yes,350134,Firefox,109.0,Windows,10,undefined,undefined,1504 x 1003,1504 x 1003
S009,69,Mannelijk,Rechts,1,88,right,no,50,rightarrow,429,true,focus,yes,351332,Firefox,109.0,Windows,10,undefined,undefined,1504 x 1003,1504 x 1003
S009,69,Mannelijk,Rechts,1,89,left,yes,50,leftarrow,474,false,focus,yes,352564,Firefox,109.0,Windows,10,undefined,undefined,1504 x 1003,1504 x 1003
S009,69,Mannelijk,Rechts,1,90,right,no,50,rightarrow,457,true,focus,yes,353791,Firefox,109.0,Windows,10,undefined,undefined,1504 x 1003,1504 x 1003
S009,69,Mannelijk,Rechts,1,91,left,no,50,leftarrow,502,true,focus,yes,355060,Firefox,109.0,Windows,10,undefined,undefined,1504 x 1003,1504 x 1003
S009,69,Mannelijk,Rechts,1,92,left,no,50,leftarrow,530,true,focus,yes,356366,Firefox,109.0,Windows,10,undefined,undefined,1504 x 1003,1504 x 1003
S009,69,Mannelijk,Rechts,1,93,left,no,50,leftarrow,508,true,focus,yes,357633,Firefox,109.0,Windows,10,undefined,undefined,1504 x 1003,1504 x 1003
S009,69,Mannelijk,Rechts,1,94,right,yes,50,rightarrow,405,false,focus,yes,358809,Firefox,109.0,Windows,10,undefined,undefined,1504 x 1003,1504 x 1003
S009,69,Mannelijk,Rechts,1,95,right,no,50,rightarrow,593,true,focus,yes,360166,Firefox,109.0,Windows,10,undefined,undefined,1504 x 1003,1504 x 1003
S009,69,Mannelijk,Rechts,1,96,right,no,50,rightarrow,433,true,focus,yes,361375,Firefox,109.0,Windows,10,undefined,undefined,1504 x 1003,1504 x 1003
S009,69,Mannelijk,Rechts,1,97,left,no,50,leftarrow,665,true,focus,yes,362809,Firefox,109.0,Windows,10,undefined,undefined,1504 x 1003,1504 x 1003
S009,69,Mannelijk,Rechts,1,98,right,no,50,rightarrow,543,true,focus,yes,364127,Firefox,109.0,Windows,10,undefined,undefined,1504 x 1003,1504 x 1003
S009,69,Mannelijk,Rechts,1,99,left,yes,50,leftarrow,484,false,focus,yes,365382,Firefox,109.0,Windows,10,undefined,undefined,1504 x 1003,1504 x 1003
S009,69,Mannelijk,Rechts,1,100,right,no,50,rightarrow,511,true,focus,yes,366659,Firefox,109.0,Windows,10,undefined,undefined,1504 x 1003,1504 x 1003
S009,69,Mannelijk,Rechts,1,101,right,yes,50,rightarrow,589,false,focus,yes,368016,Firefox,109.0,Windows,10,undefined,undefined,1504 x 1003,1504 x 1003
S009,69,Mannelijk,Rechts,1,102,left,no,50,leftarrow,418,true,focus,yes,369205,Firefox,109.0,Windows,10,undefined,undefined,1504 x 1003,1504 x 1003
S009,69,Mannelijk,Rechts,1,103,right,no,50,rightarrow,576,true,focus,yes,370553,Firefox,109.0,Windows,10,undefined,undefined,1504 x 1003,1504 x 1003
S009,69,Mannelijk,Rechts,1,104,left,no,50,leftarrow,467,true,focus,yes,371792,Firefox,109.0,Windows,10,undefined,undefined,1504 x 1003,1504 x 1003
S009,69,Mannelijk,Rechts,1,105,right,no,50,rightarrow,635,true,focus,yes,373192,Firefox,109.0,Windows,10,undefined,undefined,1504 x 1003,1504 x 1003
S009,69,Mannelijk,Rechts,1,106,left,no,50,leftarrow,438,true,focus,yes,374399,Firefox,109.0,Windows,10,undefined,undefined,1504 x 1003,1504 x 1003
S009,69,Mannelijk,Rechts,1,107,left,no,50,leftarrow,492,true,focus,yes,375654,Firefox,109.0,Windows,10,undefined,undefined,1504 x 1003,1504 x 1003
S009,69,Mannelijk,Rechts,1,108,right,no,50,rightarrow,553,true,focus,yes,376969,Firefox,109.0,Windows,10,undefined,undefined,1504 x 1003,1504 x 1003
S009,69,Mannelijk,Rechts,1,109,left,no,50,leftarrow,402,true,focus,yes,378140,Firefox,109.0,Windows,10,undefined,undefined,1504 x 1003,1504 x 1003
S009,69,Mannelijk,Rechts,1,110,right,yes,50,rightarrow,539,false,focus,yes,379437,Firefox,109.0,Windows,10,undefined,undefined,1504 x 1003,1504 x 1003
S009,69,Mannelijk,Rechts,1,111,right,no,50,rightarrow,527,true,focus,yes,380726,Firefox,109.0,Windows,10,undefined,undefined,1504 x 1003,1504 x 1003
S009,69,Mannelijk,Rechts,1,112,left,yes,50,leftarrow,479,false,focus,yes,381976,Firefox,109.0,Windows,10,undefined,undefined,1504 x 1003,1504 x 1003
S009,69,Mannelijk,Rechts,1,113,right,yes,50,rightarrow,486,false,focus,yes,383228,Firefox,109.0,Windows,10,undefined,undefined,1504 x 1003,1504 x 1003
S009,69,Mannelijk,Rechts,1,114,left,no,50,leftarrow,460,true,focus,yes,384465,Firefox,109.0,Windows,10,undefined,undefined,1504 x 1003,1504 x 1003
S009,69,Mannelijk,Rechts,1,115,left,yes,50,leftarrow,522,false,focus,yes,385751,Firefox,109.0,Windows,10,undefined,undefined,1504 x 1003,1504 x 1003
S009,69,Mannelijk,Rechts,1,116,left,no,50,leftarrow,438,true,focus,yes,386967,Firefox,109.0,Windows,10,undefined,undefined,1504 x 1003,1504 x 1003
S009,69,Mannelijk,Rechts,1,117,right,no,50,rightarrow,478,true,focus,yes,388202,Firefox,109.0,Windows,10,undefined,undefined,1504 x 1003,1504 x 1003
S009,69,Mannelijk,Rechts,1,118,right,no,50,rightarrow,446,true,focus,yes,389428,Firefox,109.0,Windows,10,undefined,undefined,1504 x 1003,1504 x 1003
S009,69,Mannelijk,Rechts,1,119,right,no,50,rightarrow,480,true,focus,yes,390673,Firefox,109.0,Windows,10,undefined,undefined,1504 x 1003,1504 x 1003
S009,69,Mannelijk,Rechts,1,120,left,no,50,leftarrow,408,true,focus,yes,391856,Firefox,109.0,Windows,10,undefined,undefined,1504 x 1003,1504 x 1003
S009,69,Mannelijk,Rechts,1,121,right,no,50,rightarrow,599,true,focus,yes,393224,Firefox,109.0,Windows,10,undefined,undefined,1504 x 1003,1504 x 1003
S009,69,Mannelijk,Rechts,1,122,left,no,50,leftarrow,520,true,focus,yes,394508,Firefox,109.0,Windows,10,undefined,undefined,1504 x 1003,1504 x 1003
S009,69,Mannelijk,Rechts,1,123,left,no,50,leftarrow,536,true,focus,yes,395810,Firefox,109.0,Windows,10,undefined,undefined,1504 x 1003,1504 x 1003
S009,69,Mannelijk,Rechts,1,124,left,yes,50,leftarrow,607,false,focus,yes,397180,Firefox,109.0,Windows,10,undefined,undefined,1504 x 1003,1504 x 1003
S009,69,Mannelijk,Rechts,1,125,right,yes,50,rightarrow,492,false,focus,yes,398440,Firefox,109.0,Windows,10,undefined,undefined,1504 x 1003,1504 x 1003
S009,69,Mannelijk,Rechts,1,126,left,no,50,leftarrow,563,true,focus,yes,399775,Firefox,109.0,Windows,10,undefined,undefined,1504 x 1003,1504 x 1003
S009,69,Mannelijk,Rechts,1,127,right,no,50,rightarrow,555,true,focus,yes,401095,Firefox,109.0,Windows,10,undefined,undefined,1504 x 1003,1504 x 1003
S009,69,Mannelijk,Rechts,1,128,right,no,50,rightarrow,449,true,focus,yes,402317,Firefox,109.0,Windows,10,undefined,undefined,1504 x 1003,1504 x 1003
S009,69,Mannelijk,Rechts,2,1,left,yes,50,leftarrow,541,false,focus,yes,422884,Firefox,109.0,Windows,10,undefined,undefined,1504 x 1003,1504 x 1003
S009,69,Mannelijk,Rechts,2,2,left,no,50,leftarrow,487,true,focus,yes,424128,Firefox,109.0,Windows,10,undefined,undefined,1504 x 1003,1504 x 1003
S009,69,Mannelijk,Rechts,2,3,left,no,50,leftarrow,451,true,focus,yes,425352,Firefox,109.0,Windows,10,undefined,undefined,1504 x 1003,1504 x 1003
S009,69,Mannelijk,Rechts,2,4,right,no,50,rightarrow,579,true,focus,yes,426695,Firefox,109.0,Windows,10,undefined,undefined,1504 x 1003,1504 x 1003
S009,69,Mannelijk,Rechts,2,5,left,no,50,leftarrow,458,true,focus,yes,427924,Firefox,109.0,Windows,10,undefined,undefined,1504 x 1003,1504 x 1003
S009,69,Mannelijk,Rechts,2,6,right,no,50,rightarrow,447,true,focus,yes,429154,Firefox,109.0,Windows,10,undefined,undefined,1504 x 1003,1504 x 1003
S009,69,Mannelijk,Rechts,2,7,right,no,50,rightarrow,469,true,focus,yes,430401,Firefox,109.0,Windows,10,undefined,undefined,1504 x 1003,1504 x 1003
S009,69,Mannelijk,Rechts,2,8,right,yes,50,rightarrow,493,false,focus,yes,431660,Firefox,109.0,Windows,10,undefined,undefined,1504 x 1003,1504 x 1003
S009,69,Mannelijk,Rechts,2,9,left,no,50,leftarrow,584,true,focus,yes,433016,Firefox,109.0,Windows,10,undefined,undefined,1504 x 1003,1504 x 1003
S009,69,Mannelijk,Rechts,2,10,right,yes,50,rightarrow,488,false,focus,yes,434279,Firefox,109.0,Windows,10,undefined,undefined,1504 x 1003,1504 x 1003
S009,69,Mannelijk,Rechts,2,11,right,no,50,rightarrow,478,true,focus,yes,435528,Firefox,109.0,Windows,10,undefined,undefined,1504 x 1003,1504 x 1003
S009,69,Mannelijk,Rechts,2,12,left,yes,50,leftarrow,485,false,focus,yes,436782,Firefox,109.0,Windows,10,undefined,undefined,1504 x 1003,1504 x 1003
S009,69,Mannelijk,Rechts,2,13,left,no,50,leftarrow,627,true,focus,yes,438171,Firefox,109.0,Windows,10,undefined,undefined,1504 x 1003,1504 x 1003
S009,69,Mannelijk,Rechts,2,14,left,no,50,leftarrow,528,true,focus,yes,439478,Firefox,109.0,Windows,10,undefined,undefined,1504 x 1003,1504 x 1003
S009,69,Mannelijk,Rechts,2,15,right,no,50,rightarrow,634,true,focus,yes,440883,Firefox,109.0,Windows,10,undefined,undefined,1504 x 1003,1504 x 1003
S009,69,Mannelijk,Rechts,2,16,right,no,50,rightarrow,642,true,focus,yes,442300,Firefox,109.0,Windows,10,undefined,undefined,1504 x 1003,1504 x 1003
S009,69,Mannelijk,Rechts,2,17,left,no,50,leftarrow,457,true,focus,yes,443523,Firefox,109.0,Windows,10,undefined,undefined,1504 x 1003,1504 x 1003
S009,69,Mannelijk,Rechts,2,18,right,yes,50,rightarrow,544,false,focus,yes,444842,Firefox,109.0,Windows,10,undefined,undefined,1504 x 1003,1504 x 1003
S009,69,Mannelijk,Rechts,2,19,right,no,50,rightarrow,470,true,focus,yes,446082,Firefox,109.0,Windows,10,undefined,undefined,1504 x 1003,1504 x 1003
S009,69,Mannelijk,Rechts,2,20,right,no,50,rightarrow,489,true,focus,yes,447333,Firefox,109.0,Windows,10,undefined,undefined,1504 x 1003,1504 x 1003
S009,69,Mannelijk,Rechts,2,21,left,yes,50,leftarrow,596,false,focus,yes,448698,Firefox,109.0,Windows,10,undefined,undefined,1504 x 1003,1504 x 1003
S009,69,Mannelijk,Rechts,2,22,left,no,50,leftarrow,512,true,focus,yes,449985,Firefox,109.0,Windows,10,undefined,undefined,1504 x 1003,1504 x 1003
S009,69,Mannelijk,Rechts,2,23,right,no,50,rightarrow,473,true,focus,yes,451223,Firefox,109.0,Windows,10,undefined,undefined,1504 x 1003,1504 x 1003
S009,69,Mannelijk,Rechts,2,24,left,no,50,leftarrow,527,true,focus,yes,452517,Firefox,109.0,Windows,10,undefined,undefined,1504 x 1003,1504 x 1003
S009,69,Mannelijk,Rechts,2,25,right,yes,50,rightarrow,511,false,focus,yes,453803,Firefox,109.0,Windows,10,undefined,undefined,1504 x 1003,1504 x 1003
S009,69,Mannelijk,Rechts,2,26,right,no,50,rightarrow,443,true,focus,yes,455001,Firefox,109.0,Windows,10,undefined,undefined,1504 x 1003,1504 x 1003
S009,69,Mannelijk,Rechts,2,27,left,yes,50,leftarrow,559,false,focus,yes,456326,Firefox,109.0,Windows,10,undefined,undefined,1504 x 1003,1504 x 1003
S009,69,Mannelijk,Rechts,2,28,right,no,50,rightarrow,462,true,focus,yes,457561,Firefox,109.0,Windows,10,undefined,undefined,1504 x 1003,1504 x 1003
S009,69,Mannelijk,Rechts,2,29,right,no,50,rightarrow,552,true,focus,yes,458883,Firefox,109.0,Windows,10,undefined,undefined,1504 x 1003,1504 x 1003
S009,69,Mannelijk,Rechts,2,30,left,no,50,leftarrow,477,true,focus,yes,460127,Firefox,109.0,Windows,10,undefined,undefined,1504 x 1003,1504 x 1003
S009,69,Mannelijk,Rechts,2,31,left,no,50,leftarrow,472,true,focus,yes,461365,Firefox,109.0,Windows,10,undefined,undefined,1504 x 1003,1504 x 1003
S009,69,Mannelijk,Rechts,2,32,left,no,50,leftarrow,467,true,focus,yes,462601,Firefox,109.0,Windows,10,undefined,undefined,1504 x 1003,1504 x 1003
S009,69,Mannelijk,Rechts,2,33,left,no,50,leftarrow,580,true,focus,yes,463950,Firefox,109.0,Windows,10,undefined,undefined,1504 x 1003,1504 x 1003
S009,69,Mannelijk,Rechts,2,34,left,no,50,leftarrow,591,true,focus,yes,465301,Firefox,109.0,Windows,10,undefined,undefined,1504 x 1003,1504 x 1003
S009,69,Mannelijk,Rechts,2,35,right,no,50,rightarrow,473,true,focus,yes,466540,Firefox,109.0,Windows,10,undefined,undefined,1504 x 1003,1504 x 1003
S009,69,Mannelijk,Rechts,2,36,left,no,50,leftarrow,550,true,focus,yes,467868,Firefox,109.0,Windows,10,undefined,undefined,1504 x 1003,1504 x 1003
S009,69,Mannelijk,Rechts,2,37,left,yes,50,leftarrow,545,false,focus,yes,469178,Firefox,109.0,Windows,10,undefined,undefined,1504 x 1003,1504 x 1003
S009,69,Mannelijk,Rechts,2,38,right,yes,50,rightarrow,473,false,focus,yes,470425,Firefox,109.0,Windows,10,undefined,undefined,1504 x 1003,1504 x 1003
S009,69,Mannelijk,Rechts,2,39,right,no,50,rightarrow,631,true,focus,yes,471823,Firefox,109.0,Windows,10,undefined,undefined,1504 x 1003,1504 x 1003
S009,69,Mannelijk,Rechts,2,40,right,no,50,rightarrow,447,true,focus,yes,473043,Firefox,109.0,Windows,10,undefined,undefined,1504 x 1003,1504 x 1003
S009,69,Mannelijk,Rechts,2,41,left,no,50,leftarrow,420,true,focus,yes,474239,Firefox,109.0,Windows,10,undefined,undefined,1504 x 1003,1504 x 1003
S009,69,Mannelijk,Rechts,2,42,left,yes,50,leftarrow,546,false,focus,yes,475556,Firefox,109.0,Windows,10,undefined,undefined,1504 x 1003,1504 x 1003
S009,69,Mannelijk,Rechts,2,43,right,no,50,rightarrow,396,true,focus,yes,476722,Firefox,109.0,Windows,10,undefined,undefined,1504 x 1003,1504 x 1003
S009,69,Mannelijk,Rechts,2,44,left,no,50,leftarrow,531,true,focus,yes,478029,Firefox,109.0,Windows,10,undefined,undefined,1504 x 1003,1504 x 1003
S009,69,Mannelijk,Rechts,2,45,right,no,50,rightarrow,491,true,focus,yes,479283,Firefox,109.0,Windows,10,undefined,undefined,1504 x 1003,1504 x 1003
S009,69,Mannelijk,Rechts,2,46,left,no,50,leftarrow,491,true,focus,yes,480532,Firefox,109.0,Windows,10,undefined,undefined,1504 x 1003,1504 x 1003
S009,69,Mannelijk,Rechts,2,47,right,yes,50,rightarrow,419,false,focus,yes,481727,Firefox,109.0,Windows,10,undefined,undefined,1504 x 1003,1504 x 1003
S009,69,Mannelijk,Rechts,2,48,right,no,50,rightarrow,560,true,focus,yes,483060,Firefox,109.0,Windows,10,undefined,undefined,1504 x 1003,1504 x 1003
S009,69,Mannelijk,Rechts,2,49,left,yes,50,leftarrow,496,false,focus,yes,484330,Firefox,109.0,Windows,10,undefined,undefined,1504 x 1003,1504 x 1003
S009,69,Mannelijk,Rechts,2,50,right,no,50,rightarrow,394,true,focus,yes,485500,Firefox,109.0,Windows,10,undefined,undefined,1504 x 1003,1504 x 1003
S009,69,Mannelijk,Rechts,2,51,left,no,50,leftarrow,467,true,focus,yes,486732,Firefox,109.0,Windows,10,undefined,undefined,1504 x 1003,1504 x 1003
S009,69,Mannelijk,Rechts,2,52,right,no,50,rightarrow,438,true,focus,yes,487948,Firefox,109.0,Windows,10,undefined,undefined,1504 x 1003,1504 x 1003
S009,69,Mannelijk,Rechts,2,53,left,no,50,leftarrow,474,true,focus,yes,489194,Firefox,109.0,Windows,10,undefined,undefined,1504 x 1003,1504 x 1003
S009,69,Mannelijk,Rechts,2,54,left,no,50,leftarrow,514,true,focus,yes,490472,Firefox,109.0,Windows,10,undefined,undefined,1504 x 1003,1504 x 1003
S009,69,Mannelijk,Rechts,2,55,right,no,50,rightarrow,544,true,focus,yes,491789,Firefox,109.0,Windows,10,undefined,undefined,1504 x 1003,1504 x 1003
S009,69,Mannelijk,Rechts,2,56,right,yes,50,rightarrow,691,false,focus,yes,493257,Firefox,109.0,Windows,10,undefined,undefined,1504 x 1003,1504 x 1003
S009,69,Mannelijk,Rechts,2,57,right,no,50,leftarrow,455,false,focus,yes,494498,Firefox,109.0,Windows,10,undefined,undefined,1504 x 1003,1504 x 1003
S009,69,Mannelijk,Rechts,2,58,right,no,50,rightarrow,461,true,focus,yes,495722,Firefox,109.0,Windows,10,undefined,undefined,1504 x 1003,1504 x 1003
S009,69,Mannelijk,Rechts,2,59,left,no,50,leftarrow,554,true,focus,yes,497045,Firefox,109.0,Windows,10,undefined,undefined,1504 x 1003,1504 x 1003
S009,69,Mannelijk,Rechts,2,60,left,no,50,leftarrow,556,true,focus,yes,498377,Firefox,109.0,Windows,10,undefined,undefined,1504 x 1003,1504 x 1003
S009,69,Mannelijk,Rechts,2,61,left,no,50,leftarrow,513,true,focus,yes,499662,Firefox,109.0,Windows,10,undefined,undefined,1504 x 1003,1504 x 1003
S009,69,Mannelijk,Rechts,2,62,right,yes,50,rightarrow,633,false,focus,yes,501067,Firefox,109.0,Windows,10,undefined,undefined,1504 x 1003,1504 x 1003
S009,69,Mannelijk,Rechts,2,63,left,yes,50,leftarrow,589,false,focus,yes,502417,Firefox,109.0,Windows,10,undefined,undefined,1504 x 1003,1504 x 1003
S009,69,Mannelijk,Rechts,2,64,right,no,50,rightarrow,565,true,focus,yes,503757,Firefox,109.0,Windows,10,undefined,undefined,1504 x 1003,1504 x 1003
S009,69,Mannelijk,Rechts,2,65,right,no,50,rightarrow,596,true,focus,yes,505122,Firefox,109.0,Windows,10,undefined,undefined,1504 x 1003,1504 x 1003
S009,69,Mannelijk,Rechts,2,66,right,yes,50,rightarrow,583,false,focus,yes,506474,Firefox,109.0,Windows,10,undefined,undefined,1504 x 1003,1504 x 1003
S009,69,Mannelijk,Rechts,2,67,left,yes,50,leftarrow,577,false,focus,yes,507819,Firefox,109.0,Windows,10,undefined,undefined,1504 x 1003,1504 x 1003
S009,69,Mannelijk,Rechts,2,68,right,no,50,rightarrow,485,true,focus,yes,509067,Firefox,109.0,Windows,10,undefined,undefined,1504 x 1003,1504 x 1003
S009,69,Mannelijk,Rechts,2,69,right,no,50,rightarrow,560,true,focus,yes,510393,Firefox,109.0,Windows,10,undefined,undefined,1504 x 1003,1504 x 1003
S009,69,Mannelijk,Rechts,2,70,left,no,50,leftarrow,574,true,focus,yes,511733,Firefox,109.0,Windows,10,undefined,undefined,1504 x 1003,1504 x 1003
S009,69,Mannelijk,Rechts,2,71,left,no,50,leftarrow,476,true,focus,yes,512984,Firefox,109.0,Windows,10,undefined,undefined,1504 x 1003,1504 x 1003
S009,69,Mannelijk,Rechts,2,72,left,no,50,leftarrow,468,true,focus,yes,514220,Firefox,109.0,Windows,10,undefined,undefined,1504 x 1003,1504 x 1003
S009,69,Mannelijk,Rechts,2,73,right,no,50,rightarrow,758,true,focus,yes,515752,Firefox,109.0,Windows,10,undefined,undefined,1504 x 1003,1504 x 1003
S009,69,Mannelijk,Rechts,2,74,right,yes,50,rightarrow,532,false,focus,yes,517042,Firefox,109.0,Windows,10,undefined,undefined,1504 x 1003,1504 x 1003
S009,69,Mannelijk,Rechts,2,75,left,no,50,leftarrow,445,true,focus,yes,518260,Firefox,109.0,Windows,10,undefined,undefined,1504 x 1003,1504 x 1003
S009,69,Mannelijk,Rechts,2,76,left,no,50,leftarrow,550,true,focus,yes,519574,Firefox,109.0,Windows,10,undefined,undefined,1504 x 1003,1504 x 1003
S009,69,Mannelijk,Rechts,2,77,left,no,50,leftarrow,493,true,focus,yes,520843,Firefox,109.0,Windows,10,undefined,undefined,1504 x 1003,1504 x 1003
S009,69,Mannelijk,Rechts,2,78,left,yes,50,leftarrow,519,false,focus,yes,522130,Firefox,109.0,Windows,10,undefined,undefined,1504 x 1003,1504 x 1003
S009,69,Mannelijk,Rechts,2,79,right,no,50,rightarrow,513,true,focus,yes,523420,Firefox,109.0,Windows,10,undefined,undefined,1504 x 1003,1504 x 1003
S009,69,Mannelijk,Rechts,2,80,right,no,50,rightarrow,456,true,focus,yes,524641,Firefox,109.0,Windows,10,undefined,undefined,1504 x 1003,1504 x 1003
S009,69,Mannelijk,Rechts,2,81,right,no,50,rightarrow,427,true,focus,yes,525837,Firefox,109.0,Windows,10,undefined,undefined,1504 x 1003,1504 x 1003
S009,69,Mannelijk,Rechts,2,82,left,yes,50,leftarrow,524,false,focus,yes,527119,Firefox,109.0,Windows,10,undefined,undefined,1504 x 1003,1504 x 1003
S009,69,Mannelijk,Rechts,2,83,right,no,50,rightarrow,473,true,focus,yes,528355,Firefox,109.0,Windows,10,undefined,undefined,1504 x 1003,1504 x 1003
S009,69,Mannelijk,Rechts,2,84,right,no,50,rightarrow,531,true,focus,yes,529658,Firefox,109.0,Windows,10,undefined,undefined,1504 x 1003,1504 x 1003
S009,69,Mannelijk,Rechts,2,85,left,no,50,leftarrow,519,true,focus,yes,530955,Firefox,109.0,Windows,10,undefined,undefined,1504 x 1003,1504 x 1003
S009,69,Mannelijk,Rechts,2,86,left,no,50,leftarrow,624,true,focus,yes,532351,Firefox,109.0,Windows,10,undefined,undefined,1504 x 1003,1504 x 1003
S009,69,Mannelijk,Rechts,2,87,right,yes,50,rightarrow,586,false,focus,yes,533711,Firefox,109.0,Windows,10,undefined,undefined,1504 x 1003,1504 x 1003
S009,69,Mannelijk,Rechts,2,88,left,no,50,leftarrow,586,true,focus,yes,535067,Firefox,109.0,Windows,10,undefined,undefined,1504 x 1003,1504 x 1003
S009,69,Mannelijk,Rechts,2,89,right,yes,50,rightarrow,750,false,focus,yes,536594,Firefox,109.0,Windows,10,undefined,undefined,1504 x 1003,1504 x 1003
S009,69,Mannelijk,Rechts,2,90,right,no,50,rightarrow,515,true,focus,yes,537889,Firefox,109.0,Windows,10,undefined,undefined,1504 x 1003,1504 x 1003
S009,69,Mannelijk,Rechts,2,91,left,no,50,leftarrow,542,true,focus,yes,539203,Firefox,109.0,Windows,10,undefined,undefined,1504 x 1003,1504 x 1003
S009,69,Mannelijk,Rechts,2,92,right,no,50,rightarrow,816,true,focus,yes,540784,Firefox,109.0,Windows,10,undefined,undefined,1504 x 1003,1504 x 1003
S009,69,Mannelijk,Rechts,2,93,left,no,50,leftarrow,553,true,focus,yes,542104,Firefox,109.0,Windows,10,undefined,undefined,1504 x 1003,1504 x 1003
S009,69,Mannelijk,Rechts,2,94,right,no,50,rightarrow,649,true,focus,yes,543518,Firefox,109.0,Windows,10,undefined,undefined,1504 x 1003,1504 x 1003
S009,69,Mannelijk,Rechts,2,95,left,yes,50,leftarrow,495,false,focus,yes,544786,Firefox,109.0,Windows,10,undefined,undefined,1504 x 1003,1504 x 1003
S009,69,Mannelijk,Rechts,2,96,left,no,50,leftarrow,534,true,focus,yes,546084,Firefox,109.0,Windows,10,undefined,undefined,1504 x 1003,1504 x 1003
S009,69,Mannelijk,Rechts,2,97,right,no,50,rightarrow,520,true,focus,yes,547369,Firefox,109.0,Windows,10,undefined,undefined,1504 x 1003,1504 x 1003
S009,69,Mannelijk,Rechts,2,98,left,no,50,leftarrow,525,true,focus,yes,548651,Firefox,109.0,Windows,10,undefined,undefined,1504 x 1003,1504 x 1003
S009,69,Mannelijk,Rechts,2,99,left,yes,50,leftarrow,770,false,focus,yes,550196,Firefox,109.0,Windows,10,undefined,undefined,1504 x 1003,1504 x 1003
S009,69,Mannelijk,Rechts,2,100,right,no,50,rightarrow,466,true,focus,yes,551433,Firefox,109.0,Windows,10,undefined,undefined,1504 x 1003,1504 x 1003
S009,69,Mannelijk,Rechts,2,101,left,no,50,leftarrow,446,true,focus,yes,552659,Firefox,109.0,Windows,10,undefined,undefined,1504 x 1003,1504 x 1003
S009,69,Mannelijk,Rechts,2,102,right,no,50,rightarrow,456,true,focus,yes,553880,Firefox,109.0,Windows,10,undefined,undefined,1504 x 1003,1504 x 1003
S009,69,Mannelijk,Rechts,2,103,left,no,50,leftarrow,415,true,focus,yes,555066,Firefox,109.0,Windows,10,undefined,undefined,1504 x 1003,1504 x 1003
S009,69,Mannelijk,Rechts,2,104,right,yes,50,rightarrow,406,false,focus,yes,556232,Firefox,109.0,Windows,10,undefined,undefined,1504 x 1003,1504 x 1003
S009,69,Mannelijk,Rechts,2,105,left,yes,50,leftarrow,445,false,focus,yes,557445,Firefox,109.0,Windows,10,undefined,undefined,1504 x 1003,1504 x 1003
S009,69,Mannelijk,Rechts,2,106,right,no,50,rightarrow,497,true,focus,yes,558714,Firefox,109.0,Windows,10,undefined,undefined,1504 x 1003,1504 x 1003
S009,69,Mannelijk,Rechts,2,107,left,no,50,leftarrow,415,true,focus,yes,559893,Firefox,109.0,Windows,10,undefined,undefined,1504 x 1003,1504 x 1003
S009,69,Mannelijk,Rechts,2,108,right,yes,50,rightarrow,431,false,focus,yes,561090,Firefox,109.0,Windows,10,undefined,undefined,1504 x 1003,1504 x 1003
S009,69,Mannelijk,Rechts,2,109,left,no,50,leftarrow,338,true,focus,yes,562204,Firefox,109.0,Windows,10,undefined,undefined,1504 x 1003,1504 x 1003
S009,69,Mannelijk,Rechts,2,110,left,no,50,leftarrow,724,true,focus,yes,563701,Firefox,109.0,Windows,10,undefined,undefined,1504 x 1003,1504 x 1003
S009,69,Mannelijk,Rechts,2,111,right,no,50,rightarrow,502,true,focus,yes,564968,Firefox,109.0,Windows,10,undefined,undefined,1504 x 1003,1504 x 1003
S009,69,Mannelijk,Rechts,2,112,right,no,50,rightarrow,512,true,focus,yes,566240,Firefox,109.0,Windows,10,undefined,undefined,1504 x 1003,1504 x 1003
S009,69,Mannelijk,Rechts,2,113,right,no,50,rightarrow,377,true,focus,yes,567379,Firefox,109.0,Windows,10,undefined,undefined,1504 x 1003,1504 x 1003
S009,69,Mannelijk,Rechts,2,114,left,no,50,leftarrow,489,true,focus,yes,568641,Firefox,109.0,Windows,10,undefined,undefined,1504 x 1003,1504 x 1003
S009,69,Mannelijk,Rechts,2,115,left,no,50,leftarrow,492,true,focus,yes,569911,Firefox,109.0,Windows,10,undefined,undefined,1504 x 1003,1504 x 1003
S009,69,Mannelijk,Rechts,2,116,right,no,50,rightarrow,495,true,focus,yes,571177,Firefox,109.0,Windows,10,undefined,undefined,1504 x 1003,1504 x 1003
S009,69,Mannelijk,Rechts,2,117,left,yes,50,leftarrow,536,false,focus,yes,572473,Firefox,109.0,Windows,10,undefined,undefined,1504 x 1003,1504 x 1003
S009,69,Mannelijk,Rechts,2,118,right,yes,50,rightarrow,528,false,focus,yes,573769,Firefox,109.0,Windows,10,undefined,undefined,1504 x 1003,1504 x 1003
S009,69,Mannelijk,Rechts,2,119,right,no,50,rightarrow,752,true,focus,yes,575286,Firefox,109.0,Windows,10,undefined,undefined,1504 x 1003,1504 x 1003
S009,69,Mannelijk,Rechts,2,120,left,no,50,leftarrow,573,true,focus,yes,576634,Firefox,109.0,Windows,10,undefined,undefined,1504 x 1003,1504 x 1003
S009,69,Mannelijk,Rechts,2,121,right,no,50,rightarrow,527,true,focus,yes,577936,Firefox,109.0,Windows,10,undefined,undefined,1504 x 1003,1504 x 1003
S009,69,Mannelijk,Rechts,2,122,right,no,50,rightarrow,534,true,focus,yes,579243,Firefox,109.0,Windows,10,undefined,undefined,1504 x 1003,1504 x 1003
S009,69,Mannelijk,Rechts,2,123,left,no,50,leftarrow,486,true,focus,yes,580494,Firefox,109.0,Windows,10,undefined,undefined,1504 x 1003,1504 x 1003
S009,69,Mannelijk,Rechts,2,124,left,no,50,leftarrow,470,true,focus,yes,581738,Firefox,109.0,Windows,10,undefined,undefined,1504 x 1003,1504 x 1003
S009,69,Mannelijk,Rechts,2,125,left,no,50,leftarrow,454,true,focus,yes,582962,Firefox,109.0,Windows,10,undefined,undefined,1504 x 1003,1504 x 1003
S009,69,Mannelijk,Rechts,2,126,right,no,50,rightarrow,555,true,focus,yes,584290,Firefox,109.0,Windows,10,undefined,undefined,1504 x 1003,1504 x 1003
S009,69,Mannelijk,Rechts,2,127,left,yes,50,leftarrow,504,false,focus,yes,585573,Firefox,109.0,Windows,10,undefined,undefined,1504 x 1003,1504 x 1003
S009,69,Mannelijk,Rechts,2,128,right,yes,50,rightarrow,795,false,focus,yes,587129,Firefox,109.0,Windows,10,undefined,undefined,1504 x 1003,1504 x 1003
S009,69,Mannelijk,Rechts,3,1,right,no,50,rightarrow,615,true,focus,yes,608908,Firefox,109.0,Windows,10,undefined,undefined,1504 x 1003,1504 x 1003
S009,69,Mannelijk,Rechts,3,2,right,no,50,rightarrow,524,true,focus,yes,610202,Firefox,109.0,Windows,10,undefined,undefined,1504 x 1003,1504 x 1003
S009,69,Mannelijk,Rechts,3,3,left,no,50,leftarrow,519,true,focus,yes,611486,Firefox,109.0,Windows,10,undefined,undefined,1504 x 1003,1504 x 1003
S009,69,Mannelijk,Rechts,3,4,right,yes,50,rightarrow,605,false,focus,yes,612851,Firefox,109.0,Windows,10,undefined,undefined,1504 x 1003,1504 x 1003
S009,69,Mannelijk,Rechts,3,5,left,no,50,leftarrow,509,true,focus,yes,614127,Firefox,109.0,Windows,10,undefined,undefined,1504 x 1003,1504 x 1003
S009,69,Mannelijk,Rechts,3,6,right,no,50,rightarrow,468,true,focus,yes,615362,Firefox,109.0,Windows,10,undefined,undefined,1504 x 1003,1504 x 1003
S009,69,Mannelijk,Rechts,3,7,left,yes,50,leftarrow,561,false,focus,yes,616688,Firefox,109.0,Windows,10,undefined,undefined,1504 x 1003,1504 x 1003
S009,69,Mannelijk,Rechts,3,8,left,no,50,leftarrow,508,true,focus,yes,617968,Firefox,109.0,Windows,10,undefined,undefined,1504 x 1003,1504 x 1003
S009,69,Mannelijk,Rechts,3,9,left,no,50,leftarrow,591,true,focus,yes,619327,Firefox,109.0,Windows,10,undefined,undefined,1504 x 1003,1504 x 1003
S009,69,Mannelijk,Rechts,3,10,left,no,50,leftarrow,521,true,focus,yes,620612,Firefox,109.0,Windows,10,undefined,undefined,1504 x 1003,1504 x 1003
S009,69,Mannelijk,Rechts,3,11,right,no,50,rightarrow,576,true,focus,yes,621963,Firefox,109.0,Windows,10,undefined,undefined,1504 x 1003,1504 x 1003
S009,69,Mannelijk,Rechts,3,12,right,no,50,rightarrow,505,true,focus,yes,623241,Firefox,109.0,Windows,10,undefined,undefined,1504 x 1003,1504 x 1003
S009,69,Mannelijk,Rechts,3,13,right,yes,50,rightarrow,553,false,focus,yes,624562,Firefox,109.0,Windows,10,undefined,undefined,1504 x 1003,1504 x 1003
S009,69,Mannelijk,Rechts,3,14,left,no,50,leftarrow,437,true,focus,yes,625761,Firefox,109.0,Windows,10,undefined,undefined,1504 x 1003,1504 x 1003
S009,69,Mannelijk,Rechts,3,15,right,no,50,rightarrow,424,true,focus,yes,626951,Firefox,109.0,Windows,10,undefined,undefined,1504 x 1003,1504 x 1003
S009,69,Mannelijk,Rechts,3,16,left,yes,50,leftarrow,520,false,focus,yes,628247,Firefox,109.0,Windows,10,undefined,undefined,1504 x 1003,1504 x 1003
S009,69,Mannelijk,Rechts,3,17,right,no,50,rightarrow,406,true,focus,yes,629418,Firefox,109.0,Windows,10,undefined,undefined,1504 x 1003,1504 x 1003
S009,69,Mannelijk,Rechts,3,18,left,no,50,leftarrow,425,true,focus,yes,630618,Firefox,109.0,Windows,10,undefined,undefined,1504 x 1003,1504 x 1003
S009,69,Mannelijk,Rechts,3,19,right,yes,50,rightarrow,369,false,focus,yes,631747,Firefox,109.0,Windows,10,undefined,undefined,1504 x 1003,1504 x 1003
S009,69,Mannelijk,Rechts,3,20,left,no,50,leftarrow,387,true,focus,yes,632913,Firefox,109.0,Windows,10,undefined,undefined,1504 x 1003,1504 x 1003
S009,69,Mannelijk,Rechts,3,21,left,no,50,leftarrow,598,true,focus,yes,634277,Firefox,109.0,Windows,10,undefined,undefined,1504 x 1003,1504 x 1003
S009,69,Mannelijk,Rechts,3,22,right,no,50,rightarrow,767,true,focus,yes,635814,Firefox,109.0,Windows,10,undefined,undefined,1504 x 1003,1504 x 1003
S009,69,Mannelijk,Rechts,3,23,left,yes,50,undefined,null,true,focus,yes,637836,Firefox,109.0,Windows,10,undefined,undefined,1504 x 1003,1504 x 1003
S009,69,Mannelijk,Rechts,3,24,right,no,100,rightarrow,573,true,focus,yes,639184,Firefox,109.0,Windows,10,undefined,undefined,1504 x 1003,1504 x 1003
S009,69,Mannelijk,Rechts,3,25,left,no,100,leftarrow,603,true,focus,yes,640548,Firefox,109.0,Windows,10,undefined,undefined,1504 x 1003,1504 x 1003
S009,69,Mannelijk,Rechts,3,26,left,no,100,leftarrow,451,true,focus,yes,641769,Firefox,109.0,Windows,10,undefined,undefined,1504 x 1003,1504 x 1003
S009,69,Mannelijk,Rechts,3,27,right,no,100,rightarrow,681,true,focus,yes,643218,Firefox,109.0,Windows,10,undefined,undefined,1504 x 1003,1504 x 1003
S009,69,Mannelijk,Rechts,3,28,right,no,100,rightarrow,500,true,focus,yes,644493,Firefox,109.0,Windows,10,undefined,undefined,1504 x 1003,1504 x 1003
S009,69,Mannelijk,Rechts,3,29,right,no,100,rightarrow,447,true,focus,yes,645720,Firefox,109.0,Windows,10,undefined,undefined,1504 x 1003,1504 x 1003
S009,69,Mannelijk,Rechts,3,30,right,yes,100,undefined,null,true,focus,yes,647752,Firefox,109.0,Windows,10,undefined,undefined,1504 x 1003,1504 x 1003
S009,69,Mannelijk,Rechts,3,31,left,yes,150,leftarrow,484,false,focus,yes,649003,Firefox,109.0,Windows,10,undefined,undefined,1504 x 1003,1504 x 1003
S009,69,Mannelijk,Rechts,3,32,left,no,100,leftarrow,612,true,focus,yes,650387,Firefox,109.0,Windows,10,undefined,undefined,1504 x 1003,1504 x 1003
S009,69,Mannelijk,Rechts,3,33,right,no,100,rightarrow,440,true,focus,yes,651592,Firefox,109.0,Windows,10,undefined,undefined,1504 x 1003,1504 x 1003
S009,69,Mannelijk,Rechts,3,34,left,no,100,leftarrow,405,true,focus,yes,652772,Firefox,109.0,Windows,10,undefined,undefined,1504 x 1003,1504 x 1003
S009,69,Mannelijk,Rechts,3,35,left,no,100,leftarrow,540,true,focus,yes,654084,Firefox,109.0,Windows,10,undefined,undefined,1504 x 1003,1504 x 1003
S009,69,Mannelijk,Rechts,3,36,left,no,100,leftarrow,519,true,focus,yes,655363,Firefox,109.0,Windows,10,undefined,undefined,1504 x 1003,1504 x 1003
S009,69,Mannelijk,Rechts,3,37,right,no,100,rightarrow,481,true,focus,yes,656618,Firefox,109.0,Windows,10,undefined,undefined,1504 x 1003,1504 x 1003
S009,69,Mannelijk,Rechts,3,38,right,yes,100,undefined,null,true,focus,yes,658651,Firefox,109.0,Windows,10,undefined,undefined,1504 x 1003,1504 x 1003
S009,69,Mannelijk,Rechts,3,39,left,yes,150,leftarrow,557,false,focus,yes,659975,Firefox,109.0,Windows,10,undefined,undefined,1504 x 1003,1504 x 1003
S009,69,Mannelijk,Rechts,3,40,right,no,100,rightarrow,542,true,focus,yes,661287,Firefox,109.0,Windows,10,undefined,undefined,1504 x 1003,1504 x 1003
S009,69,Mannelijk,Rechts,3,41,left,no,100,leftarrow,625,true,focus,yes,662675,Firefox,109.0,Windows,10,undefined,undefined,1504 x 1003,1504 x 1003
S009,69,Mannelijk,Rechts,3,42,right,no,100,rightarrow,523,true,focus,yes,663957,Firefox,109.0,Windows,10,undefined,undefined,1504 x 1003,1504 x 1003
S009,69,Mannelijk,Rechts,3,43,right,no,100,rightarrow,651,true,focus,yes,665386,Firefox,109.0,Windows,10,undefined,undefined,1504 x 1003,1504 x 1003
S009,69,Mannelijk,Rechts,3,44,right,yes,100,undefined,null,true,focus,yes,667413,Firefox,109.0,Windows,10,undefined,undefined,1504 x 1003,1504 x 1003
S009,69,Mannelijk,Rechts,3,45,left,yes,150,undefined,null,true,focus,yes,669450,Firefox,109.0,Windows,10,undefined,undefined,1504 x 1003,1504 x 1003
S009,69,Mannelijk,Rechts,3,46,left,no,200,leftarrow,536,true,focus,yes,670755,Firefox,109.0,Windows,10,undefined,undefined,1504 x 1003,1504 x 1003
S009,69,Mannelijk,Rechts,3,47,left,no,200,leftarrow,458,true,focus,yes,671982,Firefox,109.0,Windows,10,undefined,undefined,1504 x 1003,1504 x 1003
S009,69,Mannelijk,Rechts,3,48,right,no,200,rightarrow,494,true,focus,yes,673246,Firefox,109.0,Windows,10,undefined,undefined,1504 x 1003,1504 x 1003
S009,69,Mannelijk,Rechts,3,49,left,no,200,leftarrow,454,true,focus,yes,674465,Firefox,109.0,Windows,10,undefined,undefined,1504 x 1003,1504 x 1003
S009,69,Mannelijk,Rechts,3,50,right,no,200,rightarrow,479,true,focus,yes,675714,Firefox,109.0,Windows,10,undefined,undefined,1504 x 1003,1504 x 1003
S009,69,Mannelijk,Rechts,3,51,right,no,200,rightarrow,560,true,focus,yes,677044,Firefox,109.0,Windows,10,undefined,undefined,1504 x 1003,1504 x 1003
S009,69,Mannelijk,Rechts,3,52,left,yes,200,leftarrow,554,false,focus,yes,678365,Firefox,109.0,Windows,10,undefined,undefined,1504 x 1003,1504 x 1003
S009,69,Mannelijk,Rechts,3,53,left,no,150,leftarrow,677,true,focus,yes,679813,Firefox,109.0,Windows,10,undefined,undefined,1504 x 1003,1504 x 1003
S009,69,Mannelijk,Rechts,3,54,left,no,150,leftarrow,517,true,focus,yes,681099,Firefox,109.0,Windows,10,undefined,undefined,1504 x 1003,1504 x 1003
S009,69,Mannelijk,Rechts,3,55,right,yes,150,undefined,null,true,focus,yes,683132,Firefox,109.0,Windows,10,undefined,undefined,1504 x 1003,1504 x 1003
S009,69,Mannelijk,Rechts,3,56,right,no,200,rightarrow,535,true,focus,yes,684437,Firefox,109.0,Windows,10,undefined,undefined,1504 x 1003,1504 x 1003
S009,69,Mannelijk,Rechts,3,57,left,no,200,leftarrow,604,true,focus,yes,685811,Firefox,109.0,Windows,10,undefined,undefined,1504 x 1003,1504 x 1003
S009,69,Mannelijk,Rechts,3,58,right,yes,200,undefined,null,true,focus,yes,687837,Firefox,109.0,Windows,10,undefined,undefined,1504 x 1003,1504 x 1003
S009,69,Mannelijk,Rechts,3,59,left,no,250,leftarrow,428,true,focus,yes,689036,Firefox,109.0,Windows,10,undefined,undefined,1504 x 1003,1504 x 1003
S009,69,Mannelijk,Rechts,3,60,right,no,250,rightarrow,423,true,focus,yes,690234,Firefox,109.0,Windows,10,undefined,undefined,1504 x 1003,1504 x 1003
S009,69,Mannelijk,Rechts,3,61,left,yes,250,leftarrow,441,false,focus,yes,691443,Firefox,109.0,Windows,10,undefined,undefined,1504 x 1003,1504 x 1003
S009,69,Mannelijk,Rechts,3,62,left,no,200,leftarrow,977,true,focus,yes,693188,Firefox,109.0,Windows,10,undefined,undefined,1504 x 1003,1504 x 1003
S009,69,Mannelijk,Rechts,3,63,right,no,200,rightarrow,427,true,focus,yes,694387,Firefox,109.0,Windows,10,undefined,undefined,1504 x 1003,1504 x 1003
S009,69,Mannelijk,Rechts,3,64,right,no,200,rightarrow,531,true,focus,yes,695692,Firefox,109.0,Windows,10,undefined,undefined,1504 x 1003,1504 x 1003
S009,69,Mannelijk,Rechts,3,65,left,no,200,leftarrow,535,true,focus,yes,696994,Firefox,109.0,Windows,10,undefined,undefined,1504 x 1003,1504 x 1003
S009,69,Mannelijk,Rechts,3,66,right,no,200,rightarrow,445,true,focus,yes,698222,Firefox,109.0,Windows,10,undefined,undefined,1504 x 1003,1504 x 1003
S009,69,Mannelijk,Rechts,3,67,right,no,200,rightarrow,503,true,focus,yes,699482,Firefox,109.0,Windows,10,undefined,undefined,1504 x 1003,1504 x 1003
S009,69,Mannelijk,Rechts,3,68,right,yes,200,undefined,null,true,focus,yes,701518,Firefox,109.0,Windows,10,undefined,undefined,1504 x 1003,1504 x 1003
S009,69,Mannelijk,Rechts,3,69,left,no,250,leftarrow,555,true,focus,yes,702834,Firefox,109.0,Windows,10,undefined,undefined,1504 x 1003,1504 x 1003
S009,69,Mannelijk,Rechts,3,70,right,no,250,rightarrow,651,true,focus,yes,704254,Firefox,109.0,Windows,10,undefined,undefined,1504 x 1003,1504 x 1003
S009,69,Mannelijk,Rechts,3,71,left,yes,250,undefined,null,true,focus,yes,706276,Firefox,109.0,Windows,10,undefined,undefined,1504 x 1003,1504 x 1003
S009,69,Mannelijk,Rechts,3,72,left,no,300,leftarrow,514,true,focus,yes,707558,Firefox,109.0,Windows,10,undefined,undefined,1504 x 1003,1504 x 1003
S009,69,Mannelijk,Rechts,3,73,left,no,300,leftarrow,669,true,focus,yes,708988,Firefox,109.0,Windows,10,undefined,undefined,1504 x 1003,1504 x 1003
S009,69,Mannelijk,Rechts,3,74,right,no,300,rightarrow,412,true,focus,yes,710165,Firefox,109.0,Windows,10,undefined,undefined,1504 x 1003,1504 x 1003
S009,69,Mannelijk,Rechts,3,75,left,no,300,leftarrow,454,true,focus,yes,711390,Firefox,109.0,Windows,10,undefined,undefined,1504 x 1003,1504 x 1003
S009,69,Mannelijk,Rechts,3,76,right,no,300,rightarrow,489,true,focus,yes,712648,Firefox,109.0,Windows,10,undefined,undefined,1504 x 1003,1504 x 1003
S009,69,Mannelijk,Rechts,3,77,right,yes,300,rightarrow,648,false,focus,yes,714068,Firefox,109.0,Windows,10,undefined,undefined,1504 x 1003,1504 x 1003
S009,69,Mannelijk,Rechts,3,78,left,yes,250,leftarrow,417,false,focus,yes,715254,Firefox,109.0,Windows,10,undefined,undefined,1504 x 1003,1504 x 1003
S009,69,Mannelijk,Rechts,3,79,right,no,200,rightarrow,385,true,focus,yes,716409,Firefox,109.0,Windows,10,undefined,undefined,1504 x 1003,1504 x 1003
S009,69,Mannelijk,Rechts,3,80,left,no,200,leftarrow,373,true,focus,yes,717551,Firefox,109.0,Windows,10,undefined,undefined,1504 x 1003,1504 x 1003
S009,69,Mannelijk,Rechts,3,81,left,yes,200,rightarrow,316,false,focus,yes,718636,Firefox,109.0,Windows,10,undefined,undefined,1504 x 1003,1504 x 1003
S009,69,Mannelijk,Rechts,3,82,right,no,150,rightarrow,501,true,focus,yes,719905,Firefox,109.0,Windows,10,undefined,undefined,1504 x 1003,1504 x 1003
S009,69,Mannelijk,Rechts,3,83,left,no,150,leftarrow,470,true,focus,yes,721154,Firefox,109.0,Windows,10,undefined,undefined,1504 x 1003,1504 x 1003
S009,69,Mannelijk,Rechts,3,84,right,yes,150,undefined,null,true,focus,yes,723175,Firefox,109.0,Windows,10,undefined,undefined,1504 x 1003,1504 x 1003
S009,69,Mannelijk,Rechts,3,85,right,no,200,rightarrow,571,true,focus,yes,724531,Firefox,109.0,Windows,10,undefined,undefined,1504 x 1003,1504 x 1003
S009,69,Mannelijk,Rechts,3,86,left,no,200,leftarrow,476,true,focus,yes,725780,Firefox,109.0,Windows,10,undefined,undefined,1504 x 1003,1504 x 1003
S009,69,Mannelijk,Rechts,3,87,right,no,200,rightarrow,422,true,focus,yes,726971,Firefox,109.0,Windows,10,undefined,undefined,1504 x 1003,1504 x 1003
S009,69,Mannelijk,Rechts,3,88,left,no,200,leftarrow,457,true,focus,yes,728204,Firefox,109.0,Windows,10,undefined,undefined,1504 x 1003,1504 x 1003
S009,69,Mannelijk,Rechts,3,89,left,yes,200,undefined,null,true,focus,yes,730225,Firefox,109.0,Windows,10,undefined,undefined,1504 x 1003,1504 x 1003
S009,69,Mannelijk,Rechts,3,90,left,no,250,leftarrow,549,true,focus,yes,731544,Firefox,109.0,Windows,10,undefined,undefined,1504 x 1003,1504 x 1003
S009,69,Mannelijk,Rechts,3,91,right,no,250,rightarrow,499,true,focus,yes,732818,Firefox,109.0,Windows,10,undefined,undefined,1504 x 1003,1504 x 1003
S009,69,Mannelijk,Rechts,3,92,right,no,250,rightarrow,437,true,focus,yes,734032,Firefox,109.0,Windows,10,undefined,undefined,1504 x 1003,1504 x 1003
S009,69,Mannelijk,Rechts,3,93,right,yes,250,rightarrow,396,false,focus,yes,735198,Firefox,109.0,Windows,10,undefined,undefined,1504 x 1003,1504 x 1003
S009,69,Mannelijk,Rechts,3,94,right,no,200,rightarrow,791,true,focus,yes,736759,Firefox,109.0,Windows,10,undefined,undefined,1504 x 1003,1504 x 1003
S009,69,Mannelijk,Rechts,3,95,left,no,200,leftarrow,553,true,focus,yes,738082,Firefox,109.0,Windows,10,undefined,undefined,1504 x 1003,1504 x 1003
S009,69,Mannelijk,Rechts,3,96,left,no,200,leftarrow,493,true,focus,yes,739342,Firefox,109.0,Windows,10,undefined,undefined,1504 x 1003,1504 x 1003
S009,69,Mannelijk,Rechts,3,97,right,no,200,rightarrow,1017,true,focus,yes,741130,Firefox,109.0,Windows,10,undefined,undefined,1504 x 1003,1504 x 1003
S009,69,Mannelijk,Rechts,3,98,right,no,200,rightarrow,536,true,focus,yes,742436,Firefox,109.0,Windows,10,undefined,undefined,1504 x 1003,1504 x 1003
S009,69,Mannelijk,Rechts,3,99,right,no,200,rightarrow,569,true,focus,yes,743779,Firefox,109.0,Windows,10,undefined,undefined,1504 x 1003,1504 x 1003
S009,69,Mannelijk,Rechts,3,100,left,no,200,leftarrow,729,true,focus,yes,745280,Firefox,109.0,Windows,10,undefined,undefined,1504 x 1003,1504 x 1003
S009,69,Mannelijk,Rechts,3,101,right,yes,200,undefined,null,true,focus,yes,747303,Firefox,109.0,Windows,10,undefined,undefined,1504 x 1003,1504 x 1003
S009,69,Mannelijk,Rechts,3,102,left,no,250,leftarrow,514,true,focus,yes,748584,Firefox,109.0,Windows,10,undefined,undefined,1504 x 1003,1504 x 1003
S009,69,Mannelijk,Rechts,3,103,left,no,250,leftarrow,478,true,focus,yes,749832,Firefox,109.0,Windows,10,undefined,undefined,1504 x 1003,1504 x 1003
S009,69,Mannelijk,Rechts,3,104,left,yes,250,leftarrow,533,false,focus,yes,751136,Firefox,109.0,Windows,10,undefined,undefined,1504 x 1003,1504 x 1003
S009,69,Mannelijk,Rechts,3,105,right,no,200,rightarrow,543,true,focus,yes,752448,Firefox,109.0,Windows,10,undefined,undefined,1504 x 1003,1504 x 1003
S009,69,Mannelijk,Rechts,3,106,left,no,200,leftarrow,1039,true,focus,yes,754256,Firefox,109.0,Windows,10,undefined,undefined,1504 x 1003,1504 x 1003
S009,69,Mannelijk,Rechts,3,107,left,no,200,leftarrow,473,true,focus,yes,755485,Firefox,109.0,Windows,10,undefined,undefined,1504 x 1003,1504 x 1003
S009,69,Mannelijk,Rechts,3,108,left,yes,200,undefined,null,true,focus,yes,757525,Firefox,109.0,Windows,10,undefined,undefined,1504 x 1003,1504 x 1003
S009,69,Mannelijk,Rechts,3,109,right,no,250,rightarrow,450,true,focus,yes,758762,Firefox,109.0,Windows,10,undefined,undefined,1504 x 1003,1504 x 1003
S009,69,Mannelijk,Rechts,3,110,right,no,250,rightarrow,543,true,focus,yes,760071,Firefox,109.0,Windows,10,undefined,undefined,1504 x 1003,1504 x 1003
S009,69,Mannelijk,Rechts,3,111,right,yes,250,rightarrow,497,false,focus,yes,761332,Firefox,109.0,Windows,10,undefined,undefined,1504 x 1003,1504 x 1003
S009,69,Mannelijk,Rechts,3,112,left,no,200,leftarrow,480,true,focus,yes,762577,Firefox,109.0,Windows,10,undefined,undefined,1504 x 1003,1504 x 1003
S009,69,Mannelijk,Rechts,3,113,right,yes,200,undefined,null,true,focus,yes,764601,Firefox,109.0,Windows,10,undefined,undefined,1504 x 1003,1504 x 1003
S009,69,Mannelijk,Rechts,3,114,right,no,250,rightarrow,393,true,focus,yes,765772,Firefox,109.0,Windows,10,undefined,undefined,1504 x 1003,1504 x 1003
S009,69,Mannelijk,Rechts,3,115,right,no,250,rightarrow,510,true,focus,yes,767053,Firefox,109.0,Windows,10,undefined,undefined,1504 x 1003,1504 x 1003
S009,69,Mannelijk,Rechts,3,116,left,no,250,leftarrow,565,true,focus,yes,768379,Firefox,109.0,Windows,10,undefined,undefined,1504 x 1003,1504 x 1003
S009,69,Mannelijk,Rechts,3,117,right,no,250,rightarrow,544,true,focus,yes,769690,Firefox,109.0,Windows,10,undefined,undefined,1504 x 1003,1504 x 1003
S009,69,Mannelijk,Rechts,3,118,left,no,250,leftarrow,495,true,focus,yes,770947,Firefox,109.0,Windows,10,undefined,undefined,1504 x 1003,1504 x 1003
S009,69,Mannelijk,Rechts,3,119,left,yes,250,undefined,null,true,focus,yes,772969,Firefox,109.0,Windows,10,undefined,undefined,1504 x 1003,1504 x 1003
S009,69,Mannelijk,Rechts,3,120,left,no,300,leftarrow,427,true,focus,yes,774160,Firefox,109.0,Windows,10,undefined,undefined,1504 x 1003,1504 x 1003
S009,69,Mannelijk,Rechts,3,121,left,no,300,leftarrow,514,true,focus,yes,775442,Firefox,109.0,Windows,10,undefined,undefined,1504 x 1003,1504 x 1003
S009,69,Mannelijk,Rechts,3,122,left,yes,300,leftarrow,498,false,focus,yes,776710,Firefox,109.0,Windows,10,undefined,undefined,1504 x 1003,1504 x 1003
S009,69,Mannelijk,Rechts,3,123,right,no,250,rightarrow,832,true,focus,yes,778320,Firefox,109.0,Windows,10,undefined,undefined,1504 x 1003,1504 x 1003
S009,69,Mannelijk,Rechts,3,124,right,no,250,rightarrow,567,true,focus,yes,779646,Firefox,109.0,Windows,10,undefined,undefined,1504 x 1003,1504 x 1003
S009,69,Mannelijk,Rechts,3,125,right,yes,250,undefined,null,true,focus,yes,781675,Firefox,109.0,Windows,10,undefined,undefined,1504 x 1003,1504 x 1003
S009,69,Mannelijk,Rechts,3,126,right,no,300,rightarrow,626,true,focus,yes,783071,Firefox,109.0,Windows,10,undefined,undefined,1504 x 1003,1504 x 1003
S009,69,Mannelijk,Rechts,3,127,left,no,300,leftarrow,548,true,focus,yes,784394,Firefox,109.0,Windows,10,undefined,undefined,1504 x 1003,1504 x 1003
S009,69,Mannelijk,Rechts,3,128,left,no,300,leftarrow,916,true,focus,yes,786079,Firefox,109.0,Windows,10,undefined,undefined,1504 x 1003,1504 x 1003
S009,69,Mannelijk,Rechts,4,1,right,no,300,rightarrow,643,true,focus,yes,807071,Firefox,109.0,Windows,10,undefined,undefined,1504 x 1003,1504 x 1003
S009,69,Mannelijk,Rechts,4,2,left,no,300,leftarrow,529,true,focus,yes,808375,Firefox,109.0,Windows,10,undefined,undefined,1504 x 1003,1504 x 1003
S009,69,Mannelijk,Rechts,4,3,right,no,300,rightarrow,459,true,focus,yes,809613,Firefox,109.0,Windows,10,undefined,undefined,1504 x 1003,1504 x 1003
S009,69,Mannelijk,Rechts,4,4,right,yes,300,undefined,null,true,focus,yes,811634,Firefox,109.0,Windows,10,undefined,undefined,1504 x 1003,1504 x 1003
S009,69,Mannelijk,Rechts,4,5,left,no,350,leftarrow,560,true,focus,yes,812972,Firefox,109.0,Windows,10,undefined,undefined,1504 x 1003,1504 x 1003
S009,69,Mannelijk,Rechts,4,6,right,no,350,rightarrow,791,true,focus,yes,814536,Firefox,109.0,Windows,10,undefined,undefined,1504 x 1003,1504 x 1003
S009,69,Mannelijk,Rechts,4,7,left,yes,350,undefined,null,true,focus,yes,816560,Firefox,109.0,Windows,10,undefined,undefined,1504 x 1003,1504 x 1003
S009,69,Mannelijk,Rechts,4,8,left,no,400,leftarrow,517,true,focus,yes,817843,Firefox,109.0,Windows,10,undefined,undefined,1504 x 1003,1504 x 1003
S009,69,Mannelijk,Rechts,4,9,right,no,400,rightarrow,678,true,focus,yes,819296,Firefox,109.0,Windows,10,undefined,undefined,1504 x 1003,1504 x 1003
S009,69,Mannelijk,Rechts,4,10,left,yes,400,undefined,null,true,focus,yes,821318,Firefox,109.0,Windows,10,undefined,undefined,1504 x 1003,1504 x 1003
S009,69,Mannelijk,Rechts,4,11,right,no,450,rightarrow,500,true,focus,yes,822587,Firefox,109.0,Windows,10,undefined,undefined,1504 x 1003,1504 x 1003
S009,69,Mannelijk,Rechts,4,12,left,no,450,leftarrow,768,true,focus,yes,824130,Firefox,109.0,Windows,10,undefined,undefined,1504 x 1003,1504 x 1003
S009,69,Mannelijk,Rechts,4,13,right,yes,450,undefined,null,true,focus,yes,826145,Firefox,109.0,Windows,10,undefined,undefined,1504 x 1003,1504 x 1003
S009,69,Mannelijk,Rechts,4,14,right,no,500,rightarrow,476,true,focus,yes,827390,Firefox,109.0,Windows,10,undefined,undefined,1504 x 1003,1504 x 1003
S009,69,Mannelijk,Rechts,4,15,left,no,500,leftarrow,719,true,focus,yes,828865,Firefox,109.0,Windows,10,undefined,undefined,1504 x 1003,1504 x 1003
S009,69,Mannelijk,Rechts,4,16,left,no,500,leftarrow,481,true,focus,yes,830116,Firefox,109.0,Windows,10,undefined,undefined,1504 x 1003,1504 x 1003
S009,69,Mannelijk,Rechts,4,17,right,yes,500,rightarrow,623,false,focus,yes,831504,Firefox,109.0,Windows,10,undefined,undefined,1504 x 1003,1504 x 1003
S009,69,Mannelijk,Rechts,4,18,left,no,450,leftarrow,1036,true,focus,yes,833298,Firefox,109.0,Windows,10,undefined,undefined,1504 x 1003,1504 x 1003
S009,69,Mannelijk,Rechts,4,19,right,no,450,rightarrow,952,true,focus,yes,835021,Firefox,109.0,Windows,10,undefined,undefined,1504 x 1003,1504 x 1003
S009,69,Mannelijk,Rechts,4,20,left,yes,450,leftarrow,647,false,focus,yes,836437,Firefox,109.0,Windows,10,undefined,undefined,1504 x 1003,1504 x 1003
S009,69,Mannelijk,Rechts,4,21,right,no,400,rightarrow,973,true,focus,yes,838180,Firefox,109.0,Windows,10,undefined,undefined,1504 x 1003,1504 x 1003
S009,69,Mannelijk,Rechts,4,22,left,no,400,leftarrow,1104,true,focus,yes,840063,Firefox,109.0,Windows,10,undefined,undefined,1504 x 1003,1504 x 1003
S009,69,Mannelijk,Rechts,4,23,right,no,400,rightarrow,838,true,focus,yes,841683,Firefox,109.0,Windows,10,undefined,undefined,1504 x 1003,1504 x 1003
S009,69,Mannelijk,Rechts,4,24,left,no,400,leftarrow,962,true,focus,yes,843403,Firefox,109.0,Windows,10,undefined,undefined,1504 x 1003,1504 x 1003
S009,69,Mannelijk,Rechts,4,25,right,no,400,rightarrow,1030,true,focus,yes,845196,Firefox,109.0,Windows,10,undefined,undefined,1504 x 1003,1504 x 1003
S009,69,Mannelijk,Rechts,4,26,left,no,400,leftarrow,599,true,focus,yes,846567,Firefox,109.0,Windows,10,undefined,undefined,1504 x 1003,1504 x 1003
S009,69,Mannelijk,Rechts,4,27,right,no,400,rightarrow,876,true,focus,yes,848210,Firefox,109.0,Windows,10,undefined,undefined,1504 x 1003,1504 x 1003
S009,69,Mannelijk,Rechts,4,28,right,no,400,rightarrow,1131,true,focus,yes,850106,Firefox,109.0,Windows,10,undefined,undefined,1504 x 1003,1504 x 1003
S009,69,Mannelijk,Rechts,4,29,left,no,400,leftarrow,510,true,focus,yes,851383,Firefox,109.0,Windows,10,undefined,undefined,1504 x 1003,1504 x 1003
S009,69,Mannelijk,Rechts,4,30,right,yes,400,rightarrow,582,false,focus,yes,852752,Firefox,109.0,Windows,10,undefined,undefined,1504 x 1003,1504 x 1003
S009,69,Mannelijk,Rechts,4,31,left,no,350,leftarrow,1022,true,focus,yes,854553,Firefox,109.0,Windows,10,undefined,undefined,1504 x 1003,1504 x 1003
S009,69,Mannelijk,Rechts,4,32,left,yes,350,undefined,null,true,focus,yes,856583,Firefox,109.0,Windows,10,undefined,undefined,1504 x 1003,1504 x 1003
S009,69,Mannelijk,Rechts,4,33,right,no,400,rightarrow,805,true,focus,yes,858156,Firefox,109.0,Windows,10,undefined,undefined,1504 x 1003,1504 x 1003
S009,69,Mannelijk,Rechts,4,34,right,yes,400,undefined,null,true,focus,yes,860183,Firefox,109.0,Windows,10,undefined,undefined,1504 x 1003,1504 x 1003
S009,69,Mannelijk,Rechts,4,35,right,no,450,rightarrow,660,true,focus,yes,861604,Firefox,109.0,Windows,10,undefined,undefined,1504 x 1003,1504 x 1003
S009,69,Mannelijk,Rechts,4,36,left,no,450,leftarrow,614,true,focus,yes,862986,Firefox,109.0,Windows,10,undefined,undefined,1504 x 1003,1504 x 1003
S009,69,Mannelijk,Rechts,4,37,left,yes,450,leftarrow,642,false,focus,yes,864398,Firefox,109.0,Windows,10,undefined,undefined,1504 x 1003,1504 x 1003
S009,69,Mannelijk,Rechts,4,38,right,no,400,rightarrow,810,true,focus,yes,865976,Firefox,109.0,Windows,10,undefined,undefined,1504 x 1003,1504 x 1003
S009,69,Mannelijk,Rechts,4,39,left,no,400,leftarrow,904,true,focus,yes,867652,Firefox,109.0,Windows,10,undefined,undefined,1504 x 1003,1504 x 1003
S009,69,Mannelijk,Rechts,4,40,left,no,400,leftarrow,799,true,focus,yes,869227,Firefox,109.0,Windows,10,undefined,undefined,1504 x 1003,1504 x 1003
S009,69,Mannelijk,Rechts,4,41,left,no,400,leftarrow,819,true,focus,yes,870827,Firefox,109.0,Windows,10,undefined,undefined,1504 x 1003,1504 x 1003
S009,69,Mannelijk,Rechts,4,42,right,yes,400,rightarrow,638,false,focus,yes,872233,Firefox,109.0,Windows,10,undefined,undefined,1504 x 1003,1504 x 1003
S009,69,Mannelijk,Rechts,4,43,right,no,350,rightarrow,1011,true,focus,yes,874018,Firefox,109.0,Windows,10,undefined,undefined,1504 x 1003,1504 x 1003
S009,69,Mannelijk,Rechts,4,44,left,no,350,leftarrow,1063,true,focus,yes,875860,Firefox,109.0,Windows,10,undefined,undefined,1504 x 1003,1504 x 1003
S009,69,Mannelijk,Rechts,4,45,right,no,350,rightarrow,663,true,focus,yes,877293,Firefox,109.0,Windows,10,undefined,undefined,1504 x 1003,1504 x 1003
S009,69,Mannelijk,Rechts,4,46,left,yes,350,undefined,null,true,focus,yes,879319,Firefox,109.0,Windows,10,undefined,undefined,1504 x 1003,1504 x 1003
S009,69,Mannelijk,Rechts,4,47,left,no,400,leftarrow,586,true,focus,yes,880674,Firefox,109.0,Windows,10,undefined,undefined,1504 x 1003,1504 x 1003
S009,69,Mannelijk,Rechts,4,48,right,no,400,rightarrow,887,true,focus,yes,882317,Firefox,109.0,Windows,10,undefined,undefined,1504 x 1003,1504 x 1003
S009,69,Mannelijk,Rechts,4,49,left,no,400,leftarrow,890,true,focus,yes,883977,Firefox,109.0,Windows,10,undefined,undefined,1504 x 1003,1504 x 1003
S009,69,Mannelijk,Rechts,4,50,right,yes,400,undefined,null,true,focus,yes,886003,Firefox,109.0,Windows,10,undefined,undefined,1504 x 1003,1504 x 1003
S009,69,Mannelijk,Rechts,4,51,left,no,450,leftarrow,514,true,focus,yes,887288,Firefox,109.0,Windows,10,undefined,undefined,1504 x 1003,1504 x 1003
S009,69,Mannelijk,Rechts,4,52,right,no,450,rightarrow,548,true,focus,yes,888617,Firefox,109.0,Windows,10,undefined,undefined,1504 x 1003,1504 x 1003
S009,69,Mannelijk,Rechts,4,53,left,yes,450,undefined,null,true,focus,yes,890637,Firefox,109.0,Windows,10,undefined,undefined,1504 x 1003,1504 x 1003
S009,69,Mannelijk,Rechts,4,54,left,no,500,leftarrow,570,true,focus,yes,891976,Firefox,109.0,Windows,10,undefined,undefined,1504 x 1003,1504 x 1003
S009,69,Mannelijk,Rechts,4,55,right,no,500,rightarrow,524,true,focus,yes,893275,Firefox,109.0,Windows,10,undefined,undefined,1504 x 1003,1504 x 1003
S009,69,Mannelijk,Rechts,4,56,right,no,500,rightarrow,634,true,focus,yes,894680,Firefox,109.0,Windows,10,undefined,undefined,1504 x 1003,1504 x 1003
S009,69,Mannelijk,Rechts,4,57,left,no,500,leftarrow,642,true,focus,yes,896090,Firefox,109.0,Windows,10,undefined,undefined,1504 x 1003,1504 x 1003
S009,69,Mannelijk,Rechts,4,58,right,no,500,rightarrow,726,true,focus,yes,897597,Firefox,109.0,Windows,10,undefined,undefined,1504 x 1003,1504 x 1003
S009,69,Mannelijk,Rechts,4,59,right,no,500,rightarrow,765,true,focus,yes,899130,Firefox,109.0,Windows,10,undefined,undefined,1504 x 1003,1504 x 1003
S009,69,Mannelijk,Rechts,4,60,left,no,500,leftarrow,930,true,focus,yes,900833,Firefox,109.0,Windows,10,undefined,undefined,1504 x 1003,1504 x 1003
S009,69,Mannelijk,Rechts,4,61,right,no,500,rightarrow,987,true,focus,yes,902597,Firefox,109.0,Windows,10,undefined,undefined,1504 x 1003,1504 x 1003
S009,69,Mannelijk,Rechts,4,62,left,yes,500,undefined,null,true,focus,yes,904631,Firefox,109.0,Windows,10,undefined,undefined,1504 x 1003,1504 x 1003
S009,69,Mannelijk,Rechts,4,63,right,yes,550,undefined,null,true,focus,yes,906663,Firefox,109.0,Windows,10,undefined,undefined,1504 x 1003,1504 x 1003
S009,69,Mannelijk,Rechts,4,64,left,no,600,leftarrow,883,true,focus,yes,908316,Firefox,109.0,Windows,10,undefined,undefined,1504 x 1003,1504 x 1003
S009,69,Mannelijk,Rechts,4,65,left,yes,600,undefined,null,true,focus,yes,910348,Firefox,109.0,Windows,10,undefined,undefined,1504 x 1003,1504 x 1003
S009,69,Mannelijk,Rechts,4,66,right,no,650,rightarrow,1086,true,focus,yes,912207,Firefox,109.0,Windows,10,undefined,undefined,1504 x 1003,1504 x 1003
S009,69,Mannelijk,Rechts,4,67,left,no,650,leftarrow,1234,true,focus,yes,914200,Firefox,109.0,Windows,10,undefined,undefined,1504 x 1003,1504 x 1003
S009,69,Mannelijk,Rechts,4,68,right,yes,650,undefined,null,true,focus,yes,916224,Firefox,109.0,Windows,10,undefined,undefined,1504 x 1003,1504 x 1003
S009,69,Mannelijk,Rechts,4,69,left,no,700,leftarrow,839,true,focus,yes,917836,Firefox,109.0,Windows,10,undefined,undefined,1504 x 1003,1504 x 1003
S009,69,Mannelijk,Rechts,4,70,right,no,700,rightarrow,1165,true,focus,yes,919770,Firefox,109.0,Windows,10,undefined,undefined,1504 x 1003,1504 x 1003
S009,69,Mannelijk,Rechts,4,71,left,no,700,leftarrow,760,true,focus,yes,921303,Firefox,109.0,Windows,10,undefined,undefined,1504 x 1003,1504 x 1003
S009,69,Mannelijk,Rechts,4,72,right,no,700,rightarrow,865,true,focus,yes,922937,Firefox,109.0,Windows,10,undefined,undefined,1504 x 1003,1504 x 1003
S009,69,Mannelijk,Rechts,4,73,right,no,700,rightarrow,748,true,focus,yes,924453,Firefox,109.0,Windows,10,undefined,undefined,1504 x 1003,1504 x 1003
S009,69,Mannelijk,Rechts,4,74,left,no,700,leftarrow,801,true,focus,yes,926031,Firefox,109.0,Windows,10,undefined,undefined,1504 x 1003,1504 x 1003
S009,69,Mannelijk,Rechts,4,75,left,yes,700,leftarrow,886,false,focus,yes,927682,Firefox,109.0,Windows,10,undefined,undefined,1504 x 1003,1504 x 1003
S009,69,Mannelijk,Rechts,4,76,left,no,650,undefined,null,false,focus,yes,929704,Firefox,109.0,Windows,10,undefined,undefined,1504 x 1003,1504 x 1003
S009,69,Mannelijk,Rechts,4,77,left,no,650,leftarrow,979,true,focus,yes,931461,Firefox,109.0,Windows,10,undefined,undefined,1504 x 1003,1504 x 1003
S009,69,Mannelijk,Rechts,4,78,right,no,650,rightarrow,1072,true,focus,yes,933304,Firefox,109.0,Windows,10,undefined,undefined,1504 x 1003,1504 x 1003
S009,69,Mannelijk,Rechts,4,79,right,yes,650,undefined,null,true,focus,yes,935337,Firefox,109.0,Windows,10,undefined,undefined,1504 x 1003,1504 x 1003
S009,69,Mannelijk,Rechts,4,80,right,no,700,rightarrow,726,true,focus,yes,936823,Firefox,109.0,Windows,10,undefined,undefined,1504 x 1003,1504 x 1003
S009,69,Mannelijk,Rechts,4,81,left,no,700,leftarrow,664,true,focus,yes,938260,Firefox,109.0,Windows,10,undefined,undefined,1504 x 1003,1504 x 1003
S009,69,Mannelijk,Rechts,4,82,left,no,700,undefined,null,false,focus,yes,940287,Firefox,109.0,Windows,10,undefined,undefined,1504 x 1003,1504 x 1003
S009,69,Mannelijk,Rechts,4,83,left,yes,700,leftarrow,751,false,focus,yes,941807,Firefox,109.0,Windows,10,undefined,undefined,1504 x 1003,1504 x 1003
S009,69,Mannelijk,Rechts,4,84,right,no,650,rightarrow,591,true,focus,yes,943163,Firefox,109.0,Windows,10,undefined,undefined,1504 x 1003,1504 x 1003
S009,69,Mannelijk,Rechts,4,85,right,yes,650,rightarrow,853,false,focus,yes,944783,Firefox,109.0,Windows,10,undefined,undefined,1504 x 1003,1504 x 1003
S009,69,Mannelijk,Rechts,4,86,left,no,600,leftarrow,915,true,focus,yes,946472,Firefox,109.0,Windows,10,undefined,undefined,1504 x 1003,1504 x 1003
S009,69,Mannelijk,Rechts,4,87,right,no,600,rightarrow,1010,true,focus,yes,948259,Firefox,109.0,Windows,10,undefined,undefined,1504 x 1003,1504 x 1003
S009,69,Mannelijk,Rechts,4,88,right,no,600,rightarrow,852,true,focus,yes,949882,Firefox,109.0,Windows,10,undefined,undefined,1504 x 1003,1504 x 1003
S009,69,Mannelijk,Rechts,4,89,left,no,600,leftarrow,599,true,focus,yes,951250,Firefox,109.0,Windows,10,undefined,undefined,1504 x 1003,1504 x 1003
S009,69,Mannelijk,Rechts,4,90,left,no,600,leftarrow,962,true,focus,yes,952985,Firefox,109.0,Windows,10,undefined,undefined,1504 x 1003,1504 x 1003
S009,69,Mannelijk,Rechts,4,91,right,no,600,rightarrow,604,true,focus,yes,954367,Firefox,109.0,Windows,10,undefined,undefined,1504 x 1003,1504 x 1003
S009,69,Mannelijk,Rechts,4,92,right,no,600,rightarrow,1042,true,focus,yes,956189,Firefox,109.0,Windows,10,undefined,undefined,1504 x 1003,1504 x 1003
S009,69,Mannelijk,Rechts,4,93,left,no,600,leftarrow,727,true,focus,yes,957682,Firefox,109.0,Windows,10,undefined,undefined,1504 x 1003,1504 x 1003
S009,69,Mannelijk,Rechts,4,94,right,yes,600,rightarrow,817,false,focus,yes,959273,Firefox,109.0,Windows,10,undefined,undefined,1504 x 1003,1504 x 1003
S009,69,Mannelijk,Rechts,4,95,left,yes,550,undefined,null,true,focus,yes,961295,Firefox,109.0,Windows,10,undefined,undefined,1504 x 1003,1504 x 1003
S009,69,Mannelijk,Rechts,4,96,right,no,600,rightarrow,926,true,focus,yes,962989,Firefox,109.0,Windows,10,undefined,undefined,1504 x 1003,1504 x 1003
S009,69,Mannelijk,Rechts,4,97,left,no,600,leftarrow,984,true,focus,yes,964749,Firefox,109.0,Windows,10,undefined,undefined,1504 x 1003,1504 x 1003
S009,69,Mannelijk,Rechts,4,98,left,yes,600,leftarrow,610,false,focus,yes,966129,Firefox,109.0,Windows,10,undefined,undefined,1504 x 1003,1504 x 1003
S009,69,Mannelijk,Rechts,4,99,right,no,550,rightarrow,820,true,focus,yes,967715,Firefox,109.0,Windows,10,undefined,undefined,1504 x 1003,1504 x 1003
S009,69,Mannelijk,Rechts,4,100,left,no,550,leftarrow,793,true,focus,yes,969274,Firefox,109.0,Windows,10,undefined,undefined,1504 x 1003,1504 x 1003
S009,69,Mannelijk,Rechts,4,101,left,no,550,leftarrow,665,true,focus,yes,970700,Firefox,109.0,Windows,10,undefined,undefined,1504 x 1003,1504 x 1003
S009,69,Mannelijk,Rechts,4,102,right,yes,550,rightarrow,667,false,focus,yes,972141,Firefox,109.0,Windows,10,undefined,undefined,1504 x 1003,1504 x 1003
S009,69,Mannelijk,Rechts,4,103,right,no,500,rightarrow,877,true,focus,yes,973790,Firefox,109.0,Windows,10,undefined,undefined,1504 x 1003,1504 x 1003
S009,69,Mannelijk,Rechts,4,104,right,no,500,rightarrow,883,true,focus,yes,975447,Firefox,109.0,Windows,10,undefined,undefined,1504 x 1003,1504 x 1003
S009,69,Mannelijk,Rechts,4,105,left,yes,500,undefined,null,true,focus,yes,977482,Firefox,109.0,Windows,10,undefined,undefined,1504 x 1003,1504 x 1003
S009,69,Mannelijk,Rechts,4,106,left,no,550,leftarrow,559,true,focus,yes,978814,Firefox,109.0,Windows,10,undefined,undefined,1504 x 1003,1504 x 1003
S009,69,Mannelijk,Rechts,4,107,right,yes,550,rightarrow,514,false,focus,yes,980106,Firefox,109.0,Windows,10,undefined,undefined,1504 x 1003,1504 x 1003
S009,69,Mannelijk,Rechts,4,108,right,no,500,rightarrow,1064,true,focus,yes,981945,Firefox,109.0,Windows,10,undefined,undefined,1504 x 1003,1504 x 1003
S009,69,Mannelijk,Rechts,4,109,left,no,500,leftarrow,783,true,focus,yes,983498,Firefox,109.0,Windows,10,undefined,undefined,1504 x 1003,1504 x 1003
S009,69,Mannelijk,Rechts,4,110,left,no,500,leftarrow,559,true,focus,yes,984837,Firefox,109.0,Windows,10,undefined,undefined,1504 x 1003,1504 x 1003
S009,69,Mannelijk,Rechts,4,111,right,no,500,rightarrow,883,true,focus,yes,986490,Firefox,109.0,Windows,10,undefined,undefined,1504 x 1003,1504 x 1003
S009,69,Mannelijk,Rechts,4,112,right,no,500,rightarrow,1116,true,focus,yes,988364,Firefox,109.0,Windows,10,undefined,undefined,1504 x 1003,1504 x 1003
S009,69,Mannelijk,Rechts,4,113,right,no,500,rightarrow,706,true,focus,yes,989838,Firefox,109.0,Windows,10,undefined,undefined,1504 x 1003,1504 x 1003
S009,69,Mannelijk,Rechts,4,114,right,no,500,rightarrow,653,true,focus,yes,991268,Firefox,109.0,Windows,10,undefined,undefined,1504 x 1003,1504 x 1003
S009,69,Mannelijk,Rechts,4,115,left,no,500,leftarrow,920,true,focus,yes,992960,Firefox,109.0,Windows,10,undefined,undefined,1504 x 1003,1504 x 1003
S009,69,Mannelijk,Rechts,4,116,left,no,500,leftarrow,859,true,focus,yes,994590,Firefox,109.0,Windows,10,undefined,undefined,1504 x 1003,1504 x 1003
S009,69,Mannelijk,Rechts,4,117,right,no,500,rightarrow,925,true,focus,yes,996289,Firefox,109.0,Windows,10,undefined,undefined,1504 x 1003,1504 x 1003
S009,69,Mannelijk,Rechts,4,118,left,yes,500,leftarrow,666,false,focus,yes,997722,Firefox,109.0,Windows,10,undefined,undefined,1504 x 1003,1504 x 1003
S009,69,Mannelijk,Rechts,4,119,left,no,450,rightarrow,1053,false,focus,yes,999558,Firefox,109.0,Windows,10,undefined,undefined,1504 x 1003,1504 x 1003
S009,69,Mannelijk,Rechts,4,120,right,yes,450,undefined,null,true,focus,yes,1001598,Firefox,109.0,Windows,10,undefined,undefined,1504 x 1003,1504 x 1003
S009,69,Mannelijk,Rechts,4,121,right,no,500,rightarrow,1125,true,focus,yes,1003488,Firefox,109.0,Windows,10,undefined,undefined,1504 x 1003,1504 x 1003
S009,69,Mannelijk,Rechts,4,122,right,no,500,rightarrow,945,true,focus,yes,1005201,Firefox,109.0,Windows,10,undefined,undefined,1504 x 1003,1504 x 1003
S009,69,Mannelijk,Rechts,4,123,left,no,500,leftarrow,1015,true,focus,yes,1006989,Firefox,109.0,Windows,10,undefined,undefined,1504 x 1003,1504 x 1003
S009,69,Mannelijk,Rechts,4,124,left,yes,500,undefined,null,true,focus,yes,1009028,Firefox,109.0,Windows,10,undefined,undefined,1504 x 1003,1504 x 1003
S009,69,Mannelijk,Rechts,4,125,right,no,550,rightarrow,835,true,focus,yes,1010628,Firefox,109.0,Windows,10,undefined,undefined,1504 x 1003,1504 x 1003
S009,69,Mannelijk,Rechts,4,126,left,no,550,leftarrow,723,true,focus,yes,1012128,Firefox,109.0,Windows,10,undefined,undefined,1504 x 1003,1504 x 1003
S009,69,Mannelijk,Rechts,4,127,left,no,550,leftarrow,944,true,focus,yes,1013842,Firefox,109.0,Windows,10,undefined,undefined,1504 x 1003,1504 x 1003
S009,69,Mannelijk,Rechts,4,128,right,yes,550,undefined,null,true,focus,yes,1015869,Firefox,109.0,Windows,10,undefined,undefined,1504 x 1003,1504 x 1003
S009,69,Mannelijk,Rechts,5,1,left,no,600,leftarrow,628,true,focus,yes,1035258,Firefox,109.0,Windows,10,undefined,undefined,1504 x 1003,1504 x 1003
S009,69,Mannelijk,Rechts,5,2,right,no,600,rightarrow,722,true,focus,yes,1036745,Firefox,109.0,Windows,10,undefined,undefined,1504 x 1003,1504 x 1003
S009,69,Mannelijk,Rechts,5,3,right,no,600,rightarrow,737,true,focus,yes,1038249,Firefox,109.0,Windows,10,undefined,undefined,1504 x 1003,1504 x 1003
S009,69,Mannelijk,Rechts,5,4,right,yes,600,undefined,null,true,focus,yes,1040274,Firefox,109.0,Windows,10,undefined,undefined,1504 x 1003,1504 x 1003
S009,69,Mannelijk,Rechts,5,5,left,yes,650,leftarrow,860,false,focus,yes,1041922,Firefox,109.0,Windows,10,undefined,undefined,1504 x 1003,1504 x 1003
S009,69,Mannelijk,Rechts,5,6,right,no,600,rightarrow,984,true,focus,yes,1043674,Firefox,109.0,Windows,10,undefined,undefined,1504 x 1003,1504 x 1003
S009,69,Mannelijk,Rechts,5,7,left,no,600,leftarrow,1048,true,focus,yes,1045493,Firefox,109.0,Windows,10,undefined,undefined,1504 x 1003,1504 x 1003
S009,69,Mannelijk,Rechts,5,8,left,no,600,leftarrow,888,true,focus,yes,1047155,Firefox,109.0,Windows,10,undefined,undefined,1504 x 1003,1504 x 1003
S009,69,Mannelijk,Rechts,5,9,left,no,600,leftarrow,1030,true,focus,yes,1048951,Firefox,109.0,Windows,10,undefined,undefined,1504 x 1003,1504 x 1003
S009,69,Mannelijk,Rechts,5,10,right,yes,600,undefined,null,true,focus,yes,1050988,Firefox,109.0,Windows,10,undefined,undefined,1504 x 1003,1504 x 1003
S009,69,Mannelijk,Rechts,5,11,right,no,650,leftarrow,1219,false,focus,yes,1052981,Firefox,109.0,Windows,10,undefined,undefined,1504 x 1003,1504 x 1003
S009,69,Mannelijk,Rechts,5,12,left,no,650,leftarrow,688,true,focus,yes,1054444,Firefox,109.0,Windows,10,undefined,undefined,1504 x 1003,1504 x 1003
S009,69,Mannelijk,Rechts,5,13,left,no,650,leftarrow,1206,true,focus,yes,1056422,Firefox,109.0,Windows,10,undefined,undefined,1504 x 1003,1504 x 1003
S009,69,Mannelijk,Rechts,5,14,right,no,650,rightarrow,1017,true,focus,yes,1058214,Firefox,109.0,Windows,10,undefined,undefined,1504 x 1003,1504 x 1003
S009,69,Mannelijk,Rechts,5,15,left,yes,650,undefined,null,true,focus,yes,1060226,Firefox,109.0,Windows,10,undefined,undefined,1504 x 1003,1504 x 1003
S009,69,Mannelijk,Rechts,5,16,right,no,700,rightarrow,838,true,focus,yes,1061836,Firefox,109.0,Windows,10,undefined,undefined,1504 x 1003,1504 x 1003
S009,69,Mannelijk,Rechts,5,17,right,yes,700,rightarrow,858,false,focus,yes,1063455,Firefox,109.0,Windows,10,undefined,undefined,1504 x 1003,1504 x 1003
S009,69,Mannelijk,Rechts,5,18,right,no,650,undefined,null,false,focus,yes,1065487,Firefox,109.0,Windows,10,undefined,undefined,1504 x 1003,1504 x 1003
S009,69,Mannelijk,Rechts,5,19,left,no,650,leftarrow,1162,true,focus,yes,1067407,Firefox,109.0,Windows,10,undefined,undefined,1504 x 1003,1504 x 1003
S009,69,Mannelijk,Rechts,5,20,right,no,650,rightarrow,1012,true,focus,yes,1069188,Firefox,109.0,Windows,10,undefined,undefined,1504 x 1003,1504 x 1003
S009,69,Mannelijk,Rechts,5,21,right,no,650,rightarrow,1112,true,focus,yes,1071073,Firefox,109.0,Windows,10,undefined,undefined,1504 x 1003,1504 x 1003
S009,69,Mannelijk,Rechts,5,22,left,no,650,leftarrow,914,true,focus,yes,1072752,Firefox,109.0,Windows,10,undefined,undefined,1504 x 1003,1504 x 1003
S009,69,Mannelijk,Rechts,5,23,left,yes,650,undefined,null,true,focus,yes,1074765,Firefox,109.0,Windows,10,undefined,undefined,1504 x 1003,1504 x 1003
S009,69,Mannelijk,Rechts,5,24,left,no,700,leftarrow,755,true,focus,yes,1076292,Firefox,109.0,Windows,10,undefined,undefined,1504 x 1003,1504 x 1003
S009,69,Mannelijk,Rechts,5,25,left,no,700,leftarrow,1163,true,focus,yes,1078218,Firefox,109.0,Windows,10,undefined,undefined,1504 x 1003,1504 x 1003
S009,69,Mannelijk,Rechts,5,26,left,yes,700,undefined,null,true,focus,yes,1080247,Firefox,109.0,Windows,10,undefined,undefined,1504 x 1003,1504 x 1003
S009,69,Mannelijk,Rechts,5,27,right,no,750,rightarrow,800,true,focus,yes,1081820,Firefox,109.0,Windows,10,undefined,undefined,1504 x 1003,1504 x 1003
S009,69,Mannelijk,Rechts,5,28,right,yes,750,undefined,null,true,focus,yes,1083837,Firefox,109.0,Windows,10,undefined,undefined,1504 x 1003,1504 x 1003
S009,69,Mannelijk,Rechts,5,29,right,no,800,rightarrow,925,true,focus,yes,1085532,Firefox,109.0,Windows,10,undefined,undefined,1504 x 1003,1504 x 1003
S009,69,Mannelijk,Rechts,5,30,right,no,800,rightarrow,723,true,focus,yes,1087026,Firefox,109.0,Windows,10,undefined,undefined,1504 x 1003,1504 x 1003
S009,69,Mannelijk,Rechts,5,31,left,no,800,leftarrow,1230,true,focus,yes,1089021,Firefox,109.0,Windows,10,undefined,undefined,1504 x 1003,1504 x 1003
S009,69,Mannelijk,Rechts,5,32,left,no,800,leftarrow,994,true,focus,yes,1090778,Firefox,109.0,Windows,10,undefined,undefined,1504 x 1003,1504 x 1003
S009,69,Mannelijk,Rechts,5,33,left,no,800,leftarrow,918,true,focus,yes,1092457,Firefox,109.0,Windows,10,undefined,undefined,1504 x 1003,1504 x 1003
S009,69,Mannelijk,Rechts,5,34,left,no,800,leftarrow,1232,true,focus,yes,1094462,Firefox,109.0,Windows,10,undefined,undefined,1504 x 1003,1504 x 1003
S009,69,Mannelijk,Rechts,5,35,right,no,800,rightarrow,678,true,focus,yes,1095902,Firefox,109.0,Windows,10,undefined,undefined,1504 x 1003,1504 x 1003
S009,69,Mannelijk,Rechts,5,36,right,no,800,rightarrow,1198,true,focus,yes,1097862,Firefox,109.0,Windows,10,undefined,undefined,1504 x 1003,1504 x 1003
S009,69,Mannelijk,Rechts,5,37,left,yes,800,leftarrow,943,false,focus,yes,1099570,Firefox,109.0,Windows,10,undefined,undefined,1504 x 1003,1504 x 1003
S009,69,Mannelijk,Rechts,5,38,right,no,750,undefined,null,false,focus,yes,1101617,Firefox,109.0,Windows,10,undefined,undefined,1504 x 1003,1504 x 1003
S009,69,Mannelijk,Rechts,5,39,left,no,750,leftarrow,670,true,focus,yes,1103062,Firefox,109.0,Windows,10,undefined,undefined,1504 x 1003,1504 x 1003
S009,69,Mannelijk,Rechts,5,40,right,yes,750,rightarrow,682,false,focus,yes,1104519,Firefox,109.0,Windows,10,undefined,undefined,1504 x 1003,1504 x 1003
S009,69,Mannelijk,Rechts,5,41,left,no,700,leftarrow,635,true,focus,yes,1105926,Firefox,109.0,Windows,10,undefined,undefined,1504 x 1003,1504 x 1003
S009,69,Mannelijk,Rechts,5,42,right,no,700,rightarrow,427,true,focus,yes,1107115,Firefox,109.0,Windows,10,undefined,undefined,1504 x 1003,1504 x 1003
S009,69,Mannelijk,Rechts,5,43,right,yes,700,leftarrow,309,false,focus,yes,1108198,Firefox,109.0,Windows,10,undefined,undefined,1504 x 1003,1504 x 1003
S009,69,Mannelijk,Rechts,5,44,right,no,650,rightarrow,520,true,focus,yes,1109487,Firefox,109.0,Windows,10,undefined,undefined,1504 x 1003,1504 x 1003
S009,69,Mannelijk,Rechts,5,45,left,yes,650,leftarrow,471,false,focus,yes,1110722,Firefox,109.0,Windows,10,undefined,undefined,1504 x 1003,1504 x 1003
S009,69,Mannelijk,Rechts,5,46,left,no,600,leftarrow,454,true,focus,yes,1111937,Firefox,109.0,Windows,10,undefined,undefined,1504 x 1003,1504 x 1003
S009,69,Mannelijk,Rechts,5,47,right,no,600,rightarrow,556,true,focus,yes,1113257,Firefox,109.0,Windows,10,undefined,undefined,1504 x 1003,1504 x 1003
S009,69,Mannelijk,Rechts,5,48,left,no,600,leftarrow,440,true,focus,yes,1114470,Firefox,109.0,Windows,10,undefined,undefined,1504 x 1003,1504 x 1003
S009,69,Mannelijk,Rechts,5,49,left,no,600,leftarrow,457,true,focus,yes,1115690,Firefox,109.0,Windows,10,undefined,undefined,1504 x 1003,1504 x 1003
S009,69,Mannelijk,Rechts,5,50,left,yes,600,leftarrow,454,false,focus,yes,1116907,Firefox,109.0,Windows,10,undefined,undefined,1504 x 1003,1504 x 1003
S009,69,Mannelijk,Rechts,5,51,right,no,550,rightarrow,380,true,focus,yes,1118056,Firefox,109.0,Windows,10,undefined,undefined,1504 x 1003,1504 x 1003
S009,69,Mannelijk,Rechts,5,52,right,no,550,rightarrow,509,true,focus,yes,1119328,Firefox,109.0,Windows,10,undefined,undefined,1504 x 1003,1504 x 1003
S009,69,Mannelijk,Rechts,5,53,right,yes,550,leftarrow,407,false,focus,yes,1120509,Firefox,109.0,Windows,10,undefined,undefined,1504 x 1003,1504 x 1003
S009,69,Mannelijk,Rechts,5,54,right,no,500,rightarrow,473,true,focus,yes,1121750,Firefox,109.0,Windows,10,undefined,undefined,1504 x 1003,1504 x 1003
S009,69,Mannelijk,Rechts,5,55,left,no,500,leftarrow,432,true,focus,yes,1122942,Firefox,109.0,Windows,10,undefined,undefined,1504 x 1003,1504 x 1003
S009,69,Mannelijk,Rechts,5,56,left,no,500,leftarrow,493,true,focus,yes,1124203,Firefox,109.0,Windows,10,undefined,undefined,1504 x 1003,1504 x 1003
S009,69,Mannelijk,Rechts,5,57,right,no,500,rightarrow,460,true,focus,yes,1125436,Firefox,109.0,Windows,10,undefined,undefined,1504 x 1003,1504 x 1003
S009,69,Mannelijk,Rechts,5,58,left,yes,500,leftarrow,500,false,focus,yes,1126695,Firefox,109.0,Windows,10,undefined,undefined,1504 x 1003,1504 x 1003
S009,69,Mannelijk,Rechts,5,59,left,no,450,leftarrow,463,true,focus,yes,1127922,Firefox,109.0,Windows,10,undefined,undefined,1504 x 1003,1504 x 1003
S009,69,Mannelijk,Rechts,5,60,left,no,450,leftarrow,397,true,focus,yes,1129092,Firefox,109.0,Windows,10,undefined,undefined,1504 x 1003,1504 x 1003
S009,69,Mannelijk,Rechts,5,61,right,no,450,rightarrow,503,true,focus,yes,1130370,Firefox,109.0,Windows,10,undefined,undefined,1504 x 1003,1504 x 1003
S009,69,Mannelijk,Rechts,5,62,left,no,450,leftarrow,452,true,focus,yes,1131589,Firefox,109.0,Windows,10,undefined,undefined,1504 x 1003,1504 x 1003
S009,69,Mannelijk,Rechts,5,63,right,no,450,rightarrow,446,true,focus,yes,1132800,Firefox,109.0,Windows,10,undefined,undefined,1504 x 1003,1504 x 1003
S009,69,Mannelijk,Rechts,5,64,right,yes,450,rightarrow,516,false,focus,yes,1134090,Firefox,109.0,Windows,10,undefined,undefined,1504 x 1003,1504 x 1003
S009,69,Mannelijk,Rechts,5,65,right,no,400,rightarrow,750,true,focus,yes,1135606,Firefox,109.0,Windows,10,undefined,undefined,1504 x 1003,1504 x 1003
S009,69,Mannelijk,Rechts,5,66,right,yes,400,rightarrow,443,false,focus,yes,1136817,Firefox,109.0,Windows,10,undefined,undefined,1504 x 1003,1504 x 1003
S009,69,Mannelijk,Rechts,5,67,right,no,350,rightarrow,513,true,focus,yes,1138095,Firefox,109.0,Windows,10,undefined,undefined,1504 x 1003,1504 x 1003
S009,69,Mannelijk,Rechts,5,68,right,no,350,rightarrow,472,true,focus,yes,1139333,Firefox,109.0,Windows,10,undefined,undefined,1504 x 1003,1504 x 1003
S009,69,Mannelijk,Rechts,5,69,left,no,350,leftarrow,414,true,focus,yes,1140510,Firefox,109.0,Windows,10,undefined,undefined,1504 x 1003,1504 x 1003
S009,69,Mannelijk,Rechts,5,70,left,no,350,leftarrow,474,true,focus,yes,1141758,Firefox,109.0,Windows,10,undefined,undefined,1504 x 1003,1504 x 1003
S009,69,Mannelijk,Rechts,5,71,left,yes,350,leftarrow,480,false,focus,yes,1143003,Firefox,109.0,Windows,10,undefined,undefined,1504 x 1003,1504 x 1003
S009,69,Mannelijk,Rechts,5,72,left,no,300,leftarrow,788,true,focus,yes,1144562,Firefox,109.0,Windows,10,undefined,undefined,1504 x 1003,1504 x 1003
S009,69,Mannelijk,Rechts,5,73,right,no,300,rightarrow,535,true,focus,yes,1145860,Firefox,109.0,Windows,10,undefined,undefined,1504 x 1003,1504 x 1003
S009,69,Mannelijk,Rechts,5,74,left,yes,300,leftarrow,492,false,focus,yes,1147116,Firefox,109.0,Windows,10,undefined,undefined,1504 x 1003,1504 x 1003
S009,69,Mannelijk,Rechts,5,75,right,no,250,rightarrow,557,true,focus,yes,1148444,Firefox,109.0,Windows,10,undefined,undefined,1504 x 1003,1504 x 1003
S009,69,Mannelijk,Rechts,5,76,left,no,250,leftarrow,565,true,focus,yes,1149783,Firefox,109.0,Windows,10,undefined,undefined,1504 x 1003,1504 x 1003
S009,69,Mannelijk,Rechts,5,77,right,no,250,rightarrow,625,true,focus,yes,1151174,Firefox,109.0,Windows,10,undefined,undefined,1504 x 1003,1504 x 1003
S009,69,Mannelijk,Rechts,5,78,right,yes,250,rightarrow,507,false,focus,yes,1152460,Firefox,109.0,Windows,10,undefined,undefined,1504 x 1003,1504 x 1003
S009,69,Mannelijk,Rechts,5,79,left,no,200,leftarrow,603,true,focus,yes,1153837,Firefox,109.0,Windows,10,undefined,undefined,1504 x 1003,1504 x 1003
S009,69,Mannelijk,Rechts,5,80,left,no,200,leftarrow,689,true,focus,yes,1155298,Firefox,109.0,Windows,10,undefined,undefined,1504 x 1003,1504 x 1003
S009,69,Mannelijk,Rechts,5,81,right,yes,200,undefined,null,true,focus,yes,1157323,Firefox,109.0,Windows,10,undefined,undefined,1504 x 1003,1504 x 1003
S009,69,Mannelijk,Rechts,5,82,left,no,250,leftarrow,550,true,focus,yes,1158649,Firefox,109.0,Windows,10,undefined,undefined,1504 x 1003,1504 x 1003
S009,69,Mannelijk,Rechts,5,83,right,no,250,rightarrow,652,true,focus,yes,1160077,Firefox,109.0,Windows,10,undefined,undefined,1504 x 1003,1504 x 1003
S009,69,Mannelijk,Rechts,5,84,left,yes,250,undefined,null,true,focus,yes,1162103,Firefox,109.0,Windows,10,undefined,undefined,1504 x 1003,1504 x 1003
S009,69,Mannelijk,Rechts,5,85,right,no,300,rightarrow,639,true,focus,yes,1163518,Firefox,109.0,Windows,10,undefined,undefined,1504 x 1003,1504 x 1003
S009,69,Mannelijk,Rechts,5,86,left,no,300,leftarrow,673,true,focus,yes,1164958,Firefox,109.0,Windows,10,undefined,undefined,1504 x 1003,1504 x 1003
S009,69,Mannelijk,Rechts,5,87,left,no,300,leftarrow,618,true,focus,yes,1166344,Firefox,109.0,Windows,10,undefined,undefined,1504 x 1003,1504 x 1003
S009,69,Mannelijk,Rechts,5,88,right,no,300,rightarrow,707,true,focus,yes,1167827,Firefox,109.0,Windows,10,undefined,undefined,1504 x 1003,1504 x 1003
S009,69,Mannelijk,Rechts,5,89,right,no,300,rightarrow,505,true,focus,yes,1169099,Firefox,109.0,Windows,10,undefined,undefined,1504 x 1003,1504 x 1003
S009,69,Mannelijk,Rechts,5,90,left,no,300,leftarrow,368,true,focus,yes,1170232,Firefox,109.0,Windows,10,undefined,undefined,1504 x 1003,1504 x 1003
S009,69,Mannelijk,Rechts,5,91,left,no,300,leftarrow,452,true,focus,yes,1171459,Firefox,109.0,Windows,10,undefined,undefined,1504 x 1003,1504 x 1003
S009,69,Mannelijk,Rechts,5,92,right,no,300,rightarrow,520,true,focus,yes,1172755,Firefox,109.0,Windows,10,undefined,undefined,1504 x 1003,1504 x 1003
S009,69,Mannelijk,Rechts,5,93,left,yes,300,leftarrow,466,false,focus,yes,1173983,Firefox,109.0,Windows,10,undefined,undefined,1504 x 1003,1504 x 1003
S009,69,Mannelijk,Rechts,5,94,left,no,250,leftarrow,593,true,focus,yes,1175341,Firefox,109.0,Windows,10,undefined,undefined,1504 x 1003,1504 x 1003
S009,69,Mannelijk,Rechts,5,95,right,yes,250,undefined,null,true,focus,yes,1177363,Firefox,109.0,Windows,10,undefined,undefined,1504 x 1003,1504 x 1003
S009,69,Mannelijk,Rechts,5,96,right,no,300,rightarrow,549,true,focus,yes,1178699,Firefox,109.0,Windows,10,undefined,undefined,1504 x 1003,1504 x 1003
S009,69,Mannelijk,Rechts,5,97,right,no,300,rightarrow,509,true,focus,yes,1179971,Firefox,109.0,Windows,10,undefined,undefined,1504 x 1003,1504 x 1003
S009,69,Mannelijk,Rechts,5,98,right,no,300,rightarrow,539,true,focus,yes,1181272,Firefox,109.0,Windows,10,undefined,undefined,1504 x 1003,1504 x 1003
S009,69,Mannelijk,Rechts,5,99,right,no,300,rightarrow,524,true,focus,yes,1182566,Firefox,109.0,Windows,10,undefined,undefined,1504 x 1003,1504 x 1003
S009,69,Mannelijk,Rechts,5,100,left,no,300,leftarrow,598,true,focus,yes,1183936,Firefox,109.0,Windows,10,undefined,undefined,1504 x 1003,1504 x 1003
S009,69,Mannelijk,Rechts,5,101,right,yes,300,rightarrow,478,false,focus,yes,1185180,Firefox,109.0,Windows,10,undefined,undefined,1504 x 1003,1504 x 1003
S009,69,Mannelijk,Rechts,5,102,left,no,250,leftarrow,496,true,focus,yes,1186450,Firefox,109.0,Windows,10,undefined,undefined,1504 x 1003,1504 x 1003
S009,69,Mannelijk,Rechts,5,103,left,yes,250,undefined,null,true,focus,yes,1188487,Firefox,109.0,Windows,10,undefined,undefined,1504 x 1003,1504 x 1003
S009,69,Mannelijk,Rechts,5,104,left,no,300,leftarrow,540,true,focus,yes,1189800,Firefox,109.0,Windows,10,undefined,undefined,1504 x 1003,1504 x 1003
S009,69,Mannelijk,Rechts,5,105,left,yes,300,leftarrow,500,false,focus,yes,1191072,Firefox,109.0,Windows,10,undefined,undefined,1504 x 1003,1504 x 1003
S009,69,Mannelijk,Rechts,5,106,right,no,250,rightarrow,1070,true,focus,yes,1192912,Firefox,109.0,Windows,10,undefined,undefined,1504 x 1003,1504 x 1003
S009,69,Mannelijk,Rechts,5,107,right,no,250,rightarrow,945,true,focus,yes,1194622,Firefox,109.0,Windows,10,undefined,undefined,1504 x 1003,1504 x 1003
S009,69,Mannelijk,Rechts,5,108,left,no,250,leftarrow,562,true,focus,yes,1195947,Firefox,109.0,Windows,10,undefined,undefined,1504 x 1003,1504 x 1003
S009,69,Mannelijk,Rechts,5,109,left,no,250,leftarrow,1000,true,focus,yes,1197713,Firefox,109.0,Windows,10,undefined,undefined,1504 x 1003,1504 x 1003
S009,69,Mannelijk,Rechts,5,110,left,no,250,leftarrow,550,true,focus,yes,1199033,Firefox,109.0,Windows,10,undefined,undefined,1504 x 1003,1504 x 1003
S009,69,Mannelijk,Rechts,5,111,right,no,250,rightarrow,717,true,focus,yes,1200510,Firefox,109.0,Windows,10,undefined,undefined,1504 x 1003,1504 x 1003
S009,69,Mannelijk,Rechts,5,112,right,yes,250,undefined,null,true,focus,yes,1202537,Firefox,109.0,Windows,10,undefined,undefined,1504 x 1003,1504 x 1003
S009,69,Mannelijk,Rechts,5,113,right,no,300,rightarrow,510,true,focus,yes,1203823,Firefox,109.0,Windows,10,undefined,undefined,1504 x 1003,1504 x 1003
S009,69,Mannelijk,Rechts,5,114,left,no,300,leftarrow,486,true,focus,yes,1205080,Firefox,109.0,Windows,10,undefined,undefined,1504 x 1003,1504 x 1003
S009,69,Mannelijk,Rechts,5,115,left,yes,300,leftarrow,575,false,focus,yes,1206419,Firefox,109.0,Windows,10,undefined,undefined,1504 x 1003,1504 x 1003
S009,69,Mannelijk,Rechts,5,116,left,no,250,leftarrow,1142,true,focus,yes,1208328,Firefox,109.0,Windows,10,undefined,undefined,1504 x 1003,1504 x 1003
S009,69,Mannelijk,Rechts,5,117,right,yes,250,rightarrow,504,false,focus,yes,1209603,Firefox,109.0,Windows,10,undefined,undefined,1504 x 1003,1504 x 1003
S009,69,Mannelijk,Rechts,5,118,left,no,200,leftarrow,1063,true,focus,yes,1211444,Firefox,109.0,Windows,10,undefined,undefined,1504 x 1003,1504 x 1003
S009,69,Mannelijk,Rechts,5,119,right,no,200,rightarrow,958,true,focus,yes,1213175,Firefox,109.0,Windows,10,undefined,undefined,1504 x 1003,1504 x 1003
S009,69,Mannelijk,Rechts,5,120,right,no,200,rightarrow,923,true,focus,yes,1214864,Firefox,109.0,Windows,10,undefined,undefined,1504 x 1003,1504 x 1003
S009,69,Mannelijk,Rechts,5,121,left,no,200,leftarrow,859,true,focus,yes,1216494,Firefox,109.0,Windows,10,undefined,undefined,1504 x 1003,1504 x 1003
S009,69,Mannelijk,Rechts,5,122,left,no,200,leftarrow,521,true,focus,yes,1217784,Firefox,109.0,Windows,10,undefined,undefined,1504 x 1003,1504 x 1003
S009,69,Mannelijk,Rechts,5,123,left,yes,200,undefined,null,true,focus,yes,1219821,Firefox,109.0,Windows,10,undefined,undefined,1504 x 1003,1504 x 1003
S009,69,Mannelijk,Rechts,5,124,right,no,250,rightarrow,538,true,focus,yes,1221133,Firefox,109.0,Windows,10,undefined,undefined,1504 x 1003,1504 x 1003
S009,69,Mannelijk,Rechts,5,125,left,no,250,leftarrow,565,true,focus,yes,1222467,Firefox,109.0,Windows,10,undefined,undefined,1504 x 1003,1504 x 1003
S009,69,Mannelijk,Rechts,5,126,right,no,250,rightarrow,665,true,focus,yes,1223897,Firefox,109.0,Windows,10,undefined,undefined,1504 x 1003,1504 x 1003
S009,69,Mannelijk,Rechts,5,127,right,yes,250,undefined,null,true,focus,yes,1225921,Firefox,109.0,Windows,10,undefined,undefined,1504 x 1003,1504 x 1003
S009,69,Mannelijk,Rechts,5,128,right,no,300,rightarrow,509,true,focus,yes,1227204,Firefox,109.0,Windows,10,undefined,undefined,1504 x 1003,1504 x 1003
S009,69,Mannelijk,Rechts,6,1,left,no,300,leftarrow,578,true,focus,yes,1246744,Firefox,109.0,Windows,10,undefined,undefined,1504 x 1003,1504 x 1003
S009,69,Mannelijk,Rechts,6,2,right,no,300,rightarrow,448,true,focus,yes,1247961,Firefox,109.0,Windows,10,undefined,undefined,1504 x 1003,1504 x 1003
S009,69,Mannelijk,Rechts,6,3,left,yes,300,leftarrow,492,false,focus,yes,1249223,Firefox,109.0,Windows,10,undefined,undefined,1504 x 1003,1504 x 1003
S009,69,Mannelijk,Rechts,6,4,right,no,250,rightarrow,396,true,focus,yes,1250393,Firefox,109.0,Windows,10,undefined,undefined,1504 x 1003,1504 x 1003
S009,69,Mannelijk,Rechts,6,5,right,yes,250,rightarrow,427,false,focus,yes,1251589,Firefox,109.0,Windows,10,undefined,undefined,1504 x 1003,1504 x 1003
S009,69,Mannelijk,Rechts,6,6,left,no,200,leftarrow,558,true,focus,yes,1252925,Firefox,109.0,Windows,10,undefined,undefined,1504 x 1003,1504 x 1003
S009,69,Mannelijk,Rechts,6,7,left,no,200,leftarrow,870,true,focus,yes,1254567,Firefox,109.0,Windows,10,undefined,undefined,1504 x 1003,1504 x 1003
S009,69,Mannelijk,Rechts,6,8,right,no,200,rightarrow,627,true,focus,yes,1255956,Firefox,109.0,Windows,10,undefined,undefined,1504 x 1003,1504 x 1003
S009,69,Mannelijk,Rechts,6,9,right,no,200,rightarrow,750,true,focus,yes,1257467,Firefox,109.0,Windows,10,undefined,undefined,1504 x 1003,1504 x 1003
S009,69,Mannelijk,Rechts,6,10,left,yes,200,undefined,null,true,focus,yes,1259504,Firefox,109.0,Windows,10,undefined,undefined,1504 x 1003,1504 x 1003
S009,69,Mannelijk,Rechts,6,11,right,yes,250,undefined,null,true,focus,yes,1261540,Firefox,109.0,Windows,10,undefined,undefined,1504 x 1003,1504 x 1003
S009,69,Mannelijk,Rechts,6,12,right,no,300,rightarrow,713,true,focus,yes,1263044,Firefox,109.0,Windows,10,undefined,undefined,1504 x 1003,1504 x 1003
S009,69,Mannelijk,Rechts,6,13,right,no,300,rightarrow,981,true,focus,yes,1264794,Firefox,109.0,Windows,10,undefined,undefined,1504 x 1003,1504 x 1003
S009,69,Mannelijk,Rechts,6,14,left,no,300,leftarrow,723,true,focus,yes,1266285,Firefox,109.0,Windows,10,undefined,undefined,1504 x 1003,1504 x 1003
S009,69,Mannelijk,Rechts,6,15,left,no,300,leftarrow,760,true,focus,yes,1267809,Firefox,109.0,Windows,10,undefined,undefined,1504 x 1003,1504 x 1003
S009,69,Mannelijk,Rechts,6,16,left,no,300,leftarrow,635,true,focus,yes,1269215,Firefox,109.0,Windows,10,undefined,undefined,1504 x 1003,1504 x 1003
S009,69,Mannelijk,Rechts,6,17,left,yes,300,undefined,null,true,focus,yes,1271251,Firefox,109.0,Windows,10,undefined,undefined,1504 x 1003,1504 x 1003
S009,69,Mannelijk,Rechts,6,18,right,no,350,rightarrow,508,true,focus,yes,1272548,Firefox,109.0,Windows,10,undefined,undefined,1504 x 1003,1504 x 1003
S009,69,Mannelijk,Rechts,6,19,right,no,350,rightarrow,832,true,focus,yes,1274148,Firefox,109.0,Windows,10,undefined,undefined,1504 x 1003,1504 x 1003
S009,69,Mannelijk,Rechts,6,20,right,no,350,rightarrow,704,true,focus,yes,1275615,Firefox,109.0,Windows,10,undefined,undefined,1504 x 1003,1504 x 1003
S009,69,Mannelijk,Rechts,6,21,right,yes,350,undefined,null,true,focus,yes,1277648,Firefox,109.0,Windows,10,undefined,undefined,1504 x 1003,1504 x 1003
S009,69,Mannelijk,Rechts,6,22,left,no,400,leftarrow,634,true,focus,yes,1279059,Firefox,109.0,Windows,10,undefined,undefined,1504 x 1003,1504 x 1003
S009,69,Mannelijk,Rechts,6,23,left,no,400,leftarrow,968,true,focus,yes,1280798,Firefox,109.0,Windows,10,undefined,undefined,1504 x 1003,1504 x 1003
S009,69,Mannelijk,Rechts,6,24,left,no,400,leftarrow,784,true,focus,yes,1282353,Firefox,109.0,Windows,10,undefined,undefined,1504 x 1003,1504 x 1003
