participantID;age;gender;handedness;block_i;trial_i;stim;signal;SSD;response;rt;correct;focus;Fullscreen;time_elapsed;browser_name;browser_version;os_name;os_version;tablet;mobile;screen_resolution;window_resolution
H025;25;Vrouwelijk;Rechts;0;1;right;yes;200;rightarrow;453;false;focus;yes;131966;Chrome;113.0;Windows;10;undefined;undefined;1536 x 864;1536 x 864
H025;25;Vrouwelijk;Rechts;0;2;left;no;150;leftarrow;392;true;focus;yes;133902;Chrome;113.0;Windows;10;undefined;undefined;1536 x 864;1536 x 864
H025;25;Vrouwelijk;Rechts;0;3;left;yes;150;leftarrow;394;false;focus;yes;135830;Chrome;113.0;Windows;10;undefined;undefined;1536 x 864;1536 x 864
H025;25;Vrouwelijk;Rechts;0;4;left;no;100;leftarrow;581;true;focus;yes;137944;Chrome;113.0;Windows;10;undefined;undefined;1536 x 864;1536 x 864
H025;25;Vrouwelijk;Rechts;0;5;right;no;100;rightarrow;339;true;focus;yes;139816;Chrome;113.0;Windows;10;undefined;undefined;1536 x 864;1536 x 864
H025;25;Vrouwelijk;Rechts;0;6;left;no;100;leftarrow;313;true;focus;yes;141665;Chrome;113.0;Windows;10;undefined;undefined;1536 x 864;1536 x 864
H025;25;Vrouwelijk;Rechts;0;7;right;no;100;rightarrow;361;true;focus;yes;143564;Chrome;113.0;Windows;10;undefined;undefined;1536 x 864;1536 x 864
H025;25;Vrouwelijk;Rechts;0;8;right;no;100;rightarrow;395;true;focus;yes;145493;Chrome;113.0;Windows;10;undefined;undefined;1536 x 864;1536 x 864
H025;25;Vrouwelijk;Rechts;1;1;left;no;100;leftarrow;367;true;focus;yes;166072;Chrome;113.0;Windows;10;undefined;undefined;1536 x 864;1536 x 864
H025;25;Vrouwelijk;Rechts;1;2;right;no;100;rightarrow;331;true;focus;yes;167177;Chrome;113.0;Windows;10;undefined;undefined;1536 x 864;1536 x 864
H025;25;Vrouwelijk;Rechts;1;3;right;yes;100;rightarrow;381;false;focus;yes;168329;Chrome;113.0;Windows;10;undefined;undefined;1536 x 864;1536 x 864
H025;25;Vrouwelijk;Rechts;1;4;left;no;50;leftarrow;293;true;focus;yes;169404;Chrome;113.0;Windows;10;undefined;undefined;1536 x 864;1536 x 864
H025;25;Vrouwelijk;Rechts;1;5;left;no;50;leftarrow;347;true;focus;yes;170533;Chrome;113.0;Windows;10;undefined;undefined;1536 x 864;1536 x 864
H025;25;Vrouwelijk;Rechts;1;6;right;no;50;rightarrow;324;true;focus;yes;171627;Chrome;113.0;Windows;10;undefined;undefined;1536 x 864;1536 x 864
H025;25;Vrouwelijk;Rechts;1;7;right;no;50;rightarrow;377;true;focus;yes;172783;Chrome;113.0;Windows;10;undefined;undefined;1536 x 864;1536 x 864
H025;25;Vrouwelijk;Rechts;1;8;left;yes;50;leftarrow;305;false;focus;yes;173863;Chrome;113.0;Windows;10;undefined;undefined;1536 x 864;1536 x 864
H025;25;Vrouwelijk;Rechts;1;9;left;no;50;rightarrow;310;false;focus;yes;174942;Chrome;113.0;Windows;10;undefined;undefined;1536 x 864;1536 x 864
H025;25;Vrouwelijk;Rechts;1;10;left;no;50;leftarrow;328;true;focus;yes;176042;Chrome;113.0;Windows;10;undefined;undefined;1536 x 864;1536 x 864
H025;25;Vrouwelijk;Rechts;1;11;right;no;50;rightarrow;352;true;focus;yes;177173;Chrome;113.0;Windows;10;undefined;undefined;1536 x 864;1536 x 864
H025;25;Vrouwelijk;Rechts;1;12;left;no;50;leftarrow;260;true;focus;yes;178214;Chrome;113.0;Windows;10;undefined;undefined;1536 x 864;1536 x 864
H025;25;Vrouwelijk;Rechts;1;13;right;yes;50;rightarrow;307;false;focus;yes;179289;Chrome;113.0;Windows;10;undefined;undefined;1536 x 864;1536 x 864
H025;25;Vrouwelijk;Rechts;1;14;left;yes;50;leftarrow;281;false;focus;yes;180351;Chrome;113.0;Windows;10;undefined;undefined;1536 x 864;1536 x 864
H025;25;Vrouwelijk;Rechts;1;15;right;no;50;rightarrow;314;true;focus;yes;181440;Chrome;113.0;Windows;10;undefined;undefined;1536 x 864;1536 x 864
H025;25;Vrouwelijk;Rechts;1;16;right;no;50;leftarrow;306;false;focus;yes;182517;Chrome;113.0;Windows;10;undefined;undefined;1536 x 864;1536 x 864
H025;25;Vrouwelijk;Rechts;1;17;right;no;50;rightarrow;313;true;focus;yes;183609;Chrome;113.0;Windows;10;undefined;undefined;1536 x 864;1536 x 864
H025;25;Vrouwelijk;Rechts;1;18;left;no;50;leftarrow;323;true;focus;yes;184703;Chrome;113.0;Windows;10;undefined;undefined;1536 x 864;1536 x 864
H025;25;Vrouwelijk;Rechts;1;19;left;no;50;rightarrow;268;false;focus;yes;185749;Chrome;113.0;Windows;10;undefined;undefined;1536 x 864;1536 x 864
H025;25;Vrouwelijk;Rechts;1;20;right;yes;50;rightarrow;353;false;focus;yes;186881;Chrome;113.0;Windows;10;undefined;undefined;1536 x 864;1536 x 864
H025;25;Vrouwelijk;Rechts;1;21;right;no;50;rightarrow;392;true;focus;yes;188042;Chrome;113.0;Windows;10;undefined;undefined;1536 x 864;1536 x 864
H025;25;Vrouwelijk;Rechts;1;22;left;no;50;leftarrow;336;true;focus;yes;189148;Chrome;113.0;Windows;10;undefined;undefined;1536 x 864;1536 x 864
H025;25;Vrouwelijk;Rechts;1;23;left;yes;50;leftarrow;305;false;focus;yes;190232;Chrome;113.0;Windows;10;undefined;undefined;1536 x 864;1536 x 864
H025;25;Vrouwelijk;Rechts;1;24;right;no;50;rightarrow;362;true;focus;yes;191359;Chrome;113.0;Windows;10;undefined;undefined;1536 x 864;1536 x 864
H025;25;Vrouwelijk;Rechts;1;25;right;no;50;leftarrow;261;false;focus;yes;192393;Chrome;113.0;Windows;10;undefined;undefined;1536 x 864;1536 x 864
H025;25;Vrouwelijk;Rechts;1;26;right;yes;50;rightarrow;306;false;focus;yes;193479;Chrome;113.0;Windows;10;undefined;undefined;1536 x 864;1536 x 864
H025;25;Vrouwelijk;Rechts;1;27;right;no;50;leftarrow;238;false;focus;yes;194487;Chrome;113.0;Windows;10;undefined;undefined;1536 x 864;1536 x 864
H025;25;Vrouwelijk;Rechts;1;28;left;yes;50;leftarrow;388;false;focus;yes;195650;Chrome;113.0;Windows;10;undefined;undefined;1536 x 864;1536 x 864
H025;25;Vrouwelijk;Rechts;1;29;right;no;50;rightarrow;405;true;focus;yes;196829;Chrome;113.0;Windows;10;undefined;undefined;1536 x 864;1536 x 864
H025;25;Vrouwelijk;Rechts;1;30;left;no;50;leftarrow;321;true;focus;yes;197926;Chrome;113.0;Windows;10;undefined;undefined;1536 x 864;1536 x 864
H025;25;Vrouwelijk;Rechts;1;31;left;no;50;leftarrow;429;true;focus;yes;199138;Chrome;113.0;Windows;10;undefined;undefined;1536 x 864;1536 x 864
H025;25;Vrouwelijk;Rechts;1;32;left;no;50;leftarrow;362;true;focus;yes;200280;Chrome;113.0;Windows;10;undefined;undefined;1536 x 864;1536 x 864
H025;25;Vrouwelijk;Rechts;1;33;right;no;50;rightarrow;373;true;focus;yes;201421;Chrome;113.0;Windows;10;undefined;undefined;1536 x 864;1536 x 864
H025;25;Vrouwelijk;Rechts;1;34;left;no;50;leftarrow;314;true;focus;yes;202516;Chrome;113.0;Windows;10;undefined;undefined;1536 x 864;1536 x 864
H025;25;Vrouwelijk;Rechts;1;35;right;yes;50;undefined;null;true;focus;yes;204543;Chrome;113.0;Windows;10;undefined;undefined;1536 x 864;1536 x 864
H025;25;Vrouwelijk;Rechts;1;36;right;no;100;leftarrow;287;false;focus;yes;205612;Chrome;113.0;Windows;10;undefined;undefined;1536 x 864;1536 x 864
H025;25;Vrouwelijk;Rechts;1;37;left;yes;100;leftarrow;312;false;focus;yes;206694;Chrome;113.0;Windows;10;undefined;undefined;1536 x 864;1536 x 864
H025;25;Vrouwelijk;Rechts;1;38;left;no;50;leftarrow;353;true;focus;yes;207823;Chrome;113.0;Windows;10;undefined;undefined;1536 x 864;1536 x 864
H025;25;Vrouwelijk;Rechts;1;39;right;no;50;rightarrow;339;true;focus;yes;208946;Chrome;113.0;Windows;10;undefined;undefined;1536 x 864;1536 x 864
H025;25;Vrouwelijk;Rechts;1;40;left;no;50;leftarrow;331;true;focus;yes;210057;Chrome;113.0;Windows;10;undefined;undefined;1536 x 864;1536 x 864
H025;25;Vrouwelijk;Rechts;1;41;left;no;50;leftarrow;375;true;focus;yes;211211;Chrome;113.0;Windows;10;undefined;undefined;1536 x 864;1536 x 864
H025;25;Vrouwelijk;Rechts;1;42;left;no;50;leftarrow;389;true;focus;yes;212373;Chrome;113.0;Windows;10;undefined;undefined;1536 x 864;1536 x 864
H025;25;Vrouwelijk;Rechts;1;43;left;no;50;leftarrow;274;true;focus;yes;213422;Chrome;113.0;Windows;10;undefined;undefined;1536 x 864;1536 x 864
H025;25;Vrouwelijk;Rechts;1;44;right;no;50;rightarrow;384;true;focus;yes;214572;Chrome;113.0;Windows;10;undefined;undefined;1536 x 864;1536 x 864
H025;25;Vrouwelijk;Rechts;1;45;left;yes;50;leftarrow;366;false;focus;yes;215706;Chrome;113.0;Windows;10;undefined;undefined;1536 x 864;1536 x 864
H025;25;Vrouwelijk;Rechts;1;46;right;no;50;rightarrow;270;true;focus;yes;216751;Chrome;113.0;Windows;10;undefined;undefined;1536 x 864;1536 x 864
H025;25;Vrouwelijk;Rechts;1;47;right;yes;50;undefined;null;true;focus;yes;218770;Chrome;113.0;Windows;10;undefined;undefined;1536 x 864;1536 x 864
H025;25;Vrouwelijk;Rechts;1;48;right;no;100;rightarrow;374;true;focus;yes;219922;Chrome;113.0;Windows;10;undefined;undefined;1536 x 864;1536 x 864
H025;25;Vrouwelijk;Rechts;1;49;right;yes;100;rightarrow;323;false;focus;yes;221022;Chrome;113.0;Windows;10;undefined;undefined;1536 x 864;1536 x 864
H025;25;Vrouwelijk;Rechts;1;50;left;no;50;leftarrow;334;true;focus;yes;222136;Chrome;113.0;Windows;10;undefined;undefined;1536 x 864;1536 x 864
H025;25;Vrouwelijk;Rechts;1;51;right;no;50;rightarrow;287;true;focus;yes;223205;Chrome;113.0;Windows;10;undefined;undefined;1536 x 864;1536 x 864
H025;25;Vrouwelijk;Rechts;1;52;left;no;50;leftarrow;323;true;focus;yes;224308;Chrome;113.0;Windows;10;undefined;undefined;1536 x 864;1536 x 864
H025;25;Vrouwelijk;Rechts;1;53;left;no;50;leftarrow;333;true;focus;yes;225422;Chrome;113.0;Windows;10;undefined;undefined;1536 x 864;1536 x 864
H025;25;Vrouwelijk;Rechts;1;54;right;no;50;rightarrow;490;true;focus;yes;226682;Chrome;113.0;Windows;10;undefined;undefined;1536 x 864;1536 x 864
H025;25;Vrouwelijk;Rechts;1;55;left;yes;50;leftarrow;299;false;focus;yes;227763;Chrome;113.0;Windows;10;undefined;undefined;1536 x 864;1536 x 864
H025;25;Vrouwelijk;Rechts;1;56;right;no;50;rightarrow;392;true;focus;yes;228924;Chrome;113.0;Windows;10;undefined;undefined;1536 x 864;1536 x 864
H025;25;Vrouwelijk;Rechts;1;57;left;yes;50;leftarrow;317;false;focus;yes;230014;Chrome;113.0;Windows;10;undefined;undefined;1536 x 864;1536 x 864
H025;25;Vrouwelijk;Rechts;1;58;right;yes;50;rightarrow;317;false;focus;yes;231099;Chrome;113.0;Windows;10;undefined;undefined;1536 x 864;1536 x 864
H025;25;Vrouwelijk;Rechts;1;59;right;no;50;rightarrow;337;true;focus;yes;232218;Chrome;113.0;Windows;10;undefined;undefined;1536 x 864;1536 x 864
H025;25;Vrouwelijk;Rechts;1;60;left;no;50;leftarrow;356;true;focus;yes;233329;Chrome;113.0;Windows;10;undefined;undefined;1536 x 864;1536 x 864
H025;25;Vrouwelijk;Rechts;1;61;right;no;50;rightarrow;323;true;focus;yes;234428;Chrome;113.0;Windows;10;undefined;undefined;1536 x 864;1536 x 864
H025;25;Vrouwelijk;Rechts;1;62;left;no;50;leftarrow;331;true;focus;yes;235536;Chrome;113.0;Windows;10;undefined;undefined;1536 x 864;1536 x 864
H025;25;Vrouwelijk;Rechts;1;63;left;no;50;leftarrow;315;true;focus;yes;236620;Chrome;113.0;Windows;10;undefined;undefined;1536 x 864;1536 x 864
H025;25;Vrouwelijk;Rechts;1;64;right;no;50;rightarrow;387;true;focus;yes;237778;Chrome;113.0;Windows;10;undefined;undefined;1536 x 864;1536 x 864
H025;25;Vrouwelijk;Rechts;1;65;right;yes;50;leftarrow;280;false;focus;yes;238837;Chrome;113.0;Windows;10;undefined;undefined;1536 x 864;1536 x 864
H025;25;Vrouwelijk;Rechts;1;66;left;no;50;leftarrow;368;true;focus;yes;239963;Chrome;113.0;Windows;10;undefined;undefined;1536 x 864;1536 x 864
H025;25;Vrouwelijk;Rechts;1;67;right;no;50;rightarrow;301;true;focus;yes;241047;Chrome;113.0;Windows;10;undefined;undefined;1536 x 864;1536 x 864
H025;25;Vrouwelijk;Rechts;1;68;left;no;50;leftarrow;334;true;focus;yes;242162;Chrome;113.0;Windows;10;undefined;undefined;1536 x 864;1536 x 864
H025;25;Vrouwelijk;Rechts;1;69;right;no;50;rightarrow;373;true;focus;yes;243318;Chrome;113.0;Windows;10;undefined;undefined;1536 x 864;1536 x 864
H025;25;Vrouwelijk;Rechts;1;70;left;no;50;leftarrow;354;true;focus;yes;244447;Chrome;113.0;Windows;10;undefined;undefined;1536 x 864;1536 x 864
H025;25;Vrouwelijk;Rechts;1;71;left;yes;50;undefined;null;true;focus;yes;246484;Chrome;113.0;Windows;10;undefined;undefined;1536 x 864;1536 x 864
H025;25;Vrouwelijk;Rechts;1;72;right;no;100;rightarrow;495;true;focus;yes;247763;Chrome;113.0;Windows;10;undefined;undefined;1536 x 864;1536 x 864
H025;25;Vrouwelijk;Rechts;1;73;right;no;100;rightarrow;410;true;focus;yes;248942;Chrome;113.0;Windows;10;undefined;undefined;1536 x 864;1536 x 864
H025;25;Vrouwelijk;Rechts;1;74;right;yes;100;rightarrow;335;false;focus;yes;250050;Chrome;113.0;Windows;10;undefined;undefined;1536 x 864;1536 x 864
H025;25;Vrouwelijk;Rechts;1;75;left;no;50;leftarrow;328;true;focus;yes;251149;Chrome;113.0;Windows;10;undefined;undefined;1536 x 864;1536 x 864
H025;25;Vrouwelijk;Rechts;1;76;right;no;50;rightarrow;358;true;focus;yes;252277;Chrome;113.0;Windows;10;undefined;undefined;1536 x 864;1536 x 864
H025;25;Vrouwelijk;Rechts;1;77;left;yes;50;leftarrow;353;false;focus;yes;253408;Chrome;113.0;Windows;10;undefined;undefined;1536 x 864;1536 x 864
H025;25;Vrouwelijk;Rechts;1;78;left;no;50;leftarrow;385;true;focus;yes;254572;Chrome;113.0;Windows;10;undefined;undefined;1536 x 864;1536 x 864
H025;25;Vrouwelijk;Rechts;1;79;left;no;50;leftarrow;342;true;focus;yes;255690;Chrome;113.0;Windows;10;undefined;undefined;1536 x 864;1536 x 864
H025;25;Vrouwelijk;Rechts;1;80;right;no;50;rightarrow;314;true;focus;yes;256780;Chrome;113.0;Windows;10;undefined;undefined;1536 x 864;1536 x 864
H025;25;Vrouwelijk;Rechts;1;81;right;no;50;rightarrow;344;true;focus;yes;257896;Chrome;113.0;Windows;10;undefined;undefined;1536 x 864;1536 x 864
H025;25;Vrouwelijk;Rechts;1;82;left;no;50;leftarrow;325;true;focus;yes;259001;Chrome;113.0;Windows;10;undefined;undefined;1536 x 864;1536 x 864
H025;25;Vrouwelijk;Rechts;1;83;left;no;50;leftarrow;297;true;focus;yes;260073;Chrome;113.0;Windows;10;undefined;undefined;1536 x 864;1536 x 864
H025;25;Vrouwelijk;Rechts;1;84;left;no;50;leftarrow;332;true;focus;yes;261179;Chrome;113.0;Windows;10;undefined;undefined;1536 x 864;1536 x 864
H025;25;Vrouwelijk;Rechts;1;85;left;yes;50;undefined;null;true;focus;yes;263206;Chrome;113.0;Windows;10;undefined;undefined;1536 x 864;1536 x 864
H025;25;Vrouwelijk;Rechts;1;86;right;no;100;rightarrow;367;true;focus;yes;264354;Chrome;113.0;Windows;10;undefined;undefined;1536 x 864;1536 x 864
H025;25;Vrouwelijk;Rechts;1;87;right;yes;100;rightarrow;355;false;focus;yes;265477;Chrome;113.0;Windows;10;undefined;undefined;1536 x 864;1536 x 864
H025;25;Vrouwelijk;Rechts;1;88;right;no;50;rightarrow;371;true;focus;yes;266629;Chrome;113.0;Windows;10;undefined;undefined;1536 x 864;1536 x 864
H025;25;Vrouwelijk;Rechts;1;89;right;no;50;rightarrow;351;true;focus;yes;267754;Chrome;113.0;Windows;10;undefined;undefined;1536 x 864;1536 x 864
H025;25;Vrouwelijk;Rechts;1;90;left;yes;50;leftarrow;328;false;focus;yes;268862;Chrome;113.0;Windows;10;undefined;undefined;1536 x 864;1536 x 864
H025;25;Vrouwelijk;Rechts;1;91;left;no;50;leftarrow;385;true;focus;yes;270020;Chrome;113.0;Windows;10;undefined;undefined;1536 x 864;1536 x 864
H025;25;Vrouwelijk;Rechts;1;92;left;no;50;leftarrow;289;true;focus;yes;271089;Chrome;113.0;Windows;10;undefined;undefined;1536 x 864;1536 x 864
H025;25;Vrouwelijk;Rechts;1;93;right;no;50;rightarrow;425;true;focus;yes;272286;Chrome;113.0;Windows;10;undefined;undefined;1536 x 864;1536 x 864
H025;25;Vrouwelijk;Rechts;1;94;right;no;50;rightarrow;283;true;focus;yes;273352;Chrome;113.0;Windows;10;undefined;undefined;1536 x 864;1536 x 864
H025;25;Vrouwelijk;Rechts;1;95;left;no;50;leftarrow;358;true;focus;yes;274480;Chrome;113.0;Windows;10;undefined;undefined;1536 x 864;1536 x 864
H025;25;Vrouwelijk;Rechts;1;96;right;yes;50;rightarrow;304;false;focus;yes;275556;Chrome;113.0;Windows;10;undefined;undefined;1536 x 864;1536 x 864
H025;25;Vrouwelijk;Rechts;1;97;right;yes;50;undefined;null;true;focus;yes;277579;Chrome;113.0;Windows;10;undefined;undefined;1536 x 864;1536 x 864
H025;25;Vrouwelijk;Rechts;1;98;right;no;100;rightarrow;406;true;focus;yes;278764;Chrome;113.0;Windows;10;undefined;undefined;1536 x 864;1536 x 864
H025;25;Vrouwelijk;Rechts;1;99;right;no;100;rightarrow;304;true;focus;yes;279839;Chrome;113.0;Windows;10;undefined;undefined;1536 x 864;1536 x 864
H025;25;Vrouwelijk;Rechts;1;100;left;no;100;rightarrow;279;false;focus;yes;280889;Chrome;113.0;Windows;10;undefined;undefined;1536 x 864;1536 x 864
H025;25;Vrouwelijk;Rechts;1;101;left;yes;100;leftarrow;400;false;focus;yes;282067;Chrome;113.0;Windows;10;undefined;undefined;1536 x 864;1536 x 864
H025;25;Vrouwelijk;Rechts;1;102;right;no;50;rightarrow;355;true;focus;yes;283202;Chrome;113.0;Windows;10;undefined;undefined;1536 x 864;1536 x 864
H025;25;Vrouwelijk;Rechts;1;103;left;no;50;leftarrow;376;true;focus;yes;284359;Chrome;113.0;Windows;10;undefined;undefined;1536 x 864;1536 x 864
H025;25;Vrouwelijk;Rechts;1;104;left;no;50;leftarrow;316;true;focus;yes;285448;Chrome;113.0;Windows;10;undefined;undefined;1536 x 864;1536 x 864
H025;25;Vrouwelijk;Rechts;1;105;right;no;50;rightarrow;376;true;focus;yes;286607;Chrome;113.0;Windows;10;undefined;undefined;1536 x 864;1536 x 864
H025;25;Vrouwelijk;Rechts;1;106;left;no;50;leftarrow;268;true;focus;yes;287649;Chrome;113.0;Windows;10;undefined;undefined;1536 x 864;1536 x 864
H025;25;Vrouwelijk;Rechts;1;107;right;no;50;rightarrow;380;true;focus;yes;288799;Chrome;113.0;Windows;10;undefined;undefined;1536 x 864;1536 x 864
H025;25;Vrouwelijk;Rechts;1;108;right;yes;50;undefined;null;true;focus;yes;290824;Chrome;113.0;Windows;10;undefined;undefined;1536 x 864;1536 x 864
H025;25;Vrouwelijk;Rechts;1;109;right;no;100;rightarrow;365;true;focus;yes;291966;Chrome;113.0;Windows;10;undefined;undefined;1536 x 864;1536 x 864
H025;25;Vrouwelijk;Rechts;1;110;left;yes;100;leftarrow;310;false;focus;yes;293047;Chrome;113.0;Windows;10;undefined;undefined;1536 x 864;1536 x 864
H025;25;Vrouwelijk;Rechts;1;111;left;no;50;leftarrow;323;true;focus;yes;294148;Chrome;113.0;Windows;10;undefined;undefined;1536 x 864;1536 x 864
H025;25;Vrouwelijk;Rechts;1;112;left;no;50;leftarrow;359;true;focus;yes;295289;Chrome;113.0;Windows;10;undefined;undefined;1536 x 864;1536 x 864
H025;25;Vrouwelijk;Rechts;1;113;right;no;50;rightarrow;323;true;focus;yes;296381;Chrome;113.0;Windows;10;undefined;undefined;1536 x 864;1536 x 864
H025;25;Vrouwelijk;Rechts;1;114;left;yes;50;undefined;null;true;focus;yes;298420;Chrome;113.0;Windows;10;undefined;undefined;1536 x 864;1536 x 864
H025;25;Vrouwelijk;Rechts;1;115;left;no;100;leftarrow;377;true;focus;yes;299578;Chrome;113.0;Windows;10;undefined;undefined;1536 x 864;1536 x 864
H025;25;Vrouwelijk;Rechts;1;116;left;no;100;rightarrow;267;false;focus;yes;300624;Chrome;113.0;Windows;10;undefined;undefined;1536 x 864;1536 x 864
H025;25;Vrouwelijk;Rechts;1;117;right;no;100;rightarrow;419;true;focus;yes;301813;Chrome;113.0;Windows;10;undefined;undefined;1536 x 864;1536 x 864
H025;25;Vrouwelijk;Rechts;1;118;left;no;100;leftarrow;284;true;focus;yes;302879;Chrome;113.0;Windows;10;undefined;undefined;1536 x 864;1536 x 864
H025;25;Vrouwelijk;Rechts;1;119;right;no;100;rightarrow;353;true;focus;yes;304008;Chrome;113.0;Windows;10;undefined;undefined;1536 x 864;1536 x 864
H025;25;Vrouwelijk;Rechts;1;120;right;yes;100;rightarrow;340;false;focus;yes;305125;Chrome;113.0;Windows;10;undefined;undefined;1536 x 864;1536 x 864
H025;25;Vrouwelijk;Rechts;1;121;left;no;50;leftarrow;293;true;focus;yes;306197;Chrome;113.0;Windows;10;undefined;undefined;1536 x 864;1536 x 864
H025;25;Vrouwelijk;Rechts;1;122;left;no;50;leftarrow;286;true;focus;yes;307260;Chrome;113.0;Windows;10;undefined;undefined;1536 x 864;1536 x 864
H025;25;Vrouwelijk;Rechts;1;123;right;no;50;rightarrow;334;true;focus;yes;308376;Chrome;113.0;Windows;10;undefined;undefined;1536 x 864;1536 x 864
H025;25;Vrouwelijk;Rechts;1;124;left;yes;50;undefined;null;true;focus;yes;310403;Chrome;113.0;Windows;10;undefined;undefined;1536 x 864;1536 x 864
H025;25;Vrouwelijk;Rechts;1;125;right;no;100;rightarrow;339;true;focus;yes;311526;Chrome;113.0;Windows;10;undefined;undefined;1536 x 864;1536 x 864
H025;25;Vrouwelijk;Rechts;1;126;right;no;100;leftarrow;302;false;focus;yes;312611;Chrome;113.0;Windows;10;undefined;undefined;1536 x 864;1536 x 864
H025;25;Vrouwelijk;Rechts;1;127;right;yes;100;rightarrow;400;false;focus;yes;313781;Chrome;113.0;Windows;10;undefined;undefined;1536 x 864;1536 x 864
H025;25;Vrouwelijk;Rechts;1;128;left;no;50;leftarrow;322;true;focus;yes;314876;Chrome;113.0;Windows;10;undefined;undefined;1536 x 864;1536 x 864
H025;25;Vrouwelijk;Rechts;2;1;left;no;50;leftarrow;365;true;focus;yes;334287;Chrome;113.0;Windows;10;undefined;undefined;1536 x 864;1536 x 864
H025;25;Vrouwelijk;Rechts;2;2;left;no;50;leftarrow;342;true;focus;yes;335401;Chrome;113.0;Windows;10;undefined;undefined;1536 x 864;1536 x 864
H025;25;Vrouwelijk;Rechts;2;3;right;yes;50;rightarrow;343;false;focus;yes;336517;Chrome;113.0;Windows;10;undefined;undefined;1536 x 864;1536 x 864
H025;25;Vrouwelijk;Rechts;2;4;right;no;50;rightarrow;361;true;focus;yes;337650;Chrome;113.0;Windows;10;undefined;undefined;1536 x 864;1536 x 864
H025;25;Vrouwelijk;Rechts;2;5;right;no;50;rightarrow;339;true;focus;yes;338763;Chrome;113.0;Windows;10;undefined;undefined;1536 x 864;1536 x 864
H025;25;Vrouwelijk;Rechts;2;6;left;no;50;leftarrow;352;true;focus;yes;339895;Chrome;113.0;Windows;10;undefined;undefined;1536 x 864;1536 x 864
H025;25;Vrouwelijk;Rechts;2;7;right;no;50;rightarrow;348;true;focus;yes;341025;Chrome;113.0;Windows;10;undefined;undefined;1536 x 864;1536 x 864
H025;25;Vrouwelijk;Rechts;2;8;left;yes;50;leftarrow;399;false;focus;yes;342194;Chrome;113.0;Windows;10;undefined;undefined;1536 x 864;1536 x 864
H025;25;Vrouwelijk;Rechts;2;9;left;no;50;leftarrow;313;true;focus;yes;343277;Chrome;113.0;Windows;10;undefined;undefined;1536 x 864;1536 x 864
H025;25;Vrouwelijk;Rechts;2;10;right;yes;50;undefined;null;true;focus;yes;345309;Chrome;113.0;Windows;10;undefined;undefined;1536 x 864;1536 x 864
H025;25;Vrouwelijk;Rechts;2;11;left;no;100;leftarrow;304;true;focus;yes;346395;Chrome;113.0;Windows;10;undefined;undefined;1536 x 864;1536 x 864
H025;25;Vrouwelijk;Rechts;2;12;right;no;100;rightarrow;351;true;focus;yes;347528;Chrome;113.0;Windows;10;undefined;undefined;1536 x 864;1536 x 864
H025;25;Vrouwelijk;Rechts;2;13;right;no;100;rightarrow;374;true;focus;yes;348684;Chrome;113.0;Windows;10;undefined;undefined;1536 x 864;1536 x 864
H025;25;Vrouwelijk;Rechts;2;14;left;yes;100;leftarrow;340;false;focus;yes;349786;Chrome;113.0;Windows;10;undefined;undefined;1536 x 864;1536 x 864
H025;25;Vrouwelijk;Rechts;2;15;right;no;50;rightarrow;354;true;focus;yes;350918;Chrome;113.0;Windows;10;undefined;undefined;1536 x 864;1536 x 864
H025;25;Vrouwelijk;Rechts;2;16;left;no;50;leftarrow;282;true;focus;yes;351979;Chrome;113.0;Windows;10;undefined;undefined;1536 x 864;1536 x 864
H025;25;Vrouwelijk;Rechts;2;17;left;yes;50;undefined;null;true;focus;yes;354010;Chrome;113.0;Windows;10;undefined;undefined;1536 x 864;1536 x 864
H025;25;Vrouwelijk;Rechts;2;18;right;no;100;rightarrow;353;true;focus;yes;355143;Chrome;113.0;Windows;10;undefined;undefined;1536 x 864;1536 x 864
H025;25;Vrouwelijk;Rechts;2;19;left;no;100;leftarrow;307;true;focus;yes;356231;Chrome;113.0;Windows;10;undefined;undefined;1536 x 864;1536 x 864
H025;25;Vrouwelijk;Rechts;2;20;right;no;100;rightarrow;320;true;focus;yes;357312;Chrome;113.0;Windows;10;undefined;undefined;1536 x 864;1536 x 864
H025;25;Vrouwelijk;Rechts;2;21;right;yes;100;rightarrow;383;false;focus;yes;358479;Chrome;113.0;Windows;10;undefined;undefined;1536 x 864;1536 x 864
H025;25;Vrouwelijk;Rechts;2;22;right;no;50;rightarrow;511;true;focus;yes;359758;Chrome;113.0;Windows;10;undefined;undefined;1536 x 864;1536 x 864
H025;25;Vrouwelijk;Rechts;2;23;left;no;50;leftarrow;335;true;focus;yes;360875;Chrome;113.0;Windows;10;undefined;undefined;1536 x 864;1536 x 864
H025;25;Vrouwelijk;Rechts;2;24;left;no;50;leftarrow;351;true;focus;yes;362005;Chrome;113.0;Windows;10;undefined;undefined;1536 x 864;1536 x 864
H025;25;Vrouwelijk;Rechts;2;25;left;no;50;leftarrow;364;true;focus;yes;363141;Chrome;113.0;Windows;10;undefined;undefined;1536 x 864;1536 x 864
H025;25;Vrouwelijk;Rechts;2;26;right;yes;50;rightarrow;365;false;focus;yes;364287;Chrome;113.0;Windows;10;undefined;undefined;1536 x 864;1536 x 864
H025;25;Vrouwelijk;Rechts;2;27;right;no;50;leftarrow;246;false;focus;yes;365318;Chrome;113.0;Windows;10;undefined;undefined;1536 x 864;1536 x 864
H025;25;Vrouwelijk;Rechts;2;28;left;no;50;leftarrow;347;true;focus;yes;366449;Chrome;113.0;Windows;10;undefined;undefined;1536 x 864;1536 x 864
H025;25;Vrouwelijk;Rechts;2;29;right;no;50;rightarrow;293;true;focus;yes;367515;Chrome;113.0;Windows;10;undefined;undefined;1536 x 864;1536 x 864
H025;25;Vrouwelijk;Rechts;2;30;left;yes;50;undefined;null;true;focus;yes;369550;Chrome;113.0;Windows;10;undefined;undefined;1536 x 864;1536 x 864
H025;25;Vrouwelijk;Rechts;2;31;right;no;100;rightarrow;370;true;focus;yes;370698;Chrome;113.0;Windows;10;undefined;undefined;1536 x 864;1536 x 864
H025;25;Vrouwelijk;Rechts;2;32;left;no;100;leftarrow;345;true;focus;yes;371826;Chrome;113.0;Windows;10;undefined;undefined;1536 x 864;1536 x 864
H025;25;Vrouwelijk;Rechts;2;33;right;no;100;rightarrow;294;true;focus;yes;372878;Chrome;113.0;Windows;10;undefined;undefined;1536 x 864;1536 x 864
H025;25;Vrouwelijk;Rechts;2;34;right;no;100;rightarrow;354;true;focus;yes;374008;Chrome;113.0;Windows;10;undefined;undefined;1536 x 864;1536 x 864
H025;25;Vrouwelijk;Rechts;2;35;right;no;100;rightarrow;322;true;focus;yes;375110;Chrome;113.0;Windows;10;undefined;undefined;1536 x 864;1536 x 864
H025;25;Vrouwelijk;Rechts;2;36;left;yes;100;undefined;null;true;focus;yes;377149;Chrome;113.0;Windows;10;undefined;undefined;1536 x 864;1536 x 864
H025;25;Vrouwelijk;Rechts;2;37;right;yes;150;rightarrow;303;false;focus;yes;378233;Chrome;113.0;Windows;10;undefined;undefined;1536 x 864;1536 x 864
H025;25;Vrouwelijk;Rechts;2;38;left;no;100;leftarrow;297;true;focus;yes;379300;Chrome;113.0;Windows;10;undefined;undefined;1536 x 864;1536 x 864
H025;25;Vrouwelijk;Rechts;2;39;left;no;100;leftarrow;305;true;focus;yes;380382;Chrome;113.0;Windows;10;undefined;undefined;1536 x 864;1536 x 864
H025;25;Vrouwelijk;Rechts;2;40;left;no;100;leftarrow;344;true;focus;yes;381507;Chrome;113.0;Windows;10;undefined;undefined;1536 x 864;1536 x 864
H025;25;Vrouwelijk;Rechts;2;41;left;no;100;leftarrow;332;true;focus;yes;382612;Chrome;113.0;Windows;10;undefined;undefined;1536 x 864;1536 x 864
H025;25;Vrouwelijk;Rechts;2;42;left;no;100;leftarrow;383;true;focus;yes;383763;Chrome;113.0;Windows;10;undefined;undefined;1536 x 864;1536 x 864
H025;25;Vrouwelijk;Rechts;2;43;left;yes;100;leftarrow;291;false;focus;yes;384821;Chrome;113.0;Windows;10;undefined;undefined;1536 x 864;1536 x 864
H025;25;Vrouwelijk;Rechts;2;44;right;yes;50;rightarrow;364;false;focus;yes;385957;Chrome;113.0;Windows;10;undefined;undefined;1536 x 864;1536 x 864
H025;25;Vrouwelijk;Rechts;2;45;right;no;50;rightarrow;350;true;focus;yes;387076;Chrome;113.0;Windows;10;undefined;undefined;1536 x 864;1536 x 864
H025;25;Vrouwelijk;Rechts;2;46;right;no;50;rightarrow;400;true;focus;yes;388260;Chrome;113.0;Windows;10;undefined;undefined;1536 x 864;1536 x 864
H025;25;Vrouwelijk;Rechts;2;47;right;no;50;rightarrow;409;true;focus;yes;389444;Chrome;113.0;Windows;10;undefined;undefined;1536 x 864;1536 x 864
H025;25;Vrouwelijk;Rechts;2;48;left;no;50;leftarrow;415;true;focus;yes;390631;Chrome;113.0;Windows;10;undefined;undefined;1536 x 864;1536 x 864
H025;25;Vrouwelijk;Rechts;2;49;right;no;50;rightarrow;357;true;focus;yes;391760;Chrome;113.0;Windows;10;undefined;undefined;1536 x 864;1536 x 864
H025;25;Vrouwelijk;Rechts;2;50;left;no;50;leftarrow;299;true;focus;yes;392825;Chrome;113.0;Windows;10;undefined;undefined;1536 x 864;1536 x 864
H025;25;Vrouwelijk;Rechts;2;51;left;yes;50;undefined;null;true;focus;yes;394859;Chrome;113.0;Windows;10;undefined;undefined;1536 x 864;1536 x 864
H025;25;Vrouwelijk;Rechts;2;52;left;no;100;leftarrow;322;true;focus;yes;395963;Chrome;113.0;Windows;10;undefined;undefined;1536 x 864;1536 x 864
H025;25;Vrouwelijk;Rechts;2;53;right;yes;100;rightarrow;319;false;focus;yes;397064;Chrome;113.0;Windows;10;undefined;undefined;1536 x 864;1536 x 864
H025;25;Vrouwelijk;Rechts;2;54;left;no;50;leftarrow;309;true;focus;yes;398152;Chrome;113.0;Windows;10;undefined;undefined;1536 x 864;1536 x 864
H025;25;Vrouwelijk;Rechts;2;55;right;no;50;rightarrow;360;true;focus;yes;399294;Chrome;113.0;Windows;10;undefined;undefined;1536 x 864;1536 x 864
H025;25;Vrouwelijk;Rechts;2;56;right;no;50;rightarrow;276;true;focus;yes;400344;Chrome;113.0;Windows;10;undefined;undefined;1536 x 864;1536 x 864
H025;25;Vrouwelijk;Rechts;2;57;right;no;50;rightarrow;307;true;focus;yes;401431;Chrome;113.0;Windows;10;undefined;undefined;1536 x 864;1536 x 864
H025;25;Vrouwelijk;Rechts;2;58;left;no;50;leftarrow;388;true;focus;yes;402597;Chrome;113.0;Windows;10;undefined;undefined;1536 x 864;1536 x 864
H025;25;Vrouwelijk;Rechts;2;59;right;no;50;rightarrow;273;true;focus;yes;403648;Chrome;113.0;Windows;10;undefined;undefined;1536 x 864;1536 x 864
H025;25;Vrouwelijk;Rechts;2;60;right;yes;50;undefined;null;true;focus;yes;405682;Chrome;113.0;Windows;10;undefined;undefined;1536 x 864;1536 x 864
H025;25;Vrouwelijk;Rechts;2;61;left;yes;100;leftarrow;284;false;focus;yes;406747;Chrome;113.0;Windows;10;undefined;undefined;1536 x 864;1536 x 864
H025;25;Vrouwelijk;Rechts;2;62;left;no;50;leftarrow;317;true;focus;yes;407838;Chrome;113.0;Windows;10;undefined;undefined;1536 x 864;1536 x 864
H025;25;Vrouwelijk;Rechts;2;63;left;no;50;leftarrow;410;true;focus;yes;409022;Chrome;113.0;Windows;10;undefined;undefined;1536 x 864;1536 x 864
H025;25;Vrouwelijk;Rechts;2;64;right;no;50;rightarrow;371;true;focus;yes;410162;Chrome;113.0;Windows;10;undefined;undefined;1536 x 864;1536 x 864
H025;25;Vrouwelijk;Rechts;2;65;left;no;50;leftarrow;374;true;focus;yes;411312;Chrome;113.0;Windows;10;undefined;undefined;1536 x 864;1536 x 864
H025;25;Vrouwelijk;Rechts;2;66;left;no;50;leftarrow;227;true;focus;yes;412320;Chrome;113.0;Windows;10;undefined;undefined;1536 x 864;1536 x 864
H025;25;Vrouwelijk;Rechts;2;67;left;no;50;leftarrow;285;true;focus;yes;413383;Chrome;113.0;Windows;10;undefined;undefined;1536 x 864;1536 x 864
H025;25;Vrouwelijk;Rechts;2;68;left;yes;50;leftarrow;287;false;focus;yes;414441;Chrome;113.0;Windows;10;undefined;undefined;1536 x 864;1536 x 864
H025;25;Vrouwelijk;Rechts;2;69;right;yes;50;rightarrow;363;false;focus;yes;415579;Chrome;113.0;Windows;10;undefined;undefined;1536 x 864;1536 x 864
H025;25;Vrouwelijk;Rechts;2;70;right;no;50;rightarrow;339;true;focus;yes;416688;Chrome;113.0;Windows;10;undefined;undefined;1536 x 864;1536 x 864
H025;25;Vrouwelijk;Rechts;2;71;right;no;50;rightarrow;387;true;focus;yes;417857;Chrome;113.0;Windows;10;undefined;undefined;1536 x 864;1536 x 864
H025;25;Vrouwelijk;Rechts;2;72;right;no;50;rightarrow;368;true;focus;yes;419005;Chrome;113.0;Windows;10;undefined;undefined;1536 x 864;1536 x 864
H025;25;Vrouwelijk;Rechts;2;73;right;yes;50;undefined;null;true;focus;yes;421039;Chrome;113.0;Windows;10;undefined;undefined;1536 x 864;1536 x 864
H025;25;Vrouwelijk;Rechts;2;74;left;no;100;leftarrow;363;true;focus;yes;422183;Chrome;113.0;Windows;10;undefined;undefined;1536 x 864;1536 x 864
H025;25;Vrouwelijk;Rechts;2;75;right;no;100;rightarrow;330;true;focus;yes;423297;Chrome;113.0;Windows;10;undefined;undefined;1536 x 864;1536 x 864
H025;25;Vrouwelijk;Rechts;2;76;right;no;100;rightarrow;367;true;focus;yes;424434;Chrome;113.0;Windows;10;undefined;undefined;1536 x 864;1536 x 864
H025;25;Vrouwelijk;Rechts;2;77;left;yes;100;rightarrow;304;false;focus;yes;425519;Chrome;113.0;Windows;10;undefined;undefined;1536 x 864;1536 x 864
H025;25;Vrouwelijk;Rechts;2;78;right;no;50;rightarrow;379;true;focus;yes;426672;Chrome;113.0;Windows;10;undefined;undefined;1536 x 864;1536 x 864
H025;25;Vrouwelijk;Rechts;2;79;left;no;50;leftarrow;356;true;focus;yes;427803;Chrome;113.0;Windows;10;undefined;undefined;1536 x 864;1536 x 864
H025;25;Vrouwelijk;Rechts;2;80;left;no;50;leftarrow;335;true;focus;yes;428916;Chrome;113.0;Windows;10;undefined;undefined;1536 x 864;1536 x 864
H025;25;Vrouwelijk;Rechts;2;81;left;no;50;leftarrow;339;true;focus;yes;430034;Chrome;113.0;Windows;10;undefined;undefined;1536 x 864;1536 x 864
H025;25;Vrouwelijk;Rechts;2;82;right;no;50;rightarrow;336;true;focus;yes;431149;Chrome;113.0;Windows;10;undefined;undefined;1536 x 864;1536 x 864
H025;25;Vrouwelijk;Rechts;2;83;left;no;50;leftarrow;327;true;focus;yes;432258;Chrome;113.0;Windows;10;undefined;undefined;1536 x 864;1536 x 864
H025;25;Vrouwelijk;Rechts;2;84;left;yes;50;undefined;null;true;focus;yes;434291;Chrome;113.0;Windows;10;undefined;undefined;1536 x 864;1536 x 864
H025;25;Vrouwelijk;Rechts;2;85;right;yes;100;rightarrow;385;false;focus;yes;435455;Chrome;113.0;Windows;10;undefined;undefined;1536 x 864;1536 x 864
H025;25;Vrouwelijk;Rechts;2;86;right;no;50;leftarrow;312;false;focus;yes;436549;Chrome;113.0;Windows;10;undefined;undefined;1536 x 864;1536 x 864
H025;25;Vrouwelijk;Rechts;2;87;left;no;50;leftarrow;337;true;focus;yes;437665;Chrome;113.0;Windows;10;undefined;undefined;1536 x 864;1536 x 864
H025;25;Vrouwelijk;Rechts;2;88;right;no;50;rightarrow;373;true;focus;yes;438818;Chrome;113.0;Windows;10;undefined;undefined;1536 x 864;1536 x 864
H025;25;Vrouwelijk;Rechts;2;89;left;no;50;leftarrow;319;true;focus;yes;439913;Chrome;113.0;Windows;10;undefined;undefined;1536 x 864;1536 x 864
H025;25;Vrouwelijk;Rechts;2;90;left;no;50;leftarrow;333;true;focus;yes;441031;Chrome;113.0;Windows;10;undefined;undefined;1536 x 864;1536 x 864
H025;25;Vrouwelijk;Rechts;2;91;left;yes;50;undefined;null;true;focus;yes;443059;Chrome;113.0;Windows;10;undefined;undefined;1536 x 864;1536 x 864
H025;25;Vrouwelijk;Rechts;2;92;right;no;100;rightarrow;298;true;focus;yes;444137;Chrome;113.0;Windows;10;undefined;undefined;1536 x 864;1536 x 864
H025;25;Vrouwelijk;Rechts;2;93;right;no;100;rightarrow;307;true;focus;yes;445213;Chrome;113.0;Windows;10;undefined;undefined;1536 x 864;1536 x 864
H025;25;Vrouwelijk;Rechts;2;94;right;yes;100;undefined;null;true;focus;yes;447232;Chrome;113.0;Windows;10;undefined;undefined;1536 x 864;1536 x 864
H025;25;Vrouwelijk;Rechts;2;95;right;no;150;rightarrow;346;true;focus;yes;448359;Chrome;113.0;Windows;10;undefined;undefined;1536 x 864;1536 x 864
H025;25;Vrouwelijk;Rechts;2;96;left;no;150;leftarrow;267;true;focus;yes;449397;Chrome;113.0;Windows;10;undefined;undefined;1536 x 864;1536 x 864
H025;25;Vrouwelijk;Rechts;2;97;left;no;150;rightarrow;283;false;focus;yes;450450;Chrome;113.0;Windows;10;undefined;undefined;1536 x 864;1536 x 864
H025;25;Vrouwelijk;Rechts;2;98;left;no;150;leftarrow;399;true;focus;yes;451625;Chrome;113.0;Windows;10;undefined;undefined;1536 x 864;1536 x 864
H025;25;Vrouwelijk;Rechts;2;99;right;no;150;rightarrow;402;true;focus;yes;452810;Chrome;113.0;Windows;10;undefined;undefined;1536 x 864;1536 x 864
H025;25;Vrouwelijk;Rechts;2;100;right;no;150;rightarrow;425;true;focus;yes;454013;Chrome;113.0;Windows;10;undefined;undefined;1536 x 864;1536 x 864
H025;25;Vrouwelijk;Rechts;2;101;right;yes;150;rightarrow;367;false;focus;yes;455154;Chrome;113.0;Windows;10;undefined;undefined;1536 x 864;1536 x 864
H025;25;Vrouwelijk;Rechts;2;102;right;no;100;rightarrow;433;true;focus;yes;456373;Chrome;113.0;Windows;10;undefined;undefined;1536 x 864;1536 x 864
H025;25;Vrouwelijk;Rechts;2;103;left;no;100;leftarrow;397;true;focus;yes;457549;Chrome;113.0;Windows;10;undefined;undefined;1536 x 864;1536 x 864
H025;25;Vrouwelijk;Rechts;2;104;left;yes;100;leftarrow;313;false;focus;yes;458636;Chrome;113.0;Windows;10;undefined;undefined;1536 x 864;1536 x 864
H025;25;Vrouwelijk;Rechts;2;105;left;no;50;leftarrow;438;true;focus;yes;459836;Chrome;113.0;Windows;10;undefined;undefined;1536 x 864;1536 x 864
H025;25;Vrouwelijk;Rechts;2;106;left;no;50;leftarrow;344;true;focus;yes;460950;Chrome;113.0;Windows;10;undefined;undefined;1536 x 864;1536 x 864
H025;25;Vrouwelijk;Rechts;2;107;right;yes;50;rightarrow;372;false;focus;yes;462094;Chrome;113.0;Windows;10;undefined;undefined;1536 x 864;1536 x 864
H025;25;Vrouwelijk;Rechts;2;108;right;no;50;rightarrow;357;true;focus;yes;463233;Chrome;113.0;Windows;10;undefined;undefined;1536 x 864;1536 x 864
H025;25;Vrouwelijk;Rechts;2;109;left;yes;50;leftarrow;356;false;focus;yes;464372;Chrome;113.0;Windows;10;undefined;undefined;1536 x 864;1536 x 864
H025;25;Vrouwelijk;Rechts;2;110;left;no;50;leftarrow;324;true;focus;yes;465473;Chrome;113.0;Windows;10;undefined;undefined;1536 x 864;1536 x 864
H025;25;Vrouwelijk;Rechts;2;111;right;no;50;rightarrow;369;true;focus;yes;466621;Chrome;113.0;Windows;10;undefined;undefined;1536 x 864;1536 x 864
H025;25;Vrouwelijk;Rechts;2;112;right;no;50;rightarrow;313;true;focus;yes;467718;Chrome;113.0;Windows;10;undefined;undefined;1536 x 864;1536 x 864
H025;25;Vrouwelijk;Rechts;2;113;right;yes;50;undefined;null;true;focus;yes;469749;Chrome;113.0;Windows;10;undefined;undefined;1536 x 864;1536 x 864
H025;25;Vrouwelijk;Rechts;2;114;left;no;100;leftarrow;321;true;focus;yes;470837;Chrome;113.0;Windows;10;undefined;undefined;1536 x 864;1536 x 864
H025;25;Vrouwelijk;Rechts;2;115;right;no;100;rightarrow;362;true;focus;yes;471967;Chrome;113.0;Windows;10;undefined;undefined;1536 x 864;1536 x 864
H025;25;Vrouwelijk;Rechts;2;116;left;yes;100;leftarrow;315;false;focus;yes;473059;Chrome;113.0;Windows;10;undefined;undefined;1536 x 864;1536 x 864
H025;25;Vrouwelijk;Rechts;2;117;left;no;50;rightarrow;253;false;focus;yes;474081;Chrome;113.0;Windows;10;undefined;undefined;1536 x 864;1536 x 864
H025;25;Vrouwelijk;Rechts;2;118;right;no;50;rightarrow;293;true;focus;yes;475147;Chrome;113.0;Windows;10;undefined;undefined;1536 x 864;1536 x 864
H025;25;Vrouwelijk;Rechts;2;119;left;no;50;leftarrow;372;true;focus;yes;476302;Chrome;113.0;Windows;10;undefined;undefined;1536 x 864;1536 x 864
H025;25;Vrouwelijk;Rechts;2;120;right;no;50;rightarrow;321;true;focus;yes;477401;Chrome;113.0;Windows;10;undefined;undefined;1536 x 864;1536 x 864
H025;25;Vrouwelijk;Rechts;2;121;right;no;50;rightarrow;288;true;focus;yes;478454;Chrome;113.0;Windows;10;undefined;undefined;1536 x 864;1536 x 864
H025;25;Vrouwelijk;Rechts;2;122;left;no;50;leftarrow;281;true;focus;yes;479517;Chrome;113.0;Windows;10;undefined;undefined;1536 x 864;1536 x 864
H025;25;Vrouwelijk;Rechts;2;123;left;no;50;leftarrow;346;true;focus;yes;480634;Chrome;113.0;Windows;10;undefined;undefined;1536 x 864;1536 x 864
H025;25;Vrouwelijk;Rechts;2;124;left;yes;50;undefined;null;true;focus;yes;482665;Chrome;113.0;Windows;10;undefined;undefined;1536 x 864;1536 x 864
H025;25;Vrouwelijk;Rechts;2;125;right;no;100;rightarrow;347;true;focus;yes;483790;Chrome;113.0;Windows;10;undefined;undefined;1536 x 864;1536 x 864
H025;25;Vrouwelijk;Rechts;2;126;right;no;100;rightarrow;369;true;focus;yes;484932;Chrome;113.0;Windows;10;undefined;undefined;1536 x 864;1536 x 864
H025;25;Vrouwelijk;Rechts;2;127;right;yes;100;rightarrow;285;false;focus;yes;485997;Chrome;113.0;Windows;10;undefined;undefined;1536 x 864;1536 x 864
H025;25;Vrouwelijk;Rechts;2;128;left;no;50;leftarrow;256;true;focus;yes;487033;Chrome;113.0;Windows;10;undefined;undefined;1536 x 864;1536 x 864
H025;25;Vrouwelijk;Rechts;3;1;left;no;50;leftarrow;388;true;focus;yes;509262;Chrome;113.0;Windows;10;undefined;undefined;1536 x 864;1536 x 864
H025;25;Vrouwelijk;Rechts;3;2;left;no;50;leftarrow;317;true;focus;yes;510356;Chrome;113.0;Windows;10;undefined;undefined;1536 x 864;1536 x 864
H025;25;Vrouwelijk;Rechts;3;3;left;yes;50;leftarrow;286;false;focus;yes;511414;Chrome;113.0;Windows;10;undefined;undefined;1536 x 864;1536 x 864
H025;25;Vrouwelijk;Rechts;3;4;right;no;50;rightarrow;258;true;focus;yes;512442;Chrome;113.0;Windows;10;undefined;undefined;1536 x 864;1536 x 864
H025;25;Vrouwelijk;Rechts;3;5;right;no;50;rightarrow;299;true;focus;yes;513521;Chrome;113.0;Windows;10;undefined;undefined;1536 x 864;1536 x 864
H025;25;Vrouwelijk;Rechts;3;6;right;no;50;rightarrow;304;true;focus;yes;514595;Chrome;113.0;Windows;10;undefined;undefined;1536 x 864;1536 x 864
H025;25;Vrouwelijk;Rechts;3;7;left;no;50;leftarrow;362;true;focus;yes;515740;Chrome;113.0;Windows;10;undefined;undefined;1536 x 864;1536 x 864
H025;25;Vrouwelijk;Rechts;3;8;right;yes;50;rightarrow;360;false;focus;yes;516872;Chrome;113.0;Windows;10;undefined;undefined;1536 x 864;1536 x 864
H025;25;Vrouwelijk;Rechts;3;9;left;yes;50;leftarrow;373;false;focus;yes;518022;Chrome;113.0;Windows;10;undefined;undefined;1536 x 864;1536 x 864
H025;25;Vrouwelijk;Rechts;3;10;left;no;50;leftarrow;371;true;focus;yes;519170;Chrome;113.0;Windows;10;undefined;undefined;1536 x 864;1536 x 864
H025;25;Vrouwelijk;Rechts;3;11;left;no;50;leftarrow;382;true;focus;yes;520332;Chrome;113.0;Windows;10;undefined;undefined;1536 x 864;1536 x 864
H025;25;Vrouwelijk;Rechts;3;12;right;no;50;rightarrow;457;true;focus;yes;521574;Chrome;113.0;Windows;10;undefined;undefined;1536 x 864;1536 x 864
H025;25;Vrouwelijk;Rechts;3;13;left;no;50;leftarrow;347;true;focus;yes;522689;Chrome;113.0;Windows;10;undefined;undefined;1536 x 864;1536 x 864
H025;25;Vrouwelijk;Rechts;3;14;right;no;50;rightarrow;378;true;focus;yes;523839;Chrome;113.0;Windows;10;undefined;undefined;1536 x 864;1536 x 864
H025;25;Vrouwelijk;Rechts;3;15;right;no;50;rightarrow;339;true;focus;yes;524947;Chrome;113.0;Windows;10;undefined;undefined;1536 x 864;1536 x 864
H025;25;Vrouwelijk;Rechts;3;16;right;yes;50;undefined;null;true;focus;yes;526985;Chrome;113.0;Windows;10;undefined;undefined;1536 x 864;1536 x 864
H025;25;Vrouwelijk;Rechts;3;17;right;no;100;rightarrow;358;true;focus;yes;528123;Chrome;113.0;Windows;10;undefined;undefined;1536 x 864;1536 x 864
H025;25;Vrouwelijk;Rechts;3;18;left;yes;100;leftarrow;369;false;focus;yes;529270;Chrome;113.0;Windows;10;undefined;undefined;1536 x 864;1536 x 864
H025;25;Vrouwelijk;Rechts;3;19;right;no;50;rightarrow;314;true;focus;yes;530363;Chrome;113.0;Windows;10;undefined;undefined;1536 x 864;1536 x 864
H025;25;Vrouwelijk;Rechts;3;20;right;yes;50;rightarrow;375;false;focus;yes;531509;Chrome;113.0;Windows;10;undefined;undefined;1536 x 864;1536 x 864
H025;25;Vrouwelijk;Rechts;3;21;left;no;50;leftarrow;364;true;focus;yes;532647;Chrome;113.0;Windows;10;undefined;undefined;1536 x 864;1536 x 864
H025;25;Vrouwelijk;Rechts;3;22;right;no;50;rightarrow;372;true;focus;yes;533791;Chrome;113.0;Windows;10;undefined;undefined;1536 x 864;1536 x 864
H025;25;Vrouwelijk;Rechts;3;23;left;no;50;leftarrow;285;true;focus;yes;534855;Chrome;113.0;Windows;10;undefined;undefined;1536 x 864;1536 x 864
H025;25;Vrouwelijk;Rechts;3;24;left;no;50;leftarrow;367;true;focus;yes;535991;Chrome;113.0;Windows;10;undefined;undefined;1536 x 864;1536 x 864
H025;25;Vrouwelijk;Rechts;3;25;right;no;50;rightarrow;396;true;focus;yes;537158;Chrome;113.0;Windows;10;undefined;undefined;1536 x 864;1536 x 864
H025;25;Vrouwelijk;Rechts;3;26;left;yes;50;leftarrow;315;false;focus;yes;538243;Chrome;113.0;Windows;10;undefined;undefined;1536 x 864;1536 x 864
H025;25;Vrouwelijk;Rechts;3;27;right;no;50;rightarrow;516;true;focus;yes;539545;Chrome;113.0;Windows;10;undefined;undefined;1536 x 864;1536 x 864
H025;25;Vrouwelijk;Rechts;3;28;left;no;50;leftarrow;296;true;focus;yes;540613;Chrome;113.0;Windows;10;undefined;undefined;1536 x 864;1536 x 864
H025;25;Vrouwelijk;Rechts;3;29;left;no;50;leftarrow;338;true;focus;yes;541731;Chrome;113.0;Windows;10;undefined;undefined;1536 x 864;1536 x 864
H025;25;Vrouwelijk;Rechts;3;30;right;yes;50;rightarrow;322;false;focus;yes;542832;Chrome;113.0;Windows;10;undefined;undefined;1536 x 864;1536 x 864
H025;25;Vrouwelijk;Rechts;3;31;left;no;50;leftarrow;250;true;focus;yes;543862;Chrome;113.0;Windows;10;undefined;undefined;1536 x 864;1536 x 864
H025;25;Vrouwelijk;Rechts;3;32;right;no;50;rightarrow;355;true;focus;yes;544991;Chrome;113.0;Windows;10;undefined;undefined;1536 x 864;1536 x 864
H025;25;Vrouwelijk;Rechts;3;33;left;no;50;leftarrow;154;true;focus;yes;545922;Chrome;113.0;Windows;10;undefined;undefined;1536 x 864;1536 x 864
H025;25;Vrouwelijk;Rechts;3;34;left;yes;50;rightarrow;255;false;focus;yes;546954;Chrome;113.0;Windows;10;undefined;undefined;1536 x 864;1536 x 864
H025;25;Vrouwelijk;Rechts;3;35;right;no;50;rightarrow;389;true;focus;yes;548114;Chrome;113.0;Windows;10;undefined;undefined;1536 x 864;1536 x 864
H025;25;Vrouwelijk;Rechts;3;36;right;yes;50;rightarrow;649;false;focus;yes;549538;Chrome;113.0;Windows;10;undefined;undefined;1536 x 864;1536 x 864
H025;25;Vrouwelijk;Rechts;3;37;left;no;50;leftarrow;317;true;focus;yes;550634;Chrome;113.0;Windows;10;undefined;undefined;1536 x 864;1536 x 864
H025;25;Vrouwelijk;Rechts;3;38;right;no;50;rightarrow;375;true;focus;yes;551781;Chrome;113.0;Windows;10;undefined;undefined;1536 x 864;1536 x 864
H025;25;Vrouwelijk;Rechts;3;39;left;no;50;leftarrow;375;true;focus;yes;552915;Chrome;113.0;Windows;10;undefined;undefined;1536 x 864;1536 x 864
H025;25;Vrouwelijk;Rechts;3;40;right;no;50;rightarrow;356;true;focus;yes;554042;Chrome;113.0;Windows;10;undefined;undefined;1536 x 864;1536 x 864
H025;25;Vrouwelijk;Rechts;3;41;right;no;50;rightarrow;359;true;focus;yes;555180;Chrome;113.0;Windows;10;undefined;undefined;1536 x 864;1536 x 864
H025;25;Vrouwelijk;Rechts;3;42;left;no;50;leftarrow;365;true;focus;yes;556320;Chrome;113.0;Windows;10;undefined;undefined;1536 x 864;1536 x 864
H025;25;Vrouwelijk;Rechts;3;43;right;no;50;rightarrow;314;true;focus;yes;557405;Chrome;113.0;Windows;10;undefined;undefined;1536 x 864;1536 x 864
H025;25;Vrouwelijk;Rechts;3;44;left;yes;50;leftarrow;217;false;focus;yes;558392;Chrome;113.0;Windows;10;undefined;undefined;1536 x 864;1536 x 864
H025;25;Vrouwelijk;Rechts;3;45;right;no;50;rightarrow;325;true;focus;yes;559495;Chrome;113.0;Windows;10;undefined;undefined;1536 x 864;1536 x 864
H025;25;Vrouwelijk;Rechts;3;46;right;yes;50;undefined;null;true;focus;yes;561530;Chrome;113.0;Windows;10;undefined;undefined;1536 x 864;1536 x 864
H025;25;Vrouwelijk;Rechts;3;47;left;no;100;leftarrow;312;true;focus;yes;562623;Chrome;113.0;Windows;10;undefined;undefined;1536 x 864;1536 x 864
H025;25;Vrouwelijk;Rechts;3;48;left;no;100;leftarrow;326;true;focus;yes;563721;Chrome;113.0;Windows;10;undefined;undefined;1536 x 864;1536 x 864
H025;25;Vrouwelijk;Rechts;3;49;left;no;100;leftarrow;293;true;focus;yes;564794;Chrome;113.0;Windows;10;undefined;undefined;1536 x 864;1536 x 864
H025;25;Vrouwelijk;Rechts;3;50;right;no;100;rightarrow;397;true;focus;yes;565969;Chrome;113.0;Windows;10;undefined;undefined;1536 x 864;1536 x 864
H025;25;Vrouwelijk;Rechts;3;51;right;no;100;rightarrow;318;true;focus;yes;567070;Chrome;113.0;Windows;10;undefined;undefined;1536 x 864;1536 x 864
H025;25;Vrouwelijk;Rechts;3;52;right;yes;100;rightarrow;341;false;focus;yes;568182;Chrome;113.0;Windows;10;undefined;undefined;1536 x 864;1536 x 864
H025;25;Vrouwelijk;Rechts;3;53;left;no;50;leftarrow;303;true;focus;yes;569259;Chrome;113.0;Windows;10;undefined;undefined;1536 x 864;1536 x 864
H025;25;Vrouwelijk;Rechts;3;54;right;no;50;leftarrow;279;false;focus;yes;570321;Chrome;113.0;Windows;10;undefined;undefined;1536 x 864;1536 x 864
H025;25;Vrouwelijk;Rechts;3;55;left;no;50;leftarrow;327;true;focus;yes;571424;Chrome;113.0;Windows;10;undefined;undefined;1536 x 864;1536 x 864
H025;25;Vrouwelijk;Rechts;3;56;left;yes;50;undefined;null;true;focus;yes;573454;Chrome;113.0;Windows;10;undefined;undefined;1536 x 864;1536 x 864
H025;25;Vrouwelijk;Rechts;3;57;left;no;100;leftarrow;288;true;focus;yes;574521;Chrome;113.0;Windows;10;undefined;undefined;1536 x 864;1536 x 864
H025;25;Vrouwelijk;Rechts;3;58;right;yes;100;rightarrow;368;false;focus;yes;575660;Chrome;113.0;Windows;10;undefined;undefined;1536 x 864;1536 x 864
H025;25;Vrouwelijk;Rechts;3;59;right;no;50;leftarrow;238;false;focus;yes;576677;Chrome;113.0;Windows;10;undefined;undefined;1536 x 864;1536 x 864
H025;25;Vrouwelijk;Rechts;3;60;left;no;50;leftarrow;321;true;focus;yes;577770;Chrome;113.0;Windows;10;undefined;undefined;1536 x 864;1536 x 864
H025;25;Vrouwelijk;Rechts;3;61;right;no;50;rightarrow;339;true;focus;yes;578892;Chrome;113.0;Windows;10;undefined;undefined;1536 x 864;1536 x 864
H025;25;Vrouwelijk;Rechts;3;62;left;yes;50;leftarrow;365;false;focus;yes;580036;Chrome;113.0;Windows;10;undefined;undefined;1536 x 864;1536 x 864
H025;25;Vrouwelijk;Rechts;3;63;left;no;50;leftarrow;364;true;focus;yes;581183;Chrome;113.0;Windows;10;undefined;undefined;1536 x 864;1536 x 864
H025;25;Vrouwelijk;Rechts;3;64;right;no;50;rightarrow;362;true;focus;yes;582318;Chrome;113.0;Windows;10;undefined;undefined;1536 x 864;1536 x 864
H025;25;Vrouwelijk;Rechts;3;65;left;no;50;leftarrow;409;true;focus;yes;583501;Chrome;113.0;Windows;10;undefined;undefined;1536 x 864;1536 x 864
H025;25;Vrouwelijk;Rechts;3;66;right;no;50;rightarrow;343;true;focus;yes;584619;Chrome;113.0;Windows;10;undefined;undefined;1536 x 864;1536 x 864
H025;25;Vrouwelijk;Rechts;3;67;right;no;50;rightarrow;385;true;focus;yes;585778;Chrome;113.0;Windows;10;undefined;undefined;1536 x 864;1536 x 864
H025;25;Vrouwelijk;Rechts;3;68;right;yes;50;leftarrow;312;false;focus;yes;586875;Chrome;113.0;Windows;10;undefined;undefined;1536 x 864;1536 x 864
H025;25;Vrouwelijk;Rechts;3;69;left;no;50;leftarrow;430;true;focus;yes;588082;Chrome;113.0;Windows;10;undefined;undefined;1536 x 864;1536 x 864
H025;25;Vrouwelijk;Rechts;3;70;right;no;50;rightarrow;398;true;focus;yes;589248;Chrome;113.0;Windows;10;undefined;undefined;1536 x 864;1536 x 864
H025;25;Vrouwelijk;Rechts;3;71;left;yes;50;undefined;null;true;focus;yes;591289;Chrome;113.0;Windows;10;undefined;undefined;1536 x 864;1536 x 864
H025;25;Vrouwelijk;Rechts;3;72;left;no;100;leftarrow;474;true;focus;yes;592540;Chrome;113.0;Windows;10;undefined;undefined;1536 x 864;1536 x 864
H025;25;Vrouwelijk;Rechts;3;73;left;no;100;leftarrow;321;true;focus;yes;593632;Chrome;113.0;Windows;10;undefined;undefined;1536 x 864;1536 x 864
H025;25;Vrouwelijk;Rechts;3;74;left;no;100;leftarrow;328;true;focus;yes;594739;Chrome;113.0;Windows;10;undefined;undefined;1536 x 864;1536 x 864
H025;25;Vrouwelijk;Rechts;3;75;left;yes;100;undefined;null;true;focus;yes;596773;Chrome;113.0;Windows;10;undefined;undefined;1536 x 864;1536 x 864
H025;25;Vrouwelijk;Rechts;3;76;right;no;150;rightarrow;378;true;focus;yes;597928;Chrome;113.0;Windows;10;undefined;undefined;1536 x 864;1536 x 864
H025;25;Vrouwelijk;Rechts;3;77;left;no;150;leftarrow;320;true;focus;yes;599021;Chrome;113.0;Windows;10;undefined;undefined;1536 x 864;1536 x 864
H025;25;Vrouwelijk;Rechts;3;78;right;no;150;rightarrow;310;true;focus;yes;600113;Chrome;113.0;Windows;10;undefined;undefined;1536 x 864;1536 x 864
H025;25;Vrouwelijk;Rechts;3;79;right;no;150;rightarrow;390;true;focus;yes;601277;Chrome;113.0;Windows;10;undefined;undefined;1536 x 864;1536 x 864
H025;25;Vrouwelijk;Rechts;3;80;right;yes;150;rightarrow;381;false;focus;yes;602428;Chrome;113.0;Windows;10;undefined;undefined;1536 x 864;1536 x 864
H025;25;Vrouwelijk;Rechts;3;81;right;no;100;leftarrow;307;false;focus;yes;603514;Chrome;113.0;Windows;10;undefined;undefined;1536 x 864;1536 x 864
H025;25;Vrouwelijk;Rechts;3;82;left;no;100;leftarrow;396;true;focus;yes;604690;Chrome;113.0;Windows;10;undefined;undefined;1536 x 864;1536 x 864
H025;25;Vrouwelijk;Rechts;3;83;right;no;100;rightarrow;406;true;focus;yes;605865;Chrome;113.0;Windows;10;undefined;undefined;1536 x 864;1536 x 864
H025;25;Vrouwelijk;Rechts;3;84;left;no;100;leftarrow;369;true;focus;yes;607014;Chrome;113.0;Windows;10;undefined;undefined;1536 x 864;1536 x 864
H025;25;Vrouwelijk;Rechts;3;85;left;yes;100;leftarrow;344;false;focus;yes;608137;Chrome;113.0;Windows;10;undefined;undefined;1536 x 864;1536 x 864
H025;25;Vrouwelijk;Rechts;3;86;right;yes;50;rightarrow;341;false;focus;yes;609255;Chrome;113.0;Windows;10;undefined;undefined;1536 x 864;1536 x 864
H025;25;Vrouwelijk;Rechts;3;87;right;no;50;rightarrow;646;true;focus;yes;610677;Chrome;113.0;Windows;10;undefined;undefined;1536 x 864;1536 x 864
H025;25;Vrouwelijk;Rechts;3;88;left;no;50;leftarrow;341;true;focus;yes;611794;Chrome;113.0;Windows;10;undefined;undefined;1536 x 864;1536 x 864
H025;25;Vrouwelijk;Rechts;3;89;left;no;50;leftarrow;372;true;focus;yes;612944;Chrome;113.0;Windows;10;undefined;undefined;1536 x 864;1536 x 864
H025;25;Vrouwelijk;Rechts;3;90;left;no;50;leftarrow;366;true;focus;yes;614090;Chrome;113.0;Windows;10;undefined;undefined;1536 x 864;1536 x 864
H025;25;Vrouwelijk;Rechts;3;91;left;yes;50;undefined;null;true;focus;yes;616140;Chrome;113.0;Windows;10;undefined;undefined;1536 x 864;1536 x 864
H025;25;Vrouwelijk;Rechts;3;92;right;yes;100;rightarrow;325;false;focus;yes;617243;Chrome;113.0;Windows;10;undefined;undefined;1536 x 864;1536 x 864
H025;25;Vrouwelijk;Rechts;3;93;right;no;50;rightarrow;379;true;focus;yes;618400;Chrome;113.0;Windows;10;undefined;undefined;1536 x 864;1536 x 864
H025;25;Vrouwelijk;Rechts;3;94;left;no;50;leftarrow;386;true;focus;yes;619556;Chrome;113.0;Windows;10;undefined;undefined;1536 x 864;1536 x 864
H025;25;Vrouwelijk;Rechts;3;95;right;no;50;rightarrow;374;true;focus;yes;620708;Chrome;113.0;Windows;10;undefined;undefined;1536 x 864;1536 x 864
H025;25;Vrouwelijk;Rechts;3;96;right;no;50;rightarrow;319;true;focus;yes;621801;Chrome;113.0;Windows;10;undefined;undefined;1536 x 864;1536 x 864
H025;25;Vrouwelijk;Rechts;3;97;left;yes;50;undefined;null;true;focus;yes;623821;Chrome;113.0;Windows;10;undefined;undefined;1536 x 864;1536 x 864
H025;25;Vrouwelijk;Rechts;3;98;left;no;100;leftarrow;314;true;focus;yes;624915;Chrome;113.0;Windows;10;undefined;undefined;1536 x 864;1536 x 864
H025;25;Vrouwelijk;Rechts;3;99;right;no;100;rightarrow;380;true;focus;yes;626068;Chrome;113.0;Windows;10;undefined;undefined;1536 x 864;1536 x 864
H025;25;Vrouwelijk;Rechts;3;100;left;no;100;leftarrow;329;true;focus;yes;627170;Chrome;113.0;Windows;10;undefined;undefined;1536 x 864;1536 x 864
H025;25;Vrouwelijk;Rechts;3;101;left;no;100;leftarrow;350;true;focus;yes;628296;Chrome;113.0;Windows;10;undefined;undefined;1536 x 864;1536 x 864
H025;25;Vrouwelijk;Rechts;3;102;right;no;100;rightarrow;341;true;focus;yes;629402;Chrome;113.0;Windows;10;undefined;undefined;1536 x 864;1536 x 864
H025;25;Vrouwelijk;Rechts;3;103;right;yes;100;rightarrow;404;false;focus;yes;630582;Chrome;113.0;Windows;10;undefined;undefined;1536 x 864;1536 x 864
H025;25;Vrouwelijk;Rechts;3;104;right;no;50;rightarrow;404;true;focus;yes;631763;Chrome;113.0;Windows;10;undefined;undefined;1536 x 864;1536 x 864
H025;25;Vrouwelijk;Rechts;3;105;right;no;50;rightarrow;351;true;focus;yes;632886;Chrome;113.0;Windows;10;undefined;undefined;1536 x 864;1536 x 864
H025;25;Vrouwelijk;Rechts;3;106;right;yes;50;rightarrow;285;false;focus;yes;633949;Chrome;113.0;Windows;10;undefined;undefined;1536 x 864;1536 x 864
H025;25;Vrouwelijk;Rechts;3;107;left;no;50;leftarrow;328;true;focus;yes;635052;Chrome;113.0;Windows;10;undefined;undefined;1536 x 864;1536 x 864
H025;25;Vrouwelijk;Rechts;3;108;left;no;50;leftarrow;345;true;focus;yes;636171;Chrome;113.0;Windows;10;undefined;undefined;1536 x 864;1536 x 864
H025;25;Vrouwelijk;Rechts;3;109;right;no;50;rightarrow;342;true;focus;yes;637282;Chrome;113.0;Windows;10;undefined;undefined;1536 x 864;1536 x 864
H025;25;Vrouwelijk;Rechts;3;110;left;yes;50;undefined;null;true;focus;yes;639325;Chrome;113.0;Windows;10;undefined;undefined;1536 x 864;1536 x 864
H025;25;Vrouwelijk;Rechts;3;111;right;no;100;rightarrow;356;true;focus;yes;640461;Chrome;113.0;Windows;10;undefined;undefined;1536 x 864;1536 x 864
H025;25;Vrouwelijk;Rechts;3;112;left;no;100;leftarrow;365;true;focus;yes;641599;Chrome;113.0;Windows;10;undefined;undefined;1536 x 864;1536 x 864
H025;25;Vrouwelijk;Rechts;3;113;right;no;100;rightarrow;909;true;focus;yes;643289;Chrome;113.0;Windows;10;undefined;undefined;1536 x 864;1536 x 864
H025;25;Vrouwelijk;Rechts;3;114;right;no;100;rightarrow;354;true;focus;yes;644412;Chrome;113.0;Windows;10;undefined;undefined;1536 x 864;1536 x 864
H025;25;Vrouwelijk;Rechts;3;115;left;no;100;leftarrow;383;true;focus;yes;645564;Chrome;113.0;Windows;10;undefined;undefined;1536 x 864;1536 x 864
H025;25;Vrouwelijk;Rechts;3;116;left;yes;100;leftarrow;335;false;focus;yes;646683;Chrome;113.0;Windows;10;undefined;undefined;1536 x 864;1536 x 864
H025;25;Vrouwelijk;Rechts;3;117;right;no;50;rightarrow;355;true;focus;yes;647805;Chrome;113.0;Windows;10;undefined;undefined;1536 x 864;1536 x 864
H025;25;Vrouwelijk;Rechts;3;118;right;yes;50;undefined;null;true;focus;yes;649840;Chrome;113.0;Windows;10;undefined;undefined;1536 x 864;1536 x 864
H025;25;Vrouwelijk;Rechts;3;119;left;no;100;leftarrow;362;true;focus;yes;650983;Chrome;113.0;Windows;10;undefined;undefined;1536 x 864;1536 x 864
H025;25;Vrouwelijk;Rechts;3;120;left;no;100;leftarrow;328;true;focus;yes;652085;Chrome;113.0;Windows;10;undefined;undefined;1536 x 864;1536 x 864
H025;25;Vrouwelijk;Rechts;3;121;left;no;100;leftarrow;378;true;focus;yes;653234;Chrome;113.0;Windows;10;undefined;undefined;1536 x 864;1536 x 864
H025;25;Vrouwelijk;Rechts;3;122;right;no;100;rightarrow;371;true;focus;yes;654391;Chrome;113.0;Windows;10;undefined;undefined;1536 x 864;1536 x 864
H025;25;Vrouwelijk;Rechts;3;123;left;no;100;leftarrow;387;true;focus;yes;655556;Chrome;113.0;Windows;10;undefined;undefined;1536 x 864;1536 x 864
H025;25;Vrouwelijk;Rechts;3;124;left;yes;100;leftarrow;407;false;focus;yes;656742;Chrome;113.0;Windows;10;undefined;undefined;1536 x 864;1536 x 864
H025;25;Vrouwelijk;Rechts;3;125;left;no;50;leftarrow;385;true;focus;yes;657900;Chrome;113.0;Windows;10;undefined;undefined;1536 x 864;1536 x 864
H025;25;Vrouwelijk;Rechts;3;126;right;yes;50;undefined;null;true;focus;yes;659938;Chrome;113.0;Windows;10;undefined;undefined;1536 x 864;1536 x 864
H025;25;Vrouwelijk;Rechts;3;127;right;no;100;rightarrow;304;true;focus;yes;661022;Chrome;113.0;Windows;10;undefined;undefined;1536 x 864;1536 x 864
H025;25;Vrouwelijk;Rechts;3;128;right;no;100;rightarrow;418;true;focus;yes;662221;Chrome;113.0;Windows;10;undefined;undefined;1536 x 864;1536 x 864
H025;25;Vrouwelijk;Rechts;4;1;left;no;100;leftarrow;356;true;focus;yes;687914;Chrome;113.0;Windows;10;undefined;undefined;1536 x 864;1536 x 864
H025;25;Vrouwelijk;Rechts;4;2;right;yes;100;rightarrow;300;false;focus;yes;688995;Chrome;113.0;Windows;10;undefined;undefined;1536 x 864;1536 x 864
H025;25;Vrouwelijk;Rechts;4;3;right;no;50;rightarrow;379;true;focus;yes;690153;Chrome;113.0;Windows;10;undefined;undefined;1536 x 864;1536 x 864
H025;25;Vrouwelijk;Rechts;4;4;left;no;50;leftarrow;341;true;focus;yes;691268;Chrome;113.0;Windows;10;undefined;undefined;1536 x 864;1536 x 864
H025;25;Vrouwelijk;Rechts;4;5;left;no;50;leftarrow;330;true;focus;yes;692368;Chrome;113.0;Windows;10;undefined;undefined;1536 x 864;1536 x 864
H025;25;Vrouwelijk;Rechts;4;6;left;yes;50;undefined;null;true;focus;yes;694392;Chrome;113.0;Windows;10;undefined;undefined;1536 x 864;1536 x 864
H025;25;Vrouwelijk;Rechts;4;7;right;no;100;rightarrow;318;true;focus;yes;695490;Chrome;113.0;Windows;10;undefined;undefined;1536 x 864;1536 x 864
H025;25;Vrouwelijk;Rechts;4;8;right;no;100;rightarrow;315;true;focus;yes;696577;Chrome;113.0;Windows;10;undefined;undefined;1536 x 864;1536 x 864
H025;25;Vrouwelijk;Rechts;4;9;right;no;100;rightarrow;347;true;focus;yes;697707;Chrome;113.0;Windows;10;undefined;undefined;1536 x 864;1536 x 864
H025;25;Vrouwelijk;Rechts;4;10;right;yes;100;undefined;null;true;focus;yes;699735;Chrome;113.0;Windows;10;undefined;undefined;1536 x 864;1536 x 864
H025;25;Vrouwelijk;Rechts;4;11;right;no;150;rightarrow;363;true;focus;yes;700877;Chrome;113.0;Windows;10;undefined;undefined;1536 x 864;1536 x 864
H025;25;Vrouwelijk;Rechts;4;12;right;no;150;rightarrow;326;true;focus;yes;701979;Chrome;113.0;Windows;10;undefined;undefined;1536 x 864;1536 x 864
H025;25;Vrouwelijk;Rechts;4;13;left;yes;150;leftarrow;409;false;focus;yes;703163;Chrome;113.0;Windows;10;undefined;undefined;1536 x 864;1536 x 864
H025;25;Vrouwelijk;Rechts;4;14;left;no;100;leftarrow;345;true;focus;yes;704281;Chrome;113.0;Windows;10;undefined;undefined;1536 x 864;1536 x 864
H025;25;Vrouwelijk;Rechts;4;15;left;no;100;leftarrow;413;true;focus;yes;705471;Chrome;113.0;Windows;10;undefined;undefined;1536 x 864;1536 x 864
H025;25;Vrouwelijk;Rechts;4;16;left;no;100;leftarrow;397;true;focus;yes;706651;Chrome;113.0;Windows;10;undefined;undefined;1536 x 864;1536 x 864
H025;25;Vrouwelijk;Rechts;4;17;right;no;100;rightarrow;377;true;focus;yes;707811;Chrome;113.0;Windows;10;undefined;undefined;1536 x 864;1536 x 864
H025;25;Vrouwelijk;Rechts;4;18;right;no;100;rightarrow;342;true;focus;yes;708927;Chrome;113.0;Windows;10;undefined;undefined;1536 x 864;1536 x 864
H025;25;Vrouwelijk;Rechts;4;19;left;no;100;leftarrow;350;true;focus;yes;710055;Chrome;113.0;Windows;10;undefined;undefined;1536 x 864;1536 x 864
H025;25;Vrouwelijk;Rechts;4;20;right;yes;100;rightarrow;313;false;focus;yes;711142;Chrome;113.0;Windows;10;undefined;undefined;1536 x 864;1536 x 864
H025;25;Vrouwelijk;Rechts;4;21;right;no;50;rightarrow;421;true;focus;yes;712321;Chrome;113.0;Windows;10;undefined;undefined;1536 x 864;1536 x 864
H025;25;Vrouwelijk;Rechts;4;22;left;yes;50;undefined;null;true;focus;yes;714355;Chrome;113.0;Windows;10;undefined;undefined;1536 x 864;1536 x 864
H025;25;Vrouwelijk;Rechts;4;23;left;no;100;leftarrow;408;true;focus;yes;715540;Chrome;113.0;Windows;10;undefined;undefined;1536 x 864;1536 x 864
H025;25;Vrouwelijk;Rechts;4;24;left;no;100;leftarrow;320;true;focus;yes;716633;Chrome;113.0;Windows;10;undefined;undefined;1536 x 864;1536 x 864
H025;25;Vrouwelijk;Rechts;4;25;right;no;100;rightarrow;442;true;focus;yes;717842;Chrome;113.0;Windows;10;undefined;undefined;1536 x 864;1536 x 864
H025;25;Vrouwelijk;Rechts;4;26;right;no;100;rightarrow;287;true;focus;yes;718910;Chrome;113.0;Windows;10;undefined;undefined;1536 x 864;1536 x 864
H025;25;Vrouwelijk;Rechts;4;27;right;no;100;rightarrow;327;true;focus;yes;720009;Chrome;113.0;Windows;10;undefined;undefined;1536 x 864;1536 x 864
H025;25;Vrouwelijk;Rechts;4;28;left;no;100;leftarrow;277;true;focus;yes;721062;Chrome;113.0;Windows;10;undefined;undefined;1536 x 864;1536 x 864
H025;25;Vrouwelijk;Rechts;4;29;left;yes;100;leftarrow;354;false;focus;yes;722197;Chrome;113.0;Windows;10;undefined;undefined;1536 x 864;1536 x 864
H025;25;Vrouwelijk;Rechts;4;30;left;no;50;leftarrow;344;true;focus;yes;723320;Chrome;113.0;Windows;10;undefined;undefined;1536 x 864;1536 x 864
H025;25;Vrouwelijk;Rechts;4;31;right;yes;50;undefined;null;true;focus;yes;725346;Chrome;113.0;Windows;10;undefined;undefined;1536 x 864;1536 x 864
H025;25;Vrouwelijk;Rechts;4;32;left;no;100;leftarrow;371;true;focus;yes;726500;Chrome;113.0;Windows;10;undefined;undefined;1536 x 864;1536 x 864
H025;25;Vrouwelijk;Rechts;4;33;right;yes;100;rightarrow;399;false;focus;yes;727680;Chrome;113.0;Windows;10;undefined;undefined;1536 x 864;1536 x 864
H025;25;Vrouwelijk;Rechts;4;34;right;no;50;rightarrow;341;true;focus;yes;728802;Chrome;113.0;Windows;10;undefined;undefined;1536 x 864;1536 x 864
H025;25;Vrouwelijk;Rechts;4;35;right;no;50;rightarrow;367;true;focus;yes;729947;Chrome;113.0;Windows;10;undefined;undefined;1536 x 864;1536 x 864
H025;25;Vrouwelijk;Rechts;4;36;left;yes;50;undefined;null;true;focus;yes;731995;Chrome;113.0;Windows;10;undefined;undefined;1536 x 864;1536 x 864
H025;25;Vrouwelijk;Rechts;4;37;left;no;100;leftarrow;453;true;focus;yes;733228;Chrome;113.0;Windows;10;undefined;undefined;1536 x 864;1536 x 864
H025;25;Vrouwelijk;Rechts;4;38;left;no;100;leftarrow;316;true;focus;yes;734314;Chrome;113.0;Windows;10;undefined;undefined;1536 x 864;1536 x 864
H025;25;Vrouwelijk;Rechts;4;39;right;no;100;rightarrow;391;true;focus;yes;735479;Chrome;113.0;Windows;10;undefined;undefined;1536 x 864;1536 x 864
H025;25;Vrouwelijk;Rechts;4;40;left;no;100;leftarrow;379;true;focus;yes;736639;Chrome;113.0;Windows;10;undefined;undefined;1536 x 864;1536 x 864
H025;25;Vrouwelijk;Rechts;4;41;right;no;100;rightarrow;379;true;focus;yes;737804;Chrome;113.0;Windows;10;undefined;undefined;1536 x 864;1536 x 864
H025;25;Vrouwelijk;Rechts;4;42;left;no;100;leftarrow;296;true;focus;yes;738883;Chrome;113.0;Windows;10;undefined;undefined;1536 x 864;1536 x 864
H025;25;Vrouwelijk;Rechts;4;43;left;no;100;leftarrow;295;true;focus;yes;739939;Chrome;113.0;Windows;10;undefined;undefined;1536 x 864;1536 x 864
H025;25;Vrouwelijk;Rechts;4;44;right;no;100;rightarrow;393;true;focus;yes;741109;Chrome;113.0;Windows;10;undefined;undefined;1536 x 864;1536 x 864
H025;25;Vrouwelijk;Rechts;4;45;right;no;100;rightarrow;352;true;focus;yes;742233;Chrome;113.0;Windows;10;undefined;undefined;1536 x 864;1536 x 864
H025;25;Vrouwelijk;Rechts;4;46;left;yes;100;leftarrow;299;false;focus;yes;743315;Chrome;113.0;Windows;10;undefined;undefined;1536 x 864;1536 x 864
H025;25;Vrouwelijk;Rechts;4;47;right;yes;50;rightarrow;324;false;focus;yes;744409;Chrome;113.0;Windows;10;undefined;undefined;1536 x 864;1536 x 864
H025;25;Vrouwelijk;Rechts;4;48;left;no;50;leftarrow;298;true;focus;yes;745488;Chrome;113.0;Windows;10;undefined;undefined;1536 x 864;1536 x 864
H025;25;Vrouwelijk;Rechts;4;49;left;no;50;leftarrow;341;true;focus;yes;746602;Chrome;113.0;Windows;10;undefined;undefined;1536 x 864;1536 x 864
H025;25;Vrouwelijk;Rechts;4;50;right;no;50;rightarrow;378;true;focus;yes;747760;Chrome;113.0;Windows;10;undefined;undefined;1536 x 864;1536 x 864
H025;25;Vrouwelijk;Rechts;4;51;left;yes;50;leftarrow;312;false;focus;yes;748844;Chrome;113.0;Windows;10;undefined;undefined;1536 x 864;1536 x 864
H025;25;Vrouwelijk;Rechts;4;52;right;no;50;rightarrow;238;true;focus;yes;749862;Chrome;113.0;Windows;10;undefined;undefined;1536 x 864;1536 x 864
H025;25;Vrouwelijk;Rechts;4;53;right;yes;50;leftarrow;230;false;focus;yes;750867;Chrome;113.0;Windows;10;undefined;undefined;1536 x 864;1536 x 864
H025;25;Vrouwelijk;Rechts;4;54;left;no;50;leftarrow;348;true;focus;yes;751989;Chrome;113.0;Windows;10;undefined;undefined;1536 x 864;1536 x 864
H025;25;Vrouwelijk;Rechts;4;55;right;no;50;rightarrow;304;true;focus;yes;753059;Chrome;113.0;Windows;10;undefined;undefined;1536 x 864;1536 x 864
H025;25;Vrouwelijk;Rechts;4;56;left;no;50;leftarrow;270;true;focus;yes;754115;Chrome;113.0;Windows;10;undefined;undefined;1536 x 864;1536 x 864
H025;25;Vrouwelijk;Rechts;4;57;right;no;50;rightarrow;335;true;focus;yes;755230;Chrome;113.0;Windows;10;undefined;undefined;1536 x 864;1536 x 864
H025;25;Vrouwelijk;Rechts;4;58;left;no;50;leftarrow;312;true;focus;yes;756315;Chrome;113.0;Windows;10;undefined;undefined;1536 x 864;1536 x 864
H025;25;Vrouwelijk;Rechts;4;59;right;no;50;rightarrow;352;true;focus;yes;757440;Chrome;113.0;Windows;10;undefined;undefined;1536 x 864;1536 x 864
H025;25;Vrouwelijk;Rechts;4;60;left;no;50;leftarrow;293;true;focus;yes;758516;Chrome;113.0;Windows;10;undefined;undefined;1536 x 864;1536 x 864
H025;25;Vrouwelijk;Rechts;4;61;right;yes;50;rightarrow;275;false;focus;yes;759566;Chrome;113.0;Windows;10;undefined;undefined;1536 x 864;1536 x 864
H025;25;Vrouwelijk;Rechts;4;62;left;yes;50;leftarrow;262;false;focus;yes;760608;Chrome;113.0;Windows;10;undefined;undefined;1536 x 864;1536 x 864
H025;25;Vrouwelijk;Rechts;4;63;right;no;50;rightarrow;318;true;focus;yes;761704;Chrome;113.0;Windows;10;undefined;undefined;1536 x 864;1536 x 864
H025;25;Vrouwelijk;Rechts;4;64;left;no;50;leftarrow;248;true;focus;yes;762719;Chrome;113.0;Windows;10;undefined;undefined;1536 x 864;1536 x 864
H025;25;Vrouwelijk;Rechts;4;65;left;no;50;leftarrow;385;true;focus;yes;763888;Chrome;113.0;Windows;10;undefined;undefined;1536 x 864;1536 x 864
H025;25;Vrouwelijk;Rechts;4;66;right;yes;50;undefined;null;true;focus;yes;765934;Chrome;113.0;Windows;10;undefined;undefined;1536 x 864;1536 x 864
H025;25;Vrouwelijk;Rechts;4;67;left;no;100;leftarrow;306;true;focus;yes;767021;Chrome;113.0;Windows;10;undefined;undefined;1536 x 864;1536 x 864
H025;25;Vrouwelijk;Rechts;4;68;right;no;100;rightarrow;302;true;focus;yes;768104;Chrome;113.0;Windows;10;undefined;undefined;1536 x 864;1536 x 864
H025;25;Vrouwelijk;Rechts;4;69;left;no;100;leftarrow;253;true;focus;yes;769117;Chrome;113.0;Windows;10;undefined;undefined;1536 x 864;1536 x 864
H025;25;Vrouwelijk;Rechts;4;70;right;no;100;rightarrow;270;true;focus;yes;770162;Chrome;113.0;Windows;10;undefined;undefined;1536 x 864;1536 x 864
H025;25;Vrouwelijk;Rechts;4;71;right;no;100;leftarrow;287;false;focus;yes;771242;Chrome;113.0;Windows;10;undefined;undefined;1536 x 864;1536 x 864
H025;25;Vrouwelijk;Rechts;4;72;left;yes;100;leftarrow;314;false;focus;yes;772337;Chrome;113.0;Windows;10;undefined;undefined;1536 x 864;1536 x 864
H025;25;Vrouwelijk;Rechts;4;73;right;no;50;rightarrow;292;true;focus;yes;773397;Chrome;113.0;Windows;10;undefined;undefined;1536 x 864;1536 x 864
H025;25;Vrouwelijk;Rechts;4;74;right;yes;50;undefined;null;true;focus;yes;775431;Chrome;113.0;Windows;10;undefined;undefined;1536 x 864;1536 x 864
H025;25;Vrouwelijk;Rechts;4;75;left;no;100;leftarrow;319;true;focus;yes;776533;Chrome;113.0;Windows;10;undefined;undefined;1536 x 864;1536 x 864
H025;25;Vrouwelijk;Rechts;4;76;left;yes;100;leftarrow;335;false;focus;yes;777648;Chrome;113.0;Windows;10;undefined;undefined;1536 x 864;1536 x 864
H025;25;Vrouwelijk;Rechts;4;77;right;no;50;rightarrow;335;true;focus;yes;778747;Chrome;113.0;Windows;10;undefined;undefined;1536 x 864;1536 x 864
H025;25;Vrouwelijk;Rechts;4;78;left;no;50;leftarrow;394;true;focus;yes;779922;Chrome;113.0;Windows;10;undefined;undefined;1536 x 864;1536 x 864
H025;25;Vrouwelijk;Rechts;4;79;left;no;50;rightarrow;273;false;focus;yes;780968;Chrome;113.0;Windows;10;undefined;undefined;1536 x 864;1536 x 864
H025;25;Vrouwelijk;Rechts;4;80;right;no;50;rightarrow;315;true;focus;yes;782064;Chrome;113.0;Windows;10;undefined;undefined;1536 x 864;1536 x 864
H025;25;Vrouwelijk;Rechts;4;81;left;no;50;leftarrow;330;true;focus;yes;783165;Chrome;113.0;Windows;10;undefined;undefined;1536 x 864;1536 x 864
H025;25;Vrouwelijk;Rechts;4;82;left;yes;50;undefined;null;true;focus;yes;785191;Chrome;113.0;Windows;10;undefined;undefined;1536 x 864;1536 x 864
H025;25;Vrouwelijk;Rechts;4;83;right;no;100;rightarrow;381;true;focus;yes;786350;Chrome;113.0;Windows;10;undefined;undefined;1536 x 864;1536 x 864
H025;25;Vrouwelijk;Rechts;4;84;right;no;100;rightarrow;315;true;focus;yes;787437;Chrome;113.0;Windows;10;undefined;undefined;1536 x 864;1536 x 864
H025;25;Vrouwelijk;Rechts;4;85;left;no;100;leftarrow;394;true;focus;yes;788599;Chrome;113.0;Windows;10;undefined;undefined;1536 x 864;1536 x 864
H025;25;Vrouwelijk;Rechts;4;86;right;yes;100;rightarrow;366;false;focus;yes;789734;Chrome;113.0;Windows;10;undefined;undefined;1536 x 864;1536 x 864
H025;25;Vrouwelijk;Rechts;4;87;right;no;50;rightarrow;380;true;focus;yes;790893;Chrome;113.0;Windows;10;undefined;undefined;1536 x 864;1536 x 864
H025;25;Vrouwelijk;Rechts;4;88;left;no;50;leftarrow;285;true;focus;yes;791963;Chrome;113.0;Windows;10;undefined;undefined;1536 x 864;1536 x 864
H025;25;Vrouwelijk;Rechts;4;89;left;no;50;leftarrow;490;true;focus;yes;793224;Chrome;113.0;Windows;10;undefined;undefined;1536 x 864;1536 x 864
H025;25;Vrouwelijk;Rechts;4;90;right;yes;50;undefined;null;true;focus;yes;795274;Chrome;113.0;Windows;10;undefined;undefined;1536 x 864;1536 x 864
H025;25;Vrouwelijk;Rechts;4;91;left;yes;100;leftarrow;355;false;focus;yes;796410;Chrome;113.0;Windows;10;undefined;undefined;1536 x 864;1536 x 864
H025;25;Vrouwelijk;Rechts;4;92;right;no;50;rightarrow;269;true;focus;yes;797458;Chrome;113.0;Windows;10;undefined;undefined;1536 x 864;1536 x 864
H025;25;Vrouwelijk;Rechts;4;93;right;no;50;rightarrow;316;true;focus;yes;798546;Chrome;113.0;Windows;10;undefined;undefined;1536 x 864;1536 x 864
H025;25;Vrouwelijk;Rechts;4;94;left;no;50;leftarrow;319;true;focus;yes;799639;Chrome;113.0;Windows;10;undefined;undefined;1536 x 864;1536 x 864
H025;25;Vrouwelijk;Rechts;4;95;right;no;50;rightarrow;367;true;focus;yes;800792;Chrome;113.0;Windows;10;undefined;undefined;1536 x 864;1536 x 864
H025;25;Vrouwelijk;Rechts;4;96;left;no;50;leftarrow;339;true;focus;yes;801899;Chrome;113.0;Windows;10;undefined;undefined;1536 x 864;1536 x 864
H025;25;Vrouwelijk;Rechts;4;97;left;no;50;leftarrow;375;true;focus;yes;803057;Chrome;113.0;Windows;10;undefined;undefined;1536 x 864;1536 x 864
H025;25;Vrouwelijk;Rechts;4;98;right;no;50;rightarrow;390;true;focus;yes;804217;Chrome;113.0;Windows;10;undefined;undefined;1536 x 864;1536 x 864
H025;25;Vrouwelijk;Rechts;4;99;left;yes;50;leftarrow;303;false;focus;yes;805298;Chrome;113.0;Windows;10;undefined;undefined;1536 x 864;1536 x 864
H025;25;Vrouwelijk;Rechts;4;100;right;yes;50;undefined;null;true;focus;yes;807342;Chrome;113.0;Windows;10;undefined;undefined;1536 x 864;1536 x 864
H025;25;Vrouwelijk;Rechts;4;101;left;no;100;leftarrow;301;true;focus;yes;808425;Chrome;113.0;Windows;10;undefined;undefined;1536 x 864;1536 x 864
H025;25;Vrouwelijk;Rechts;4;102;right;no;100;rightarrow;286;true;focus;yes;809483;Chrome;113.0;Windows;10;undefined;undefined;1536 x 864;1536 x 864
H025;25;Vrouwelijk;Rechts;4;103;left;no;100;leftarrow;259;true;focus;yes;810526;Chrome;113.0;Windows;10;undefined;undefined;1536 x 864;1536 x 864
H025;25;Vrouwelijk;Rechts;4;104;right;no;100;rightarrow;333;true;focus;yes;811641;Chrome;113.0;Windows;10;undefined;undefined;1536 x 864;1536 x 864
H025;25;Vrouwelijk;Rechts;4;105;left;yes;100;leftarrow;327;false;focus;yes;812737;Chrome;113.0;Windows;10;undefined;undefined;1536 x 864;1536 x 864
H025;25;Vrouwelijk;Rechts;4;106;right;no;50;rightarrow;376;true;focus;yes;813890;Chrome;113.0;Windows;10;undefined;undefined;1536 x 864;1536 x 864
H025;25;Vrouwelijk;Rechts;4;107;right;no;50;rightarrow;293;true;focus;yes;814960;Chrome;113.0;Windows;10;undefined;undefined;1536 x 864;1536 x 864
H025;25;Vrouwelijk;Rechts;4;108;right;yes;50;undefined;null;true;focus;yes;816992;Chrome;113.0;Windows;10;undefined;undefined;1536 x 864;1536 x 864
H025;25;Vrouwelijk;Rechts;4;109;left;no;100;leftarrow;350;true;focus;yes;818124;Chrome;113.0;Windows;10;undefined;undefined;1536 x 864;1536 x 864
H025;25;Vrouwelijk;Rechts;4;110;right;no;100;rightarrow;318;true;focus;yes;819230;Chrome;113.0;Windows;10;undefined;undefined;1536 x 864;1536 x 864
H025;25;Vrouwelijk;Rechts;4;111;left;no;100;leftarrow;294;true;focus;yes;820310;Chrome;113.0;Windows;10;undefined;undefined;1536 x 864;1536 x 864
H025;25;Vrouwelijk;Rechts;4;112;left;no;100;rightarrow;288;false;focus;yes;821373;Chrome;113.0;Windows;10;undefined;undefined;1536 x 864;1536 x 864
H025;25;Vrouwelijk;Rechts;4;113;left;no;100;leftarrow;551;true;focus;yes;822705;Chrome;113.0;Windows;10;undefined;undefined;1536 x 864;1536 x 864
H025;25;Vrouwelijk;Rechts;4;114;right;no;100;rightarrow;467;true;focus;yes;823942;Chrome;113.0;Windows;10;undefined;undefined;1536 x 864;1536 x 864
H025;25;Vrouwelijk;Rechts;4;115;right;no;100;rightarrow;423;true;focus;yes;825140;Chrome;113.0;Windows;10;undefined;undefined;1536 x 864;1536 x 864
H025;25;Vrouwelijk;Rechts;4;116;right;no;100;rightarrow;359;true;focus;yes;826273;Chrome;113.0;Windows;10;undefined;undefined;1536 x 864;1536 x 864
H025;25;Vrouwelijk;Rechts;4;117;left;yes;100;leftarrow;313;false;focus;yes;827369;Chrome;113.0;Windows;10;undefined;undefined;1536 x 864;1536 x 864
H025;25;Vrouwelijk;Rechts;4;118;left;no;50;leftarrow;305;true;focus;yes;828447;Chrome;113.0;Windows;10;undefined;undefined;1536 x 864;1536 x 864
H025;25;Vrouwelijk;Rechts;4;119;left;no;50;leftarrow;318;true;focus;yes;829548;Chrome;113.0;Windows;10;undefined;undefined;1536 x 864;1536 x 864
H025;25;Vrouwelijk;Rechts;4;120;right;yes;50;rightarrow;336;false;focus;yes;830666;Chrome;113.0;Windows;10;undefined;undefined;1536 x 864;1536 x 864
H025;25;Vrouwelijk;Rechts;4;121;right;no;50;rightarrow;359;true;focus;yes;831809;Chrome;113.0;Windows;10;undefined;undefined;1536 x 864;1536 x 864
H025;25;Vrouwelijk;Rechts;4;122;left;no;50;leftarrow;411;true;focus;yes;832990;Chrome;113.0;Windows;10;undefined;undefined;1536 x 864;1536 x 864
H025;25;Vrouwelijk;Rechts;4;123;right;no;50;rightarrow;385;true;focus;yes;834149;Chrome;113.0;Windows;10;undefined;undefined;1536 x 864;1536 x 864
H025;25;Vrouwelijk;Rechts;4;124;right;no;50;rightarrow;393;true;focus;yes;835312;Chrome;113.0;Windows;10;undefined;undefined;1536 x 864;1536 x 864
H025;25;Vrouwelijk;Rechts;4;125;left;no;50;leftarrow;293;true;focus;yes;836378;Chrome;113.0;Windows;10;undefined;undefined;1536 x 864;1536 x 864
H025;25;Vrouwelijk;Rechts;4;126;right;yes;50;rightarrow;370;false;focus;yes;837528;Chrome;113.0;Windows;10;undefined;undefined;1536 x 864;1536 x 864
H025;25;Vrouwelijk;Rechts;4;127;left;no;50;leftarrow;329;true;focus;yes;838639;Chrome;113.0;Windows;10;undefined;undefined;1536 x 864;1536 x 864
H025;25;Vrouwelijk;Rechts;4;128;left;yes;50;undefined;null;true;focus;yes;840668;Chrome;113.0;Windows;10;undefined;undefined;1536 x 864;1536 x 864
H025;25;Vrouwelijk;Rechts;5;1;right;no;100;rightarrow;484;true;focus;yes;859389;Chrome;113.0;Windows;10;undefined;undefined;1536 x 864;1536 x 864
H025;25;Vrouwelijk;Rechts;5;2;right;no;100;rightarrow;420;true;focus;yes;860582;Chrome;113.0;Windows;10;undefined;undefined;1536 x 864;1536 x 864
H025;25;Vrouwelijk;Rechts;5;3;left;no;100;leftarrow;428;true;focus;yes;861786;Chrome;113.0;Windows;10;undefined;undefined;1536 x 864;1536 x 864
H025;25;Vrouwelijk;Rechts;5;4;left;no;100;leftarrow;475;true;focus;yes;863044;Chrome;113.0;Windows;10;undefined;undefined;1536 x 864;1536 x 864
H025;25;Vrouwelijk;Rechts;5;5;right;yes;100;rightarrow;410;false;focus;yes;864238;Chrome;113.0;Windows;10;undefined;undefined;1536 x 864;1536 x 864
H025;25;Vrouwelijk;Rechts;5;6;left;no;50;leftarrow;347;true;focus;yes;865369;Chrome;113.0;Windows;10;undefined;undefined;1536 x 864;1536 x 864
H025;25;Vrouwelijk;Rechts;5;7;right;no;50;rightarrow;380;true;focus;yes;866530;Chrome;113.0;Windows;10;undefined;undefined;1536 x 864;1536 x 864
H025;25;Vrouwelijk;Rechts;5;8;left;yes;50;leftarrow;389;false;focus;yes;867696;Chrome;113.0;Windows;10;undefined;undefined;1536 x 864;1536 x 864
H025;25;Vrouwelijk;Rechts;5;9;left;no;50;leftarrow;314;true;focus;yes;868786;Chrome;113.0;Windows;10;undefined;undefined;1536 x 864;1536 x 864
H025;25;Vrouwelijk;Rechts;5;10;left;yes;50;leftarrow;283;false;focus;yes;869842;Chrome;113.0;Windows;10;undefined;undefined;1536 x 864;1536 x 864
H025;25;Vrouwelijk;Rechts;5;11;left;no;50;leftarrow;387;true;focus;yes;871003;Chrome;113.0;Windows;10;undefined;undefined;1536 x 864;1536 x 864
H025;25;Vrouwelijk;Rechts;5;12;right;no;50;rightarrow;323;true;focus;yes;872107;Chrome;113.0;Windows;10;undefined;undefined;1536 x 864;1536 x 864
H025;25;Vrouwelijk;Rechts;5;13;right;no;50;rightarrow;390;true;focus;yes;873280;Chrome;113.0;Windows;10;undefined;undefined;1536 x 864;1536 x 864
H025;25;Vrouwelijk;Rechts;5;14;right;no;50;rightarrow;344;true;focus;yes;874402;Chrome;113.0;Windows;10;undefined;undefined;1536 x 864;1536 x 864
H025;25;Vrouwelijk;Rechts;5;15;left;no;50;leftarrow;411;true;focus;yes;875587;Chrome;113.0;Windows;10;undefined;undefined;1536 x 864;1536 x 864
H025;25;Vrouwelijk;Rechts;5;16;right;yes;50;undefined;null;true;focus;yes;877621;Chrome;113.0;Windows;10;undefined;undefined;1536 x 864;1536 x 864
H025;25;Vrouwelijk;Rechts;5;17;right;no;100;rightarrow;408;true;focus;yes;878809;Chrome;113.0;Windows;10;undefined;undefined;1536 x 864;1536 x 864
H025;25;Vrouwelijk;Rechts;5;18;left;yes;100;leftarrow;333;false;focus;yes;879905;Chrome;113.0;Windows;10;undefined;undefined;1536 x 864;1536 x 864
H025;25;Vrouwelijk;Rechts;5;19;left;no;50;leftarrow;414;true;focus;yes;881091;Chrome;113.0;Windows;10;undefined;undefined;1536 x 864;1536 x 864
H025;25;Vrouwelijk;Rechts;5;20;right;no;50;rightarrow;310;true;focus;yes;882167;Chrome;113.0;Windows;10;undefined;undefined;1536 x 864;1536 x 864
H025;25;Vrouwelijk;Rechts;5;21;left;no;50;leftarrow;323;true;focus;yes;883269;Chrome;113.0;Windows;10;undefined;undefined;1536 x 864;1536 x 864
H025;25;Vrouwelijk;Rechts;5;22;left;no;50;leftarrow;310;true;focus;yes;884354;Chrome;113.0;Windows;10;undefined;undefined;1536 x 864;1536 x 864
H025;25;Vrouwelijk;Rechts;5;23;right;no;50;rightarrow;350;true;focus;yes;885479;Chrome;113.0;Windows;10;undefined;undefined;1536 x 864;1536 x 864
H025;25;Vrouwelijk;Rechts;5;24;right;yes;50;leftarrow;270;false;focus;yes;886530;Chrome;113.0;Windows;10;undefined;undefined;1536 x 864;1536 x 864
H025;25;Vrouwelijk;Rechts;5;25;right;no;50;rightarrow;508;true;focus;yes;887820;Chrome;113.0;Windows;10;undefined;undefined;1536 x 864;1536 x 864
H025;25;Vrouwelijk;Rechts;5;26;left;no;50;leftarrow;272;true;focus;yes;888862;Chrome;113.0;Windows;10;undefined;undefined;1536 x 864;1536 x 864
H025;25;Vrouwelijk;Rechts;5;27;right;no;50;leftarrow;275;false;focus;yes;889902;Chrome;113.0;Windows;10;undefined;undefined;1536 x 864;1536 x 864
H025;25;Vrouwelijk;Rechts;5;28;left;yes;50;leftarrow;307;false;focus;yes;890992;Chrome;113.0;Windows;10;undefined;undefined;1536 x 864;1536 x 864
H025;25;Vrouwelijk;Rechts;5;29;left;no;50;leftarrow;399;true;focus;yes;892170;Chrome;113.0;Windows;10;undefined;undefined;1536 x 864;1536 x 864
H025;25;Vrouwelijk;Rechts;5;30;right;yes;50;rightarrow;331;false;focus;yes;893282;Chrome;113.0;Windows;10;undefined;undefined;1536 x 864;1536 x 864
H025;25;Vrouwelijk;Rechts;5;31;left;no;50;leftarrow;370;true;focus;yes;894428;Chrome;113.0;Windows;10;undefined;undefined;1536 x 864;1536 x 864
H025;25;Vrouwelijk;Rechts;5;32;right;no;50;rightarrow;377;true;focus;yes;895582;Chrome;113.0;Windows;10;undefined;undefined;1536 x 864;1536 x 864
H025;25;Vrouwelijk;Rechts;5;33;right;no;50;rightarrow;402;true;focus;yes;896759;Chrome;113.0;Windows;10;undefined;undefined;1536 x 864;1536 x 864
H025;25;Vrouwelijk;Rechts;5;34;left;no;50;leftarrow;287;true;focus;yes;897823;Chrome;113.0;Windows;10;undefined;undefined;1536 x 864;1536 x 864
H025;25;Vrouwelijk;Rechts;5;35;right;no;50;rightarrow;291;true;focus;yes;898900;Chrome;113.0;Windows;10;undefined;undefined;1536 x 864;1536 x 864
H025;25;Vrouwelijk;Rechts;5;36;right;no;50;rightarrow;496;true;focus;yes;900177;Chrome;113.0;Windows;10;undefined;undefined;1536 x 864;1536 x 864
H025;25;Vrouwelijk;Rechts;5;37;right;yes;50;undefined;null;true;focus;yes;902205;Chrome;113.0;Windows;10;undefined;undefined;1536 x 864;1536 x 864
H025;25;Vrouwelijk;Rechts;5;38;left;no;100;leftarrow;349;true;focus;yes;903338;Chrome;113.0;Windows;10;undefined;undefined;1536 x 864;1536 x 864
H025;25;Vrouwelijk;Rechts;5;39;left;yes;100;leftarrow;307;false;focus;yes;904429;Chrome;113.0;Windows;10;undefined;undefined;1536 x 864;1536 x 864
H025;25;Vrouwelijk;Rechts;5;40;left;no;50;leftarrow;424;true;focus;yes;905629;Chrome;113.0;Windows;10;undefined;undefined;1536 x 864;1536 x 864
H025;25;Vrouwelijk;Rechts;5;41;right;no;50;rightarrow;891;true;focus;yes;907292;Chrome;113.0;Windows;10;undefined;undefined;1536 x 864;1536 x 864
H025;25;Vrouwelijk;Rechts;5;42;right;no;50;rightarrow;407;true;focus;yes;908470;Chrome;113.0;Windows;10;undefined;undefined;1536 x 864;1536 x 864
H025;25;Vrouwelijk;Rechts;5;43;right;no;50;rightarrow;1018;true;focus;yes;910257;Chrome;113.0;Windows;10;undefined;undefined;1536 x 864;1536 x 864
H025;25;Vrouwelijk;Rechts;5;44;left;no;50;leftarrow;303;true;focus;yes;911329;Chrome;113.0;Windows;10;undefined;undefined;1536 x 864;1536 x 864
H025;25;Vrouwelijk;Rechts;5;45;left;no;50;leftarrow;391;true;focus;yes;912503;Chrome;113.0;Windows;10;undefined;undefined;1536 x 864;1536 x 864
H025;25;Vrouwelijk;Rechts;5;46;left;yes;50;leftarrow;319;false;focus;yes;913596;Chrome;113.0;Windows;10;undefined;undefined;1536 x 864;1536 x 864
H025;25;Vrouwelijk;Rechts;5;47;right;yes;50;rightarrow;317;false;focus;yes;914684;Chrome;113.0;Windows;10;undefined;undefined;1536 x 864;1536 x 864
H025;25;Vrouwelijk;Rechts;5;48;left;no;50;leftarrow;320;true;focus;yes;915786;Chrome;113.0;Windows;10;undefined;undefined;1536 x 864;1536 x 864
H025;25;Vrouwelijk;Rechts;5;49;left;no;50;leftarrow;339;true;focus;yes;916897;Chrome;113.0;Windows;10;undefined;undefined;1536 x 864;1536 x 864
H025;25;Vrouwelijk;Rechts;5;50;right;no;50;rightarrow;278;true;focus;yes;917955;Chrome;113.0;Windows;10;undefined;undefined;1536 x 864;1536 x 864
H025;25;Vrouwelijk;Rechts;5;51;right;no;50;rightarrow;356;true;focus;yes;919090;Chrome;113.0;Windows;10;undefined;undefined;1536 x 864;1536 x 864
H025;25;Vrouwelijk;Rechts;5;52;right;no;50;rightarrow;511;true;focus;yes;920386;Chrome;113.0;Windows;10;undefined;undefined;1536 x 864;1536 x 864
H025;25;Vrouwelijk;Rechts;5;53;left;no;50;leftarrow;274;true;focus;yes;921436;Chrome;113.0;Windows;10;undefined;undefined;1536 x 864;1536 x 864
H025;25;Vrouwelijk;Rechts;5;54;left;no;50;leftarrow;753;true;focus;yes;922972;Chrome;113.0;Windows;10;undefined;undefined;1536 x 864;1536 x 864
H025;25;Vrouwelijk;Rechts;5;55;right;yes;50;rightarrow;333;false;focus;yes;924091;Chrome;113.0;Windows;10;undefined;undefined;1536 x 864;1536 x 864
H025;25;Vrouwelijk;Rechts;5;56;left;yes;50;undefined;null;true;focus;yes;926126;Chrome;113.0;Windows;10;undefined;undefined;1536 x 864;1536 x 864
H025;25;Vrouwelijk;Rechts;5;57;left;no;100;leftarrow;395;true;focus;yes;927298;Chrome;113.0;Windows;10;undefined;undefined;1536 x 864;1536 x 864
H025;25;Vrouwelijk;Rechts;5;58;right;no;100;rightarrow;348;true;focus;yes;928418;Chrome;113.0;Windows;10;undefined;undefined;1536 x 864;1536 x 864
H025;25;Vrouwelijk;Rechts;5;59;left;yes;100;leftarrow;302;false;focus;yes;929504;Chrome;113.0;Windows;10;undefined;undefined;1536 x 864;1536 x 864
H025;25;Vrouwelijk;Rechts;5;60;left;no;50;leftarrow;457;true;focus;yes;930731;Chrome;113.0;Windows;10;undefined;undefined;1536 x 864;1536 x 864
H025;25;Vrouwelijk;Rechts;5;61;right;yes;50;rightarrow;348;false;focus;yes;931851;Chrome;113.0;Windows;10;undefined;undefined;1536 x 864;1536 x 864
H025;25;Vrouwelijk;Rechts;5;62;right;no;50;rightarrow;555;true;focus;yes;933176;Chrome;113.0;Windows;10;undefined;undefined;1536 x 864;1536 x 864
H025;25;Vrouwelijk;Rechts;5;63;right;no;50;rightarrow;361;true;focus;yes;934318;Chrome;113.0;Windows;10;undefined;undefined;1536 x 864;1536 x 864
H025;25;Vrouwelijk;Rechts;5;64;left;no;50;leftarrow;351;true;focus;yes;935443;Chrome;113.0;Windows;10;undefined;undefined;1536 x 864;1536 x 864
H025;25;Vrouwelijk;Rechts;5;65;left;no;50;leftarrow;327;true;focus;yes;936542;Chrome;113.0;Windows;10;undefined;undefined;1536 x 864;1536 x 864
H025;25;Vrouwelijk;Rechts;5;66;right;no;50;rightarrow;326;true;focus;yes;937641;Chrome;113.0;Windows;10;undefined;undefined;1536 x 864;1536 x 864
H025;25;Vrouwelijk;Rechts;5;67;left;no;50;leftarrow;317;true;focus;yes;938737;Chrome;113.0;Windows;10;undefined;undefined;1536 x 864;1536 x 864
H025;25;Vrouwelijk;Rechts;5;68;right;no;50;rightarrow;280;true;focus;yes;939791;Chrome;113.0;Windows;10;undefined;undefined;1536 x 864;1536 x 864
H025;25;Vrouwelijk;Rechts;5;69;right;no;50;leftarrow;197;false;focus;yes;940760;Chrome;113.0;Windows;10;undefined;undefined;1536 x 864;1536 x 864
H025;25;Vrouwelijk;Rechts;5;70;right;yes;50;leftarrow;266;false;focus;yes;941812;Chrome;113.0;Windows;10;undefined;undefined;1536 x 864;1536 x 864
H025;25;Vrouwelijk;Rechts;5;71;left;yes;50;leftarrow;576;false;focus;yes;943160;Chrome;113.0;Windows;10;undefined;undefined;1536 x 864;1536 x 864
H025;25;Vrouwelijk;Rechts;5;72;left;no;50;leftarrow;313;true;focus;yes;944255;Chrome;113.0;Windows;10;undefined;undefined;1536 x 864;1536 x 864
H025;25;Vrouwelijk;Rechts;5;73;left;yes;50;leftarrow;315;false;focus;yes;945356;Chrome;113.0;Windows;10;undefined;undefined;1536 x 864;1536 x 864
H025;25;Vrouwelijk;Rechts;5;74;right;yes;50;undefined;null;true;focus;yes;947382;Chrome;113.0;Windows;10;undefined;undefined;1536 x 864;1536 x 864
H025;25;Vrouwelijk;Rechts;5;75;right;no;100;rightarrow;339;true;focus;yes;948503;Chrome;113.0;Windows;10;undefined;undefined;1536 x 864;1536 x 864
H025;25;Vrouwelijk;Rechts;5;76;right;no;100;rightarrow;363;true;focus;yes;949642;Chrome;113.0;Windows;10;undefined;undefined;1536 x 864;1536 x 864
H025;25;Vrouwelijk;Rechts;5;77;left;no;100;leftarrow;385;true;focus;yes;950799;Chrome;113.0;Windows;10;undefined;undefined;1536 x 864;1536 x 864
H025;25;Vrouwelijk;Rechts;5;78;left;no;100;leftarrow;355;true;focus;yes;951935;Chrome;113.0;Windows;10;undefined;undefined;1536 x 864;1536 x 864
H025;25;Vrouwelijk;Rechts;5;79;left;no;100;leftarrow;343;true;focus;yes;953058;Chrome;113.0;Windows;10;undefined;undefined;1536 x 864;1536 x 864
H025;25;Vrouwelijk;Rechts;5;80;right;no;100;rightarrow;328;true;focus;yes;954162;Chrome;113.0;Windows;10;undefined;undefined;1536 x 864;1536 x 864
H025;25;Vrouwelijk;Rechts;5;81;left;no;100;leftarrow;320;true;focus;yes;955258;Chrome;113.0;Windows;10;undefined;undefined;1536 x 864;1536 x 864
H025;25;Vrouwelijk;Rechts;5;82;right;no;100;rightarrow;277;true;focus;yes;956304;Chrome;113.0;Windows;10;undefined;undefined;1536 x 864;1536 x 864
H025;25;Vrouwelijk;Rechts;5;83;right;yes;100;rightarrow;411;false;focus;yes;957492;Chrome;113.0;Windows;10;undefined;undefined;1536 x 864;1536 x 864
H025;25;Vrouwelijk;Rechts;5;84;right;no;50;leftarrow;280;false;focus;yes;958538;Chrome;113.0;Windows;10;undefined;undefined;1536 x 864;1536 x 864
H025;25;Vrouwelijk;Rechts;5;85;left;yes;50;undefined;null;true;focus;yes;960564;Chrome;113.0;Windows;10;undefined;undefined;1536 x 864;1536 x 864
H025;25;Vrouwelijk;Rechts;5;86;left;no;100;leftarrow;315;true;focus;yes;961655;Chrome;113.0;Windows;10;undefined;undefined;1536 x 864;1536 x 864
H025;25;Vrouwelijk;Rechts;5;87;left;no;100;leftarrow;359;true;focus;yes;962782;Chrome;113.0;Windows;10;undefined;undefined;1536 x 864;1536 x 864
H025;25;Vrouwelijk;Rechts;5;88;right;no;100;rightarrow;333;true;focus;yes;963893;Chrome;113.0;Windows;10;undefined;undefined;1536 x 864;1536 x 864
H025;25;Vrouwelijk;Rechts;5;89;left;no;100;leftarrow;336;true;focus;yes;964998;Chrome;113.0;Windows;10;undefined;undefined;1536 x 864;1536 x 864
H025;25;Vrouwelijk;Rechts;5;90;left;no;100;leftarrow;351;true;focus;yes;966136;Chrome;113.0;Windows;10;undefined;undefined;1536 x 864;1536 x 864
H025;25;Vrouwelijk;Rechts;5;91;right;yes;100;rightarrow;328;false;focus;yes;967250;Chrome;113.0;Windows;10;undefined;undefined;1536 x 864;1536 x 864
H025;25;Vrouwelijk;Rechts;5;92;left;yes;50;undefined;null;true;focus;yes;969268;Chrome;113.0;Windows;10;undefined;undefined;1536 x 864;1536 x 864
H025;25;Vrouwelijk;Rechts;5;93;right;no;100;rightarrow;313;true;focus;yes;970361;Chrome;113.0;Windows;10;undefined;undefined;1536 x 864;1536 x 864
H025;25;Vrouwelijk;Rechts;5;94;right;no;100;leftarrow;228;false;focus;yes;971361;Chrome;113.0;Windows;10;undefined;undefined;1536 x 864;1536 x 864
H025;25;Vrouwelijk;Rechts;5;95;right;no;100;rightarrow;425;true;focus;yes;972566;Chrome;113.0;Windows;10;undefined;undefined;1536 x 864;1536 x 864
H025;25;Vrouwelijk;Rechts;5;96;left;no;100;leftarrow;320;true;focus;yes;973664;Chrome;113.0;Windows;10;undefined;undefined;1536 x 864;1536 x 864
H025;25;Vrouwelijk;Rechts;5;97;left;no;100;leftarrow;361;true;focus;yes;974803;Chrome;113.0;Windows;10;undefined;undefined;1536 x 864;1536 x 864
H025;25;Vrouwelijk;Rechts;5;98;right;yes;100;rightarrow;423;false;focus;yes;975998;Chrome;113.0;Windows;10;undefined;undefined;1536 x 864;1536 x 864
H025;25;Vrouwelijk;Rechts;5;99;right;no;50;leftarrow;140;false;focus;yes;976920;Chrome;113.0;Windows;10;undefined;undefined;1536 x 864;1536 x 864
H025;25;Vrouwelijk;Rechts;5;100;right;no;50;rightarrow;512;true;focus;yes;978208;Chrome;113.0;Windows;10;undefined;undefined;1536 x 864;1536 x 864
H025;25;Vrouwelijk;Rechts;5;101;left;yes;50;leftarrow;301;false;focus;yes;979286;Chrome;113.0;Windows;10;undefined;undefined;1536 x 864;1536 x 864
H025;25;Vrouwelijk;Rechts;5;102;left;no;50;leftarrow;359;true;focus;yes;980416;Chrome;113.0;Windows;10;undefined;undefined;1536 x 864;1536 x 864
H025;25;Vrouwelijk;Rechts;5;103;right;no;50;rightarrow;379;true;focus;yes;981563;Chrome;113.0;Windows;10;undefined;undefined;1536 x 864;1536 x 864
H025;25;Vrouwelijk;Rechts;5;104;left;no;50;leftarrow;475;true;focus;yes;982806;Chrome;113.0;Windows;10;undefined;undefined;1536 x 864;1536 x 864
H025;25;Vrouwelijk;Rechts;5;105;right;no;50;rightarrow;343;true;focus;yes;983937;Chrome;113.0;Windows;10;undefined;undefined;1536 x 864;1536 x 864
H025;25;Vrouwelijk;Rechts;5;106;right;yes;50;undefined;null;true;focus;yes;985966;Chrome;113.0;Windows;10;undefined;undefined;1536 x 864;1536 x 864
H025;25;Vrouwelijk;Rechts;5;107;left;no;100;leftarrow;318;true;focus;yes;987062;Chrome;113.0;Windows;10;undefined;undefined;1536 x 864;1536 x 864
H025;25;Vrouwelijk;Rechts;5;108;left;no;100;leftarrow;421;true;focus;yes;988252;Chrome;113.0;Windows;10;undefined;undefined;1536 x 864;1536 x 864
H025;25;Vrouwelijk;Rechts;5;109;right;no;100;rightarrow;376;true;focus;yes;989400;Chrome;113.0;Windows;10;undefined;undefined;1536 x 864;1536 x 864
H025;25;Vrouwelijk;Rechts;5;110;left;yes;100;leftarrow;340;false;focus;yes;990514;Chrome;113.0;Windows;10;undefined;undefined;1536 x 864;1536 x 864
H025;25;Vrouwelijk;Rechts;5;111;right;no;50;rightarrow;354;true;focus;yes;991644;Chrome;113.0;Windows;10;undefined;undefined;1536 x 864;1536 x 864
H025;25;Vrouwelijk;Rechts;5;112;left;no;50;leftarrow;369;true;focus;yes;992793;Chrome;113.0;Windows;10;undefined;undefined;1536 x 864;1536 x 864
H025;25;Vrouwelijk;Rechts;5;113;left;no;50;leftarrow;354;true;focus;yes;993925;Chrome;113.0;Windows;10;undefined;undefined;1536 x 864;1536 x 864
H025;25;Vrouwelijk;Rechts;5;114;right;yes;50;undefined;null;true;focus;yes;995961;Chrome;113.0;Windows;10;undefined;undefined;1536 x 864;1536 x 864
H025;25;Vrouwelijk;Rechts;5;115;right;no;100;rightarrow;386;true;focus;yes;997127;Chrome;113.0;Windows;10;undefined;undefined;1536 x 864;1536 x 864
H025;25;Vrouwelijk;Rechts;5;116;left;no;100;leftarrow;322;true;focus;yes;998230;Chrome;113.0;Windows;10;undefined;undefined;1536 x 864;1536 x 864
H025;25;Vrouwelijk;Rechts;5;117;left;yes;100;leftarrow;335;false;focus;yes;999353;Chrome;113.0;Windows;10;undefined;undefined;1536 x 864;1536 x 864
H025;25;Vrouwelijk;Rechts;5;118;left;no;50;rightarrow;326;false;focus;yes;1000459;Chrome;113.0;Windows;10;undefined;undefined;1536 x 864;1536 x 864
H025;25;Vrouwelijk;Rechts;5;119;right;no;50;rightarrow;455;true;focus;yes;1001692;Chrome;113.0;Windows;10;undefined;undefined;1536 x 864;1536 x 864
H025;25;Vrouwelijk;Rechts;5;120;right;no;50;rightarrow;411;true;focus;yes;1002875;Chrome;113.0;Windows;10;undefined;undefined;1536 x 864;1536 x 864
H025;25;Vrouwelijk;Rechts;5;121;right;no;50;rightarrow;370;true;focus;yes;1004026;Chrome;113.0;Windows;10;undefined;undefined;1536 x 864;1536 x 864
H025;25;Vrouwelijk;Rechts;5;122;left;no;50;leftarrow;389;true;focus;yes;1005196;Chrome;113.0;Windows;10;undefined;undefined;1536 x 864;1536 x 864
H025;25;Vrouwelijk;Rechts;5;123;left;yes;50;undefined;null;true;focus;yes;1007242;Chrome;113.0;Windows;10;undefined;undefined;1536 x 864;1536 x 864
H025;25;Vrouwelijk;Rechts;5;124;right;no;100;rightarrow;371;true;focus;yes;1008394;Chrome;113.0;Windows;10;undefined;undefined;1536 x 864;1536 x 864
H025;25;Vrouwelijk;Rechts;5;125;left;no;100;leftarrow;293;true;focus;yes;1009467;Chrome;113.0;Windows;10;undefined;undefined;1536 x 864;1536 x 864
H025;25;Vrouwelijk;Rechts;5;126;right;yes;100;rightarrow;261;false;focus;yes;1010505;Chrome;113.0;Windows;10;undefined;undefined;1536 x 864;1536 x 864
H025;25;Vrouwelijk;Rechts;5;127;right;no;50;leftarrow;262;false;focus;yes;1011549;Chrome;113.0;Windows;10;undefined;undefined;1536 x 864;1536 x 864
H025;25;Vrouwelijk;Rechts;5;128;left;no;50;leftarrow;282;true;focus;yes;1012607;Chrome;113.0;Windows;10;undefined;undefined;1536 x 864;1536 x 864
H025;25;Vrouwelijk;Rechts;6;1;right;no;50;rightarrow;360;true;focus;yes;1031736;Chrome;113.0;Windows;10;undefined;undefined;1536 x 864;1536 x 864
H025;25;Vrouwelijk;Rechts;6;2;right;no;50;leftarrow;221;false;focus;yes;1032731;Chrome;113.0;Windows;10;undefined;undefined;1536 x 864;1536 x 864
H025;25;Vrouwelijk;Rechts;6;3;left;yes;50;leftarrow;336;false;focus;yes;1033849;Chrome;113.0;Windows;10;undefined;undefined;1536 x 864;1536 x 864
H025;25;Vrouwelijk;Rechts;6;4;left;no;50;leftarrow;387;true;focus;yes;1035020;Chrome;113.0;Windows;10;undefined;undefined;1536 x 864;1536 x 864
H025;25;Vrouwelijk;Rechts;6;5;left;no;50;leftarrow;351;true;focus;yes;1036151;Chrome;113.0;Windows;10;undefined;undefined;1536 x 864;1536 x 864
H025;25;Vrouwelijk;Rechts;6;6;right;yes;50;undefined;null;true;focus;yes;1038199;Chrome;113.0;Windows;10;undefined;undefined;1536 x 864;1536 x 864
H025;25;Vrouwelijk;Rechts;6;7;left;no;100;leftarrow;285;true;focus;yes;1039262;Chrome;113.0;Windows;10;undefined;undefined;1536 x 864;1536 x 864
H025;25;Vrouwelijk;Rechts;6;8;right;no;100;rightarrow;909;true;focus;yes;1040953;Chrome;113.0;Windows;10;undefined;undefined;1536 x 864;1536 x 864
H025;25;Vrouwelijk;Rechts;6;9;left;no;100;leftarrow;253;true;focus;yes;1041980;Chrome;113.0;Windows;10;undefined;undefined;1536 x 864;1536 x 864
H025;25;Vrouwelijk;Rechts;6;10;right;yes;100;rightarrow;374;false;focus;yes;1043141;Chrome;113.0;Windows;10;undefined;undefined;1536 x 864;1536 x 864
H025;25;Vrouwelijk;Rechts;6;11;left;yes;50;leftarrow;275;false;focus;yes;1044196;Chrome;113.0;Windows;10;undefined;undefined;1536 x 864;1536 x 864
H025;25;Vrouwelijk;Rechts;6;12;right;no;50;rightarrow;904;true;focus;yes;1045880;Chrome;113.0;Windows;10;undefined;undefined;1536 x 864;1536 x 864
H025;25;Vrouwelijk;Rechts;6;13;left;no;50;leftarrow;467;true;focus;yes;1047125;Chrome;113.0;Windows;10;undefined;undefined;1536 x 864;1536 x 864
H025;25;Vrouwelijk;Rechts;6;14;right;no;50;rightarrow;370;true;focus;yes;1048274;Chrome;113.0;Windows;10;undefined;undefined;1536 x 864;1536 x 864
H025;25;Vrouwelijk;Rechts;6;15;left;no;50;leftarrow;354;true;focus;yes;1049394;Chrome;113.0;Windows;10;undefined;undefined;1536 x 864;1536 x 864
H025;25;Vrouwelijk;Rechts;6;16;right;no;50;rightarrow;354;true;focus;yes;1050524;Chrome;113.0;Windows;10;undefined;undefined;1536 x 864;1536 x 864
H025;25;Vrouwelijk;Rechts;6;17;left;yes;50;undefined;null;true;focus;yes;1052558;Chrome;113.0;Windows;10;undefined;undefined;1536 x 864;1536 x 864
H025;25;Vrouwelijk;Rechts;6;18;right;no;100;rightarrow;306;true;focus;yes;1053645;Chrome;113.0;Windows;10;undefined;undefined;1536 x 864;1536 x 864
H025;25;Vrouwelijk;Rechts;6;19;left;no;100;leftarrow;304;true;focus;yes;1054732;Chrome;113.0;Windows;10;undefined;undefined;1536 x 864;1536 x 864
H025;25;Vrouwelijk;Rechts;6;20;left;no;100;leftarrow;293;true;focus;yes;1055800;Chrome;113.0;Windows;10;undefined;undefined;1536 x 864;1536 x 864
H025;25;Vrouwelijk;Rechts;6;21;right;no;100;rightarrow;898;true;focus;yes;1057473;Chrome;113.0;Windows;10;undefined;undefined;1536 x 864;1536 x 864
H025;25;Vrouwelijk;Rechts;6;22;left;no;100;leftarrow;279;true;focus;yes;1058530;Chrome;113.0;Windows;10;undefined;undefined;1536 x 864;1536 x 864
H025;25;Vrouwelijk;Rechts;6;23;right;no;100;rightarrow;931;true;focus;yes;1060238;Chrome;113.0;Windows;10;undefined;undefined;1536 x 864;1536 x 864
H025;25;Vrouwelijk;Rechts;6;24;right;yes;100;undefined;null;true;focus;yes;1062263;Chrome;113.0;Windows;10;undefined;undefined;1536 x 864;1536 x 864
H025;25;Vrouwelijk;Rechts;6;25;right;no;150;leftarrow;295;false;focus;yes;1063337;Chrome;113.0;Windows;10;undefined;undefined;1536 x 864;1536 x 864
H025;25;Vrouwelijk;Rechts;6;26;right;no;150;rightarrow;581;true;focus;yes;1064695;Chrome;113.0;Windows;10;undefined;undefined;1536 x 864;1536 x 864
H025;25;Vrouwelijk;Rechts;6;27;right;yes;150;undefined;null;true;focus;yes;1066732;Chrome;113.0;Windows;10;undefined;undefined;1536 x 864;1536 x 864
H025;25;Vrouwelijk;Rechts;6;28;left;no;200;leftarrow;376;true;focus;yes;1067890;Chrome;113.0;Windows;10;undefined;undefined;1536 x 864;1536 x 864
H025;25;Vrouwelijk;Rechts;6;29;left;no;200;leftarrow;342;true;focus;yes;1069007;Chrome;113.0;Windows;10;undefined;undefined;1536 x 864;1536 x 864
H025;25;Vrouwelijk;Rechts;6;30;right;no;200;rightarrow;487;true;focus;yes;1070269;Chrome;113.0;Windows;10;undefined;undefined;1536 x 864;1536 x 864
