participantID;age;gender;handedness;block_i;trial_i;stim;signal;SSD;response;rt;correct;focus;Fullscreen;time_elapsed;browser_name;browser_version;os_name;os_version;tablet;mobile;screen_resolution;window_resolution
H031;52;Mannelijk;Rechts;0;1;right;no;200;rightarrow;582;true;focus;yes;123487;Chrome;112.0;Windows;10;undefined;undefined;1920 x 1080;1920 x 1080
H031;52;Mannelijk;Rechts;0;2;left;no;200;leftarrow;425;true;focus;yes;125445;Chrome;112.0;Windows;10;undefined;undefined;1920 x 1080;1920 x 1080
H031;52;Mannelijk;Rechts;0;3;left;yes;200;leftarrow;469;false;focus;yes;127445;Chrome;112.0;Windows;10;undefined;undefined;1920 x 1080;1920 x 1080
H031;52;Mannelijk;Rechts;0;4;right;no;150;rightarrow;445;true;focus;yes;129422;Chrome;112.0;Windows;10;undefined;undefined;1920 x 1080;1920 x 1080
H031;52;Mannelijk;Rechts;0;5;right;yes;150;undefined;null;true;focus;yes;132200;Chrome;112.0;Windows;10;undefined;undefined;1920 x 1080;1920 x 1080
H031;52;Mannelijk;Rechts;0;6;right;no;200;rightarrow;537;true;focus;yes;134261;Chrome;112.0;Windows;10;undefined;undefined;1920 x 1080;1920 x 1080
H031;52;Mannelijk;Rechts;0;7;left;no;200;leftarrow;289;true;focus;yes;136078;Chrome;112.0;Windows;10;undefined;undefined;1920 x 1080;1920 x 1080
H031;52;Mannelijk;Rechts;0;8;left;no;200;rightarrow;361;false;focus;yes;137966;Chrome;112.0;Windows;10;undefined;undefined;1920 x 1080;1920 x 1080
H031;52;Mannelijk;Rechts;1;1;left;yes;200;leftarrow;415;false;focus;yes;168118;Chrome;112.0;Windows;10;undefined;undefined;1920 x 1080;1920 x 1080
H031;52;Mannelijk;Rechts;1;2;right;no;150;rightarrow;539;true;focus;yes;169439;Chrome;112.0;Windows;10;undefined;undefined;1920 x 1080;1920 x 1080
H031;52;Mannelijk;Rechts;1;3;right;no;150;rightarrow;518;true;focus;yes;170727;Chrome;112.0;Windows;10;undefined;undefined;1920 x 1080;1920 x 1080
H031;52;Mannelijk;Rechts;1;4;left;no;150;leftarrow;517;true;focus;yes;172022;Chrome;112.0;Windows;10;undefined;undefined;1920 x 1080;1920 x 1080
H031;52;Mannelijk;Rechts;1;5;right;yes;150;undefined;null;true;focus;yes;174060;Chrome;112.0;Windows;10;undefined;undefined;1920 x 1080;1920 x 1080
H031;52;Mannelijk;Rechts;1;6;left;no;200;leftarrow;424;true;focus;yes;175255;Chrome;112.0;Windows;10;undefined;undefined;1920 x 1080;1920 x 1080
H031;52;Mannelijk;Rechts;1;7;right;no;200;rightarrow;536;true;focus;yes;176575;Chrome;112.0;Windows;10;undefined;undefined;1920 x 1080;1920 x 1080
H031;52;Mannelijk;Rechts;1;8;left;no;200;leftarrow;438;true;focus;yes;177790;Chrome;112.0;Windows;10;undefined;undefined;1920 x 1080;1920 x 1080
H031;52;Mannelijk;Rechts;1;9;right;no;200;rightarrow;364;true;focus;yes;178926;Chrome;112.0;Windows;10;undefined;undefined;1920 x 1080;1920 x 1080
H031;52;Mannelijk;Rechts;1;10;right;yes;200;undefined;null;true;focus;yes;180960;Chrome;112.0;Windows;10;undefined;undefined;1920 x 1080;1920 x 1080
H031;52;Mannelijk;Rechts;1;11;right;no;250;rightarrow;494;true;focus;yes;182222;Chrome;112.0;Windows;10;undefined;undefined;1920 x 1080;1920 x 1080
H031;52;Mannelijk;Rechts;1;12;left;yes;250;leftarrow;465;false;focus;yes;183462;Chrome;112.0;Windows;10;undefined;undefined;1920 x 1080;1920 x 1080
H031;52;Mannelijk;Rechts;1;13;left;no;200;leftarrow;517;true;focus;yes;184750;Chrome;112.0;Windows;10;undefined;undefined;1920 x 1080;1920 x 1080
H031;52;Mannelijk;Rechts;1;14;right;no;200;rightarrow;476;true;focus;yes;185998;Chrome;112.0;Windows;10;undefined;undefined;1920 x 1080;1920 x 1080
H031;52;Mannelijk;Rechts;1;15;left;no;200;leftarrow;464;true;focus;yes;187231;Chrome;112.0;Windows;10;undefined;undefined;1920 x 1080;1920 x 1080
H031;52;Mannelijk;Rechts;1;16;left;no;200;leftarrow;465;true;focus;yes;188494;Chrome;112.0;Windows;10;undefined;undefined;1920 x 1080;1920 x 1080
H031;52;Mannelijk;Rechts;1;17;left;no;200;leftarrow;436;true;focus;yes;189709;Chrome;112.0;Windows;10;undefined;undefined;1920 x 1080;1920 x 1080
H031;52;Mannelijk;Rechts;1;18;right;no;200;rightarrow;606;true;focus;yes;191086;Chrome;112.0;Windows;10;undefined;undefined;1920 x 1080;1920 x 1080
H031;52;Mannelijk;Rechts;1;19;right;no;200;rightarrow;431;true;focus;yes;192277;Chrome;112.0;Windows;10;undefined;undefined;1920 x 1080;1920 x 1080
H031;52;Mannelijk;Rechts;1;20;left;no;200;leftarrow;622;true;focus;yes;193661;Chrome;112.0;Windows;10;undefined;undefined;1920 x 1080;1920 x 1080
H031;52;Mannelijk;Rechts;1;21;right;yes;200;rightarrow;478;false;focus;yes;194909;Chrome;112.0;Windows;10;undefined;undefined;1920 x 1080;1920 x 1080
H031;52;Mannelijk;Rechts;1;22;left;no;150;leftarrow;405;true;focus;yes;196101;Chrome;112.0;Windows;10;undefined;undefined;1920 x 1080;1920 x 1080
H031;52;Mannelijk;Rechts;1;23;right;no;150;rightarrow;495;true;focus;yes;197367;Chrome;112.0;Windows;10;undefined;undefined;1920 x 1080;1920 x 1080
H031;52;Mannelijk;Rechts;1;24;left;yes;150;undefined;null;true;focus;yes;199392;Chrome;112.0;Windows;10;undefined;undefined;1920 x 1080;1920 x 1080
H031;52;Mannelijk;Rechts;1;25;right;no;200;rightarrow;531;true;focus;yes;200686;Chrome;112.0;Windows;10;undefined;undefined;1920 x 1080;1920 x 1080
H031;52;Mannelijk;Rechts;1;26;left;no;200;leftarrow;408;true;focus;yes;201863;Chrome;112.0;Windows;10;undefined;undefined;1920 x 1080;1920 x 1080
H031;52;Mannelijk;Rechts;1;27;right;no;200;rightarrow;404;true;focus;yes;203039;Chrome;112.0;Windows;10;undefined;undefined;1920 x 1080;1920 x 1080
H031;52;Mannelijk;Rechts;1;28;left;yes;200;leftarrow;422;false;focus;yes;204223;Chrome;112.0;Windows;10;undefined;undefined;1920 x 1080;1920 x 1080
H031;52;Mannelijk;Rechts;1;29;left;no;150;leftarrow;507;true;focus;yes;205486;Chrome;112.0;Windows;10;undefined;undefined;1920 x 1080;1920 x 1080
H031;52;Mannelijk;Rechts;1;30;left;no;150;leftarrow;556;true;focus;yes;206815;Chrome;112.0;Windows;10;undefined;undefined;1920 x 1080;1920 x 1080
H031;52;Mannelijk;Rechts;1;31;right;no;150;rightarrow;353;true;focus;yes;207934;Chrome;112.0;Windows;10;undefined;undefined;1920 x 1080;1920 x 1080
H031;52;Mannelijk;Rechts;1;32;right;yes;150;undefined;null;true;focus;yes;209951;Chrome;112.0;Windows;10;undefined;undefined;1920 x 1080;1920 x 1080
H031;52;Mannelijk;Rechts;1;33;right;no;200;rightarrow;528;true;focus;yes;211246;Chrome;112.0;Windows;10;undefined;undefined;1920 x 1080;1920 x 1080
H031;52;Mannelijk;Rechts;1;34;right;no;200;rightarrow;508;true;focus;yes;212526;Chrome;112.0;Windows;10;undefined;undefined;1920 x 1080;1920 x 1080
H031;52;Mannelijk;Rechts;1;35;left;yes;200;leftarrow;446;false;focus;yes;213742;Chrome;112.0;Windows;10;undefined;undefined;1920 x 1080;1920 x 1080
H031;52;Mannelijk;Rechts;1;36;right;yes;150;rightarrow;417;false;focus;yes;214942;Chrome;112.0;Windows;10;undefined;undefined;1920 x 1080;1920 x 1080
H031;52;Mannelijk;Rechts;1;37;right;no;100;rightarrow;474;true;focus;yes;216175;Chrome;112.0;Windows;10;undefined;undefined;1920 x 1080;1920 x 1080
H031;52;Mannelijk;Rechts;1;38;left;no;100;leftarrow;399;true;focus;yes;217343;Chrome;112.0;Windows;10;undefined;undefined;1920 x 1080;1920 x 1080
H031;52;Mannelijk;Rechts;1;39;left;no;100;leftarrow;456;true;focus;yes;218567;Chrome;112.0;Windows;10;undefined;undefined;1920 x 1080;1920 x 1080
H031;52;Mannelijk;Rechts;1;40;left;no;100;leftarrow;416;true;focus;yes;219750;Chrome;112.0;Windows;10;undefined;undefined;1920 x 1080;1920 x 1080
H031;52;Mannelijk;Rechts;1;41;right;no;100;rightarrow;383;true;focus;yes;220911;Chrome;112.0;Windows;10;undefined;undefined;1920 x 1080;1920 x 1080
H031;52;Mannelijk;Rechts;1;42;right;no;100;rightarrow;498;true;focus;yes;222173;Chrome;112.0;Windows;10;undefined;undefined;1920 x 1080;1920 x 1080
H031;52;Mannelijk;Rechts;1;43;left;no;100;leftarrow;443;true;focus;yes;223374;Chrome;112.0;Windows;10;undefined;undefined;1920 x 1080;1920 x 1080
H031;52;Mannelijk;Rechts;1;44;right;no;100;rightarrow;409;true;focus;yes;224558;Chrome;112.0;Windows;10;undefined;undefined;1920 x 1080;1920 x 1080
H031;52;Mannelijk;Rechts;1;45;left;no;100;leftarrow;378;true;focus;yes;225718;Chrome;112.0;Windows;10;undefined;undefined;1920 x 1080;1920 x 1080
H031;52;Mannelijk;Rechts;1;46;left;yes;100;undefined;null;true;focus;yes;227753;Chrome;112.0;Windows;10;undefined;undefined;1920 x 1080;1920 x 1080
H031;52;Mannelijk;Rechts;1;47;left;no;150;leftarrow;434;true;focus;yes;228959;Chrome;112.0;Windows;10;undefined;undefined;1920 x 1080;1920 x 1080
H031;52;Mannelijk;Rechts;1;48;right;yes;150;undefined;null;true;focus;yes;230997;Chrome;112.0;Windows;10;undefined;undefined;1920 x 1080;1920 x 1080
H031;52;Mannelijk;Rechts;1;49;right;yes;200;undefined;null;true;focus;yes;233035;Chrome;112.0;Windows;10;undefined;undefined;1920 x 1080;1920 x 1080
H031;52;Mannelijk;Rechts;1;50;left;yes;250;undefined;null;true;focus;yes;235074;Chrome;112.0;Windows;10;undefined;undefined;1920 x 1080;1920 x 1080
H031;52;Mannelijk;Rechts;1;51;left;no;300;leftarrow;444;true;focus;yes;236295;Chrome;112.0;Windows;10;undefined;undefined;1920 x 1080;1920 x 1080
H031;52;Mannelijk;Rechts;1;52;left;no;300;leftarrow;482;true;focus;yes;237551;Chrome;112.0;Windows;10;undefined;undefined;1920 x 1080;1920 x 1080
H031;52;Mannelijk;Rechts;1;53;right;no;300;rightarrow;526;true;focus;yes;238862;Chrome;112.0;Windows;10;undefined;undefined;1920 x 1080;1920 x 1080
H031;52;Mannelijk;Rechts;1;54;right;no;300;rightarrow;443;true;focus;yes;240063;Chrome;112.0;Windows;10;undefined;undefined;1920 x 1080;1920 x 1080
H031;52;Mannelijk;Rechts;1;55;right;no;300;rightarrow;427;true;focus;yes;241262;Chrome;112.0;Windows;10;undefined;undefined;1920 x 1080;1920 x 1080
H031;52;Mannelijk;Rechts;1;56;left;no;300;leftarrow;485;true;focus;yes;242518;Chrome;112.0;Windows;10;undefined;undefined;1920 x 1080;1920 x 1080
H031;52;Mannelijk;Rechts;1;57;left;yes;300;leftarrow;422;false;focus;yes;243710;Chrome;112.0;Windows;10;undefined;undefined;1920 x 1080;1920 x 1080
H031;52;Mannelijk;Rechts;1;58;right;no;250;rightarrow;580;true;focus;yes;245062;Chrome;112.0;Windows;10;undefined;undefined;1920 x 1080;1920 x 1080
H031;52;Mannelijk;Rechts;1;59;left;no;250;leftarrow;557;true;focus;yes;246382;Chrome;112.0;Windows;10;undefined;undefined;1920 x 1080;1920 x 1080
H031;52;Mannelijk;Rechts;1;60;right;no;250;rightarrow;453;true;focus;yes;247607;Chrome;112.0;Windows;10;undefined;undefined;1920 x 1080;1920 x 1080
H031;52;Mannelijk;Rechts;1;61;right;no;250;rightarrow;499;true;focus;yes;248870;Chrome;112.0;Windows;10;undefined;undefined;1920 x 1080;1920 x 1080
H031;52;Mannelijk;Rechts;1;62;left;no;250;leftarrow;443;true;focus;yes;250079;Chrome;112.0;Windows;10;undefined;undefined;1920 x 1080;1920 x 1080
H031;52;Mannelijk;Rechts;1;63;left;no;250;leftarrow;482;true;focus;yes;251326;Chrome;112.0;Windows;10;undefined;undefined;1920 x 1080;1920 x 1080
H031;52;Mannelijk;Rechts;1;64;right;yes;250;rightarrow;438;false;focus;yes;252541;Chrome;112.0;Windows;10;undefined;undefined;1920 x 1080;1920 x 1080
H031;52;Mannelijk;Rechts;1;65;left;no;200;leftarrow;494;true;focus;yes;253805;Chrome;112.0;Windows;10;undefined;undefined;1920 x 1080;1920 x 1080
H031;52;Mannelijk;Rechts;1;66;right;no;200;rightarrow;492;true;focus;yes;255061;Chrome;112.0;Windows;10;undefined;undefined;1920 x 1080;1920 x 1080
H031;52;Mannelijk;Rechts;1;67;left;no;200;leftarrow;468;true;focus;yes;256301;Chrome;112.0;Windows;10;undefined;undefined;1920 x 1080;1920 x 1080
H031;52;Mannelijk;Rechts;1;68;right;no;200;rightarrow;478;true;focus;yes;257533;Chrome;112.0;Windows;10;undefined;undefined;1920 x 1080;1920 x 1080
H031;52;Mannelijk;Rechts;1;69;right;yes;200;undefined;null;true;focus;yes;259563;Chrome;112.0;Windows;10;undefined;undefined;1920 x 1080;1920 x 1080
H031;52;Mannelijk;Rechts;1;70;left;no;250;leftarrow;385;true;focus;yes;260717;Chrome;112.0;Windows;10;undefined;undefined;1920 x 1080;1920 x 1080
H031;52;Mannelijk;Rechts;1;71;right;no;250;rightarrow;435;true;focus;yes;261918;Chrome;112.0;Windows;10;undefined;undefined;1920 x 1080;1920 x 1080
H031;52;Mannelijk;Rechts;1;72;left;yes;250;leftarrow;437;false;focus;yes;263134;Chrome;112.0;Windows;10;undefined;undefined;1920 x 1080;1920 x 1080
H031;52;Mannelijk;Rechts;1;73;right;no;200;rightarrow;493;true;focus;yes;264414;Chrome;112.0;Windows;10;undefined;undefined;1920 x 1080;1920 x 1080
H031;52;Mannelijk;Rechts;1;74;left;no;200;leftarrow;410;true;focus;yes;265590;Chrome;112.0;Windows;10;undefined;undefined;1920 x 1080;1920 x 1080
H031;52;Mannelijk;Rechts;1;75;left;no;200;leftarrow;467;true;focus;yes;266831;Chrome;112.0;Windows;10;undefined;undefined;1920 x 1080;1920 x 1080
H031;52;Mannelijk;Rechts;1;76;right;no;200;rightarrow;553;true;focus;yes;268158;Chrome;112.0;Windows;10;undefined;undefined;1920 x 1080;1920 x 1080
H031;52;Mannelijk;Rechts;1;77;right;yes;200;rightarrow;406;false;focus;yes;269333;Chrome;112.0;Windows;10;undefined;undefined;1920 x 1080;1920 x 1080
H031;52;Mannelijk;Rechts;1;78;right;no;150;rightarrow;534;true;focus;yes;270646;Chrome;112.0;Windows;10;undefined;undefined;1920 x 1080;1920 x 1080
H031;52;Mannelijk;Rechts;1;79;left;yes;150;leftarrow;433;false;focus;yes;271863;Chrome;112.0;Windows;10;undefined;undefined;1920 x 1080;1920 x 1080
H031;52;Mannelijk;Rechts;1;80;left;no;100;leftarrow;466;true;focus;yes;273094;Chrome;112.0;Windows;10;undefined;undefined;1920 x 1080;1920 x 1080
H031;52;Mannelijk;Rechts;1;81;left;no;100;leftarrow;611;true;focus;yes;274485;Chrome;112.0;Windows;10;undefined;undefined;1920 x 1080;1920 x 1080
H031;52;Mannelijk;Rechts;1;82;left;no;100;leftarrow;474;true;focus;yes;275733;Chrome;112.0;Windows;10;undefined;undefined;1920 x 1080;1920 x 1080
H031;52;Mannelijk;Rechts;1;83;right;no;100;rightarrow;519;true;focus;yes;277029;Chrome;112.0;Windows;10;undefined;undefined;1920 x 1080;1920 x 1080
H031;52;Mannelijk;Rechts;1;84;right;yes;100;undefined;null;true;focus;yes;279073;Chrome;112.0;Windows;10;undefined;undefined;1920 x 1080;1920 x 1080
H031;52;Mannelijk;Rechts;1;85;right;no;150;rightarrow;487;true;focus;yes;280334;Chrome;112.0;Windows;10;undefined;undefined;1920 x 1080;1920 x 1080
H031;52;Mannelijk;Rechts;1;86;left;no;150;leftarrow;439;true;focus;yes;281549;Chrome;112.0;Windows;10;undefined;undefined;1920 x 1080;1920 x 1080
H031;52;Mannelijk;Rechts;1;87;right;no;150;rightarrow;484;true;focus;yes;282806;Chrome;112.0;Windows;10;undefined;undefined;1920 x 1080;1920 x 1080
H031;52;Mannelijk;Rechts;1;88;left;yes;150;leftarrow;411;false;focus;yes;283974;Chrome;112.0;Windows;10;undefined;undefined;1920 x 1080;1920 x 1080
H031;52;Mannelijk;Rechts;1;89;left;no;100;leftarrow;491;true;focus;yes;285229;Chrome;112.0;Windows;10;undefined;undefined;1920 x 1080;1920 x 1080
H031;52;Mannelijk;Rechts;1;90;right;yes;100;undefined;null;true;focus;yes;287258;Chrome;112.0;Windows;10;undefined;undefined;1920 x 1080;1920 x 1080
H031;52;Mannelijk;Rechts;1;91;left;no;150;leftarrow;458;true;focus;yes;288487;Chrome;112.0;Windows;10;undefined;undefined;1920 x 1080;1920 x 1080
H031;52;Mannelijk;Rechts;1;92;right;no;150;rightarrow;492;true;focus;yes;289759;Chrome;112.0;Windows;10;undefined;undefined;1920 x 1080;1920 x 1080
H031;52;Mannelijk;Rechts;1;93;right;no;150;rightarrow;454;true;focus;yes;290991;Chrome;112.0;Windows;10;undefined;undefined;1920 x 1080;1920 x 1080
H031;52;Mannelijk;Rechts;1;94;left;yes;150;undefined;null;true;focus;yes;293024;Chrome;112.0;Windows;10;undefined;undefined;1920 x 1080;1920 x 1080
H031;52;Mannelijk;Rechts;1;95;left;no;200;leftarrow;458;true;focus;yes;294246;Chrome;112.0;Windows;10;undefined;undefined;1920 x 1080;1920 x 1080
H031;52;Mannelijk;Rechts;1;96;right;no;200;rightarrow;422;true;focus;yes;295438;Chrome;112.0;Windows;10;undefined;undefined;1920 x 1080;1920 x 1080
H031;52;Mannelijk;Rechts;1;97;left;no;200;leftarrow;436;true;focus;yes;296630;Chrome;112.0;Windows;10;undefined;undefined;1920 x 1080;1920 x 1080
H031;52;Mannelijk;Rechts;1;98;left;no;200;leftarrow;460;true;focus;yes;297871;Chrome;112.0;Windows;10;undefined;undefined;1920 x 1080;1920 x 1080
H031;52;Mannelijk;Rechts;1;99;right;no;200;rightarrow;399;true;focus;yes;299046;Chrome;112.0;Windows;10;undefined;undefined;1920 x 1080;1920 x 1080
H031;52;Mannelijk;Rechts;1;100;left;yes;200;leftarrow;448;false;focus;yes;300279;Chrome;112.0;Windows;10;undefined;undefined;1920 x 1080;1920 x 1080
H031;52;Mannelijk;Rechts;1;101;right;no;150;rightarrow;400;true;focus;yes;301438;Chrome;112.0;Windows;10;undefined;undefined;1920 x 1080;1920 x 1080
H031;52;Mannelijk;Rechts;1;102;right;yes;150;undefined;null;true;focus;yes;303451;Chrome;112.0;Windows;10;undefined;undefined;1920 x 1080;1920 x 1080
H031;52;Mannelijk;Rechts;1;103;left;no;200;leftarrow;381;true;focus;yes;304606;Chrome;112.0;Windows;10;undefined;undefined;1920 x 1080;1920 x 1080
H031;52;Mannelijk;Rechts;1;104;right;no;200;rightarrow;450;true;focus;yes;305830;Chrome;112.0;Windows;10;undefined;undefined;1920 x 1080;1920 x 1080
H031;52;Mannelijk;Rechts;1;105;left;no;200;leftarrow;450;true;focus;yes;307046;Chrome;112.0;Windows;10;undefined;undefined;1920 x 1080;1920 x 1080
H031;52;Mannelijk;Rechts;1;106;right;yes;200;rightarrow;429;false;focus;yes;308253;Chrome;112.0;Windows;10;undefined;undefined;1920 x 1080;1920 x 1080
H031;52;Mannelijk;Rechts;1;107;right;no;150;rightarrow;622;true;focus;yes;309638;Chrome;112.0;Windows;10;undefined;undefined;1920 x 1080;1920 x 1080
H031;52;Mannelijk;Rechts;1;108;right;no;150;rightarrow;493;true;focus;yes;310902;Chrome;112.0;Windows;10;undefined;undefined;1920 x 1080;1920 x 1080
H031;52;Mannelijk;Rechts;1;109;left;no;150;leftarrow;550;true;focus;yes;312230;Chrome;112.0;Windows;10;undefined;undefined;1920 x 1080;1920 x 1080
H031;52;Mannelijk;Rechts;1;110;right;no;150;rightarrow;412;true;focus;yes;313415;Chrome;112.0;Windows;10;undefined;undefined;1920 x 1080;1920 x 1080
H031;52;Mannelijk;Rechts;1;111;left;yes;150;leftarrow;435;false;focus;yes;314623;Chrome;112.0;Windows;10;undefined;undefined;1920 x 1080;1920 x 1080
H031;52;Mannelijk;Rechts;1;112;left;no;100;leftarrow;603;true;focus;yes;315998;Chrome;112.0;Windows;10;undefined;undefined;1920 x 1080;1920 x 1080
H031;52;Mannelijk;Rechts;1;113;left;no;100;leftarrow;472;true;focus;yes;317247;Chrome;112.0;Windows;10;undefined;undefined;1920 x 1080;1920 x 1080
H031;52;Mannelijk;Rechts;1;114;right;no;100;rightarrow;529;true;focus;yes;318542;Chrome;112.0;Windows;10;undefined;undefined;1920 x 1080;1920 x 1080
H031;52;Mannelijk;Rechts;1;115;left;no;100;leftarrow;563;true;focus;yes;319871;Chrome;112.0;Windows;10;undefined;undefined;1920 x 1080;1920 x 1080
H031;52;Mannelijk;Rechts;1;116;left;no;100;leftarrow;417;true;focus;yes;321063;Chrome;112.0;Windows;10;undefined;undefined;1920 x 1080;1920 x 1080
H031;52;Mannelijk;Rechts;1;117;right;no;100;rightarrow;559;true;focus;yes;322399;Chrome;112.0;Windows;10;undefined;undefined;1920 x 1080;1920 x 1080
H031;52;Mannelijk;Rechts;1;118;right;no;100;rightarrow;535;true;focus;yes;323703;Chrome;112.0;Windows;10;undefined;undefined;1920 x 1080;1920 x 1080
H031;52;Mannelijk;Rechts;1;119;left;yes;100;undefined;null;true;focus;yes;325724;Chrome;112.0;Windows;10;undefined;undefined;1920 x 1080;1920 x 1080
H031;52;Mannelijk;Rechts;1;120;right;yes;150;rightarrow;475;false;focus;yes;326958;Chrome;112.0;Windows;10;undefined;undefined;1920 x 1080;1920 x 1080
H031;52;Mannelijk;Rechts;1;121;left;no;100;leftarrow;503;true;focus;yes;328221;Chrome;112.0;Windows;10;undefined;undefined;1920 x 1080;1920 x 1080
H031;52;Mannelijk;Rechts;1;122;left;no;100;leftarrow;445;true;focus;yes;329429;Chrome;112.0;Windows;10;undefined;undefined;1920 x 1080;1920 x 1080
H031;52;Mannelijk;Rechts;1;123;right;no;100;rightarrow;480;true;focus;yes;330678;Chrome;112.0;Windows;10;undefined;undefined;1920 x 1080;1920 x 1080
H031;52;Mannelijk;Rechts;1;124;right;no;100;rightarrow;405;true;focus;yes;331863;Chrome;112.0;Windows;10;undefined;undefined;1920 x 1080;1920 x 1080
H031;52;Mannelijk;Rechts;1;125;left;yes;100;undefined;null;true;focus;yes;333898;Chrome;112.0;Windows;10;undefined;undefined;1920 x 1080;1920 x 1080
H031;52;Mannelijk;Rechts;1;126;right;no;150;rightarrow;436;true;focus;yes;335103;Chrome;112.0;Windows;10;undefined;undefined;1920 x 1080;1920 x 1080
H031;52;Mannelijk;Rechts;1;127;right;yes;150;undefined;null;true;focus;yes;337125;Chrome;112.0;Windows;10;undefined;undefined;1920 x 1080;1920 x 1080
H031;52;Mannelijk;Rechts;1;128;left;no;200;leftarrow;502;true;focus;yes;338399;Chrome;112.0;Windows;10;undefined;undefined;1920 x 1080;1920 x 1080
H031;52;Mannelijk;Rechts;2;1;right;yes;200;undefined;null;true;focus;yes;358059;Chrome;112.0;Windows;10;undefined;undefined;1920 x 1080;1920 x 1080
H031;52;Mannelijk;Rechts;2;2;right;no;250;rightarrow;541;true;focus;yes;359367;Chrome;112.0;Windows;10;undefined;undefined;1920 x 1080;1920 x 1080
H031;52;Mannelijk;Rechts;2;3;right;no;250;rightarrow;533;true;focus;yes;360670;Chrome;112.0;Windows;10;undefined;undefined;1920 x 1080;1920 x 1080
H031;52;Mannelijk;Rechts;2;4;right;no;250;rightarrow;506;true;focus;yes;361951;Chrome;112.0;Windows;10;undefined;undefined;1920 x 1080;1920 x 1080
H031;52;Mannelijk;Rechts;2;5;left;no;250;leftarrow;521;true;focus;yes;363239;Chrome;112.0;Windows;10;undefined;undefined;1920 x 1080;1920 x 1080
H031;52;Mannelijk;Rechts;2;6;left;no;250;leftarrow;591;true;focus;yes;364607;Chrome;112.0;Windows;10;undefined;undefined;1920 x 1080;1920 x 1080
H031;52;Mannelijk;Rechts;2;7;left;no;250;leftarrow;364;true;focus;yes;365750;Chrome;112.0;Windows;10;undefined;undefined;1920 x 1080;1920 x 1080
H031;52;Mannelijk;Rechts;2;8;left;yes;250;undefined;null;true;focus;yes;367776;Chrome;112.0;Windows;10;undefined;undefined;1920 x 1080;1920 x 1080
H031;52;Mannelijk;Rechts;2;9;left;no;300;leftarrow;494;true;focus;yes;369046;Chrome;112.0;Windows;10;undefined;undefined;1920 x 1080;1920 x 1080
H031;52;Mannelijk;Rechts;2;10;left;no;300;leftarrow;480;true;focus;yes;370294;Chrome;112.0;Windows;10;undefined;undefined;1920 x 1080;1920 x 1080
H031;52;Mannelijk;Rechts;2;11;left;yes;300;leftarrow;594;false;focus;yes;371662;Chrome;112.0;Windows;10;undefined;undefined;1920 x 1080;1920 x 1080
H031;52;Mannelijk;Rechts;2;12;right;no;250;rightarrow;399;true;focus;yes;372830;Chrome;112.0;Windows;10;undefined;undefined;1920 x 1080;1920 x 1080
H031;52;Mannelijk;Rechts;2;13;left;no;250;leftarrow;631;true;focus;yes;374238;Chrome;112.0;Windows;10;undefined;undefined;1920 x 1080;1920 x 1080
H031;52;Mannelijk;Rechts;2;14;right;no;250;rightarrow;567;true;focus;yes;375582;Chrome;112.0;Windows;10;undefined;undefined;1920 x 1080;1920 x 1080
H031;52;Mannelijk;Rechts;2;15;right;yes;250;rightarrow;448;false;focus;yes;376798;Chrome;112.0;Windows;10;undefined;undefined;1920 x 1080;1920 x 1080
H031;52;Mannelijk;Rechts;2;16;right;no;200;rightarrow;571;true;focus;yes;378135;Chrome;112.0;Windows;10;undefined;undefined;1920 x 1080;1920 x 1080
H031;52;Mannelijk;Rechts;2;17;left;no;200;leftarrow;405;true;focus;yes;379310;Chrome;112.0;Windows;10;undefined;undefined;1920 x 1080;1920 x 1080
H031;52;Mannelijk;Rechts;2;18;right;no;200;rightarrow;461;true;focus;yes;380543;Chrome;112.0;Windows;10;undefined;undefined;1920 x 1080;1920 x 1080
H031;52;Mannelijk;Rechts;2;19;right;no;200;rightarrow;621;true;focus;yes;381934;Chrome;112.0;Windows;10;undefined;undefined;1920 x 1080;1920 x 1080
H031;52;Mannelijk;Rechts;2;20;left;yes;200;undefined;null;true;focus;yes;383951;Chrome;112.0;Windows;10;undefined;undefined;1920 x 1080;1920 x 1080
H031;52;Mannelijk;Rechts;2;21;left;no;250;leftarrow;486;true;focus;yes;385206;Chrome;112.0;Windows;10;undefined;undefined;1920 x 1080;1920 x 1080
H031;52;Mannelijk;Rechts;2;22;right;yes;250;rightarrow;493;false;focus;yes;386471;Chrome;112.0;Windows;10;undefined;undefined;1920 x 1080;1920 x 1080
H031;52;Mannelijk;Rechts;2;23;left;no;200;leftarrow;452;true;focus;yes;387694;Chrome;112.0;Windows;10;undefined;undefined;1920 x 1080;1920 x 1080
H031;52;Mannelijk;Rechts;2;24;right;no;200;rightarrow;548;true;focus;yes;389014;Chrome;112.0;Windows;10;undefined;undefined;1920 x 1080;1920 x 1080
H031;52;Mannelijk;Rechts;2;25;right;yes;200;rightarrow;422;false;focus;yes;390215;Chrome;112.0;Windows;10;undefined;undefined;1920 x 1080;1920 x 1080
H031;52;Mannelijk;Rechts;2;26;left;no;150;leftarrow;447;true;focus;yes;391423;Chrome;112.0;Windows;10;undefined;undefined;1920 x 1080;1920 x 1080
H031;52;Mannelijk;Rechts;2;27;right;no;150;rightarrow;552;true;focus;yes;392734;Chrome;112.0;Windows;10;undefined;undefined;1920 x 1080;1920 x 1080
H031;52;Mannelijk;Rechts;2;28;left;yes;150;undefined;null;true;focus;yes;394767;Chrome;112.0;Windows;10;undefined;undefined;1920 x 1080;1920 x 1080
H031;52;Mannelijk;Rechts;2;29;right;no;200;rightarrow;461;true;focus;yes;395998;Chrome;112.0;Windows;10;undefined;undefined;1920 x 1080;1920 x 1080
H031;52;Mannelijk;Rechts;2;30;right;no;200;rightarrow;540;true;focus;yes;397303;Chrome;112.0;Windows;10;undefined;undefined;1920 x 1080;1920 x 1080
H031;52;Mannelijk;Rechts;2;31;left;no;200;leftarrow;444;true;focus;yes;398519;Chrome;112.0;Windows;10;undefined;undefined;1920 x 1080;1920 x 1080
H031;52;Mannelijk;Rechts;2;32;left;no;200;leftarrow;531;true;focus;yes;399830;Chrome;112.0;Windows;10;undefined;undefined;1920 x 1080;1920 x 1080
H031;52;Mannelijk;Rechts;2;33;left;no;200;leftarrow;416;true;focus;yes;401014;Chrome;112.0;Windows;10;undefined;undefined;1920 x 1080;1920 x 1080
H031;52;Mannelijk;Rechts;2;34;right;no;200;rightarrow;617;true;focus;yes;402391;Chrome;112.0;Windows;10;undefined;undefined;1920 x 1080;1920 x 1080
H031;52;Mannelijk;Rechts;2;35;right;no;200;rightarrow;444;true;focus;yes;403599;Chrome;112.0;Windows;10;undefined;undefined;1920 x 1080;1920 x 1080
H031;52;Mannelijk;Rechts;2;36;left;no;200;leftarrow;629;true;focus;yes;404991;Chrome;112.0;Windows;10;undefined;undefined;1920 x 1080;1920 x 1080
H031;52;Mannelijk;Rechts;2;37;right;yes;200;rightarrow;378;false;focus;yes;406151;Chrome;112.0;Windows;10;undefined;undefined;1920 x 1080;1920 x 1080
H031;52;Mannelijk;Rechts;2;38;left;yes;150;undefined;null;true;focus;yes;408200;Chrome;112.0;Windows;10;undefined;undefined;1920 x 1080;1920 x 1080
H031;52;Mannelijk;Rechts;2;39;right;no;200;rightarrow;505;true;focus;yes;409487;Chrome;112.0;Windows;10;undefined;undefined;1920 x 1080;1920 x 1080
H031;52;Mannelijk;Rechts;2;40;left;no;200;leftarrow;555;true;focus;yes;410807;Chrome;112.0;Windows;10;undefined;undefined;1920 x 1080;1920 x 1080
H031;52;Mannelijk;Rechts;2;41;left;no;200;leftarrow;513;true;focus;yes;412094;Chrome;112.0;Windows;10;undefined;undefined;1920 x 1080;1920 x 1080
H031;52;Mannelijk;Rechts;2;42;right;no;200;rightarrow;400;true;focus;yes;413254;Chrome;112.0;Windows;10;undefined;undefined;1920 x 1080;1920 x 1080
H031;52;Mannelijk;Rechts;2;43;right;no;200;rightarrow;503;true;focus;yes;414527;Chrome;112.0;Windows;10;undefined;undefined;1920 x 1080;1920 x 1080
H031;52;Mannelijk;Rechts;2;44;left;yes;200;leftarrow;343;false;focus;yes;415638;Chrome;112.0;Windows;10;undefined;undefined;1920 x 1080;1920 x 1080
H031;52;Mannelijk;Rechts;2;45;left;no;150;leftarrow;561;true;focus;yes;416974;Chrome;112.0;Windows;10;undefined;undefined;1920 x 1080;1920 x 1080
H031;52;Mannelijk;Rechts;2;46;left;no;150;leftarrow;575;true;focus;yes;418319;Chrome;112.0;Windows;10;undefined;undefined;1920 x 1080;1920 x 1080
H031;52;Mannelijk;Rechts;2;47;right;yes;150;undefined;null;true;focus;yes;420362;Chrome;112.0;Windows;10;undefined;undefined;1920 x 1080;1920 x 1080
H031;52;Mannelijk;Rechts;2;48;right;no;200;rightarrow;601;true;focus;yes;421734;Chrome;112.0;Windows;10;undefined;undefined;1920 x 1080;1920 x 1080
H031;52;Mannelijk;Rechts;2;49;left;no;200;leftarrow;527;true;focus;yes;423039;Chrome;112.0;Windows;10;undefined;undefined;1920 x 1080;1920 x 1080
H031;52;Mannelijk;Rechts;2;50;right;no;200;rightarrow;421;true;focus;yes;424230;Chrome;112.0;Windows;10;undefined;undefined;1920 x 1080;1920 x 1080
H031;52;Mannelijk;Rechts;2;51;left;yes;200;leftarrow;443;false;focus;yes;425438;Chrome;112.0;Windows;10;undefined;undefined;1920 x 1080;1920 x 1080
H031;52;Mannelijk;Rechts;2;52;right;yes;150;undefined;null;true;focus;yes;427448;Chrome;112.0;Windows;10;undefined;undefined;1920 x 1080;1920 x 1080
H031;52;Mannelijk;Rechts;2;53;right;no;200;rightarrow;296;true;focus;yes;428511;Chrome;112.0;Windows;10;undefined;undefined;1920 x 1080;1920 x 1080
H031;52;Mannelijk;Rechts;2;54;right;no;200;rightarrow;462;true;focus;yes;429742;Chrome;112.0;Windows;10;undefined;undefined;1920 x 1080;1920 x 1080
H031;52;Mannelijk;Rechts;2;55;left;no;200;leftarrow;451;true;focus;yes;430958;Chrome;112.0;Windows;10;undefined;undefined;1920 x 1080;1920 x 1080
H031;52;Mannelijk;Rechts;2;56;left;no;200;leftarrow;554;true;focus;yes;432286;Chrome;112.0;Windows;10;undefined;undefined;1920 x 1080;1920 x 1080
H031;52;Mannelijk;Rechts;2;57;left;no;200;leftarrow;476;true;focus;yes;433519;Chrome;112.0;Windows;10;undefined;undefined;1920 x 1080;1920 x 1080
H031;52;Mannelijk;Rechts;2;58;right;no;200;rightarrow;470;true;focus;yes;434758;Chrome;112.0;Windows;10;undefined;undefined;1920 x 1080;1920 x 1080
H031;52;Mannelijk;Rechts;2;59;right;no;200;rightarrow;488;true;focus;yes;436022;Chrome;112.0;Windows;10;undefined;undefined;1920 x 1080;1920 x 1080
H031;52;Mannelijk;Rechts;2;60;left;no;200;leftarrow;553;true;focus;yes;437350;Chrome;112.0;Windows;10;undefined;undefined;1920 x 1080;1920 x 1080
H031;52;Mannelijk;Rechts;2;61;left;yes;200;undefined;null;true;focus;yes;439372;Chrome;112.0;Windows;10;undefined;undefined;1920 x 1080;1920 x 1080
H031;52;Mannelijk;Rechts;2;62;right;yes;250;rightarrow;416;false;focus;yes;440550;Chrome;112.0;Windows;10;undefined;undefined;1920 x 1080;1920 x 1080
H031;52;Mannelijk;Rechts;2;63;left;no;200;leftarrow;463;true;focus;yes;441782;Chrome;112.0;Windows;10;undefined;undefined;1920 x 1080;1920 x 1080
H031;52;Mannelijk;Rechts;2;64;right;no;200;rightarrow;435;true;focus;yes;442975;Chrome;112.0;Windows;10;undefined;undefined;1920 x 1080;1920 x 1080
H031;52;Mannelijk;Rechts;2;65;left;yes;200;undefined;null;true;focus;yes;444984;Chrome;112.0;Windows;10;undefined;undefined;1920 x 1080;1920 x 1080
H031;52;Mannelijk;Rechts;2;66;left;no;250;leftarrow;508;true;focus;yes;446262;Chrome;112.0;Windows;10;undefined;undefined;1920 x 1080;1920 x 1080
H031;52;Mannelijk;Rechts;2;67;right;no;250;rightarrow;427;true;focus;yes;447462;Chrome;112.0;Windows;10;undefined;undefined;1920 x 1080;1920 x 1080
H031;52;Mannelijk;Rechts;2;68;left;no;250;leftarrow;454;true;focus;yes;448686;Chrome;112.0;Windows;10;undefined;undefined;1920 x 1080;1920 x 1080
H031;52;Mannelijk;Rechts;2;69;right;no;250;rightarrow;432;true;focus;yes;449894;Chrome;112.0;Windows;10;undefined;undefined;1920 x 1080;1920 x 1080
H031;52;Mannelijk;Rechts;2;70;right;yes;250;rightarrow;462;false;focus;yes;451126;Chrome;112.0;Windows;10;undefined;undefined;1920 x 1080;1920 x 1080
H031;52;Mannelijk;Rechts;2;71;right;no;200;rightarrow;639;true;focus;yes;452526;Chrome;112.0;Windows;10;undefined;undefined;1920 x 1080;1920 x 1080
H031;52;Mannelijk;Rechts;2;72;left;no;200;leftarrow;413;true;focus;yes;453711;Chrome;112.0;Windows;10;undefined;undefined;1920 x 1080;1920 x 1080
H031;52;Mannelijk;Rechts;2;73;right;no;200;rightarrow;463;true;focus;yes;454942;Chrome;112.0;Windows;10;undefined;undefined;1920 x 1080;1920 x 1080
H031;52;Mannelijk;Rechts;2;74;left;yes;200;undefined;null;true;focus;yes;456967;Chrome;112.0;Windows;10;undefined;undefined;1920 x 1080;1920 x 1080
H031;52;Mannelijk;Rechts;2;75;right;no;250;rightarrow;503;true;focus;yes;458230;Chrome;112.0;Windows;10;undefined;undefined;1920 x 1080;1920 x 1080
H031;52;Mannelijk;Rechts;2;76;right;yes;250;rightarrow;441;false;focus;yes;459438;Chrome;112.0;Windows;10;undefined;undefined;1920 x 1080;1920 x 1080
H031;52;Mannelijk;Rechts;2;77;right;no;200;rightarrow;836;true;focus;yes;461046;Chrome;112.0;Windows;10;undefined;undefined;1920 x 1080;1920 x 1080
H031;52;Mannelijk;Rechts;2;78;left;no;200;leftarrow;444;true;focus;yes;462262;Chrome;112.0;Windows;10;undefined;undefined;1920 x 1080;1920 x 1080
H031;52;Mannelijk;Rechts;2;79;left;no;200;leftarrow;494;true;focus;yes;463534;Chrome;112.0;Windows;10;undefined;undefined;1920 x 1080;1920 x 1080
H031;52;Mannelijk;Rechts;2;80;left;no;200;leftarrow;431;true;focus;yes;464726;Chrome;112.0;Windows;10;undefined;undefined;1920 x 1080;1920 x 1080
H031;52;Mannelijk;Rechts;2;81;left;no;200;leftarrow;467;true;focus;yes;465958;Chrome;112.0;Windows;10;undefined;undefined;1920 x 1080;1920 x 1080
H031;52;Mannelijk;Rechts;2;82;left;yes;200;leftarrow;442;false;focus;yes;467174;Chrome;112.0;Windows;10;undefined;undefined;1920 x 1080;1920 x 1080
H031;52;Mannelijk;Rechts;2;83;left;no;150;leftarrow;507;true;focus;yes;468454;Chrome;112.0;Windows;10;undefined;undefined;1920 x 1080;1920 x 1080
H031;52;Mannelijk;Rechts;2;84;right;no;150;rightarrow;456;true;focus;yes;469678;Chrome;112.0;Windows;10;undefined;undefined;1920 x 1080;1920 x 1080
H031;52;Mannelijk;Rechts;2;85;left;no;150;leftarrow;559;true;focus;yes;471013;Chrome;112.0;Windows;10;undefined;undefined;1920 x 1080;1920 x 1080
H031;52;Mannelijk;Rechts;2;86;right;yes;150;undefined;null;true;focus;yes;473025;Chrome;112.0;Windows;10;undefined;undefined;1920 x 1080;1920 x 1080
H031;52;Mannelijk;Rechts;2;87;right;no;200;rightarrow;469;true;focus;yes;474262;Chrome;112.0;Windows;10;undefined;undefined;1920 x 1080;1920 x 1080
H031;52;Mannelijk;Rechts;2;88;right;no;200;rightarrow;468;true;focus;yes;475486;Chrome;112.0;Windows;10;undefined;undefined;1920 x 1080;1920 x 1080
H031;52;Mannelijk;Rechts;2;89;right;no;200;rightarrow;443;true;focus;yes;476694;Chrome;112.0;Windows;10;undefined;undefined;1920 x 1080;1920 x 1080
H031;52;Mannelijk;Rechts;2;90;right;yes;200;rightarrow;384;false;focus;yes;477853;Chrome;112.0;Windows;10;undefined;undefined;1920 x 1080;1920 x 1080
H031;52;Mannelijk;Rechts;2;91;left;no;150;leftarrow;393;true;focus;yes;479014;Chrome;112.0;Windows;10;undefined;undefined;1920 x 1080;1920 x 1080
H031;52;Mannelijk;Rechts;2;92;right;no;150;rightarrow;461;true;focus;yes;480245;Chrome;112.0;Windows;10;undefined;undefined;1920 x 1080;1920 x 1080
H031;52;Mannelijk;Rechts;2;93;left;yes;150;undefined;null;true;focus;yes;482272;Chrome;112.0;Windows;10;undefined;undefined;1920 x 1080;1920 x 1080
H031;52;Mannelijk;Rechts;2;94;right;no;200;rightarrow;388;true;focus;yes;483438;Chrome;112.0;Windows;10;undefined;undefined;1920 x 1080;1920 x 1080
H031;52;Mannelijk;Rechts;2;95;left;no;200;leftarrow;436;true;focus;yes;484630;Chrome;112.0;Windows;10;undefined;undefined;1920 x 1080;1920 x 1080
H031;52;Mannelijk;Rechts;2;96;left;no;200;leftarrow;471;true;focus;yes;485879;Chrome;112.0;Windows;10;undefined;undefined;1920 x 1080;1920 x 1080
H031;52;Mannelijk;Rechts;2;97;left;no;200;leftarrow;447;true;focus;yes;487094;Chrome;112.0;Windows;10;undefined;undefined;1920 x 1080;1920 x 1080
H031;52;Mannelijk;Rechts;2;98;right;no;200;rightarrow;461;true;focus;yes;488326;Chrome;112.0;Windows;10;undefined;undefined;1920 x 1080;1920 x 1080
H031;52;Mannelijk;Rechts;2;99;right;no;200;rightarrow;602;true;focus;yes;489694;Chrome;112.0;Windows;10;undefined;undefined;1920 x 1080;1920 x 1080
H031;52;Mannelijk;Rechts;2;100;left;no;200;leftarrow;519;true;focus;yes;490982;Chrome;112.0;Windows;10;undefined;undefined;1920 x 1080;1920 x 1080
H031;52;Mannelijk;Rechts;2;101;left;yes;200;undefined;null;true;focus;yes;493024;Chrome;112.0;Windows;10;undefined;undefined;1920 x 1080;1920 x 1080
H031;52;Mannelijk;Rechts;2;102;right;yes;250;rightarrow;555;false;focus;yes;494343;Chrome;112.0;Windows;10;undefined;undefined;1920 x 1080;1920 x 1080
H031;52;Mannelijk;Rechts;2;103;left;no;200;leftarrow;447;true;focus;yes;495559;Chrome;112.0;Windows;10;undefined;undefined;1920 x 1080;1920 x 1080
H031;52;Mannelijk;Rechts;2;104;right;no;200;rightarrow;382;true;focus;yes;496710;Chrome;112.0;Windows;10;undefined;undefined;1920 x 1080;1920 x 1080
H031;52;Mannelijk;Rechts;2;105;right;yes;200;leftarrow;433;false;focus;yes;497926;Chrome;112.0;Windows;10;undefined;undefined;1920 x 1080;1920 x 1080
H031;52;Mannelijk;Rechts;2;106;left;no;150;leftarrow;657;true;focus;yes;499359;Chrome;112.0;Windows;10;undefined;undefined;1920 x 1080;1920 x 1080
H031;52;Mannelijk;Rechts;2;107;right;no;150;rightarrow;408;true;focus;yes;500550;Chrome;112.0;Windows;10;undefined;undefined;1920 x 1080;1920 x 1080
H031;52;Mannelijk;Rechts;2;108;right;no;150;rightarrow;500;true;focus;yes;501823;Chrome;112.0;Windows;10;undefined;undefined;1920 x 1080;1920 x 1080
H031;52;Mannelijk;Rechts;2;109;right;no;150;rightarrow;463;true;focus;yes;503055;Chrome;112.0;Windows;10;undefined;undefined;1920 x 1080;1920 x 1080
H031;52;Mannelijk;Rechts;2;110;left;no;150;leftarrow;507;true;focus;yes;504335;Chrome;112.0;Windows;10;undefined;undefined;1920 x 1080;1920 x 1080
H031;52;Mannelijk;Rechts;2;111;left;no;150;leftarrow;476;true;focus;yes;505575;Chrome;112.0;Windows;10;undefined;undefined;1920 x 1080;1920 x 1080
H031;52;Mannelijk;Rechts;2;112;left;yes;150;undefined;null;true;focus;yes;507602;Chrome;112.0;Windows;10;undefined;undefined;1920 x 1080;1920 x 1080
H031;52;Mannelijk;Rechts;2;113;left;no;200;leftarrow;475;true;focus;yes;508847;Chrome;112.0;Windows;10;undefined;undefined;1920 x 1080;1920 x 1080
H031;52;Mannelijk;Rechts;2;114;right;no;200;rightarrow;384;true;focus;yes;510006;Chrome;112.0;Windows;10;undefined;undefined;1920 x 1080;1920 x 1080
H031;52;Mannelijk;Rechts;2;115;left;no;200;leftarrow;413;true;focus;yes;511214;Chrome;112.0;Windows;10;undefined;undefined;1920 x 1080;1920 x 1080
H031;52;Mannelijk;Rechts;2;116;right;yes;200;rightarrow;456;false;focus;yes;512439;Chrome;112.0;Windows;10;undefined;undefined;1920 x 1080;1920 x 1080
H031;52;Mannelijk;Rechts;2;117;left;no;150;leftarrow;420;true;focus;yes;513623;Chrome;112.0;Windows;10;undefined;undefined;1920 x 1080;1920 x 1080
H031;52;Mannelijk;Rechts;2;118;right;no;150;rightarrow;307;true;focus;yes;514702;Chrome;112.0;Windows;10;undefined;undefined;1920 x 1080;1920 x 1080
H031;52;Mannelijk;Rechts;2;119;left;yes;150;leftarrow;323;false;focus;yes;515807;Chrome;112.0;Windows;10;undefined;undefined;1920 x 1080;1920 x 1080
H031;52;Mannelijk;Rechts;2;120;right;no;100;rightarrow;583;true;focus;yes;517166;Chrome;112.0;Windows;10;undefined;undefined;1920 x 1080;1920 x 1080
H031;52;Mannelijk;Rechts;2;121;left;no;100;leftarrow;465;true;focus;yes;518399;Chrome;112.0;Windows;10;undefined;undefined;1920 x 1080;1920 x 1080
H031;52;Mannelijk;Rechts;2;122;right;yes;100;undefined;null;true;focus;yes;520426;Chrome;112.0;Windows;10;undefined;undefined;1920 x 1080;1920 x 1080
H031;52;Mannelijk;Rechts;2;123;left;no;150;leftarrow;474;true;focus;yes;521670;Chrome;112.0;Windows;10;undefined;undefined;1920 x 1080;1920 x 1080
H031;52;Mannelijk;Rechts;2;124;left;yes;150;undefined;null;true;focus;yes;523711;Chrome;112.0;Windows;10;undefined;undefined;1920 x 1080;1920 x 1080
H031;52;Mannelijk;Rechts;2;125;left;no;200;leftarrow;568;true;focus;yes;525053;Chrome;112.0;Windows;10;undefined;undefined;1920 x 1080;1920 x 1080
H031;52;Mannelijk;Rechts;2;126;right;no;200;rightarrow;422;true;focus;yes;526239;Chrome;112.0;Windows;10;undefined;undefined;1920 x 1080;1920 x 1080
H031;52;Mannelijk;Rechts;2;127;right;no;200;rightarrow;338;true;focus;yes;527359;Chrome;112.0;Windows;10;undefined;undefined;1920 x 1080;1920 x 1080
H031;52;Mannelijk;Rechts;2;128;right;no;200;rightarrow;486;true;focus;yes;528607;Chrome;112.0;Windows;10;undefined;undefined;1920 x 1080;1920 x 1080
H031;52;Mannelijk;Rechts;3;1;left;no;200;leftarrow;434;true;focus;yes;547286;Chrome;112.0;Windows;10;undefined;undefined;1920 x 1080;1920 x 1080
H031;52;Mannelijk;Rechts;3;2;left;no;200;leftarrow;381;true;focus;yes;548438;Chrome;112.0;Windows;10;undefined;undefined;1920 x 1080;1920 x 1080
H031;52;Mannelijk;Rechts;3;3;right;no;200;rightarrow;511;true;focus;yes;549734;Chrome;112.0;Windows;10;undefined;undefined;1920 x 1080;1920 x 1080
H031;52;Mannelijk;Rechts;3;4;left;no;200;leftarrow;329;true;focus;yes;550830;Chrome;112.0;Windows;10;undefined;undefined;1920 x 1080;1920 x 1080
H031;52;Mannelijk;Rechts;3;5;right;no;200;rightarrow;485;true;focus;yes;552099;Chrome;112.0;Windows;10;undefined;undefined;1920 x 1080;1920 x 1080
H031;52;Mannelijk;Rechts;3;6;right;no;200;rightarrow;530;true;focus;yes;553411;Chrome;112.0;Windows;10;undefined;undefined;1920 x 1080;1920 x 1080
H031;52;Mannelijk;Rechts;3;7;right;yes;200;rightarrow;439;false;focus;yes;554619;Chrome;112.0;Windows;10;undefined;undefined;1920 x 1080;1920 x 1080
H031;52;Mannelijk;Rechts;3;8;left;yes;150;undefined;null;true;focus;yes;556640;Chrome;112.0;Windows;10;undefined;undefined;1920 x 1080;1920 x 1080
H031;52;Mannelijk;Rechts;3;9;right;yes;200;undefined;null;true;focus;yes;558678;Chrome;112.0;Windows;10;undefined;undefined;1920 x 1080;1920 x 1080
H031;52;Mannelijk;Rechts;3;10;left;no;250;leftarrow;318;true;focus;yes;559780;Chrome;112.0;Windows;10;undefined;undefined;1920 x 1080;1920 x 1080
H031;52;Mannelijk;Rechts;3;11;left;no;250;rightarrow;332;false;focus;yes;560892;Chrome;112.0;Windows;10;undefined;undefined;1920 x 1080;1920 x 1080
H031;52;Mannelijk;Rechts;3;12;left;yes;250;leftarrow;447;false;focus;yes;562123;Chrome;112.0;Windows;10;undefined;undefined;1920 x 1080;1920 x 1080
H031;52;Mannelijk;Rechts;3;13;right;no;200;rightarrow;458;true;focus;yes;563340;Chrome;112.0;Windows;10;undefined;undefined;1920 x 1080;1920 x 1080
H031;52;Mannelijk;Rechts;3;14;left;no;200;leftarrow;488;true;focus;yes;564596;Chrome;112.0;Windows;10;undefined;undefined;1920 x 1080;1920 x 1080
H031;52;Mannelijk;Rechts;3;15;right;no;200;rightarrow;415;true;focus;yes;565804;Chrome;112.0;Windows;10;undefined;undefined;1920 x 1080;1920 x 1080
H031;52;Mannelijk;Rechts;3;16;right;no;200;rightarrow;457;true;focus;yes;567020;Chrome;112.0;Windows;10;undefined;undefined;1920 x 1080;1920 x 1080
H031;52;Mannelijk;Rechts;3;17;right;no;200;rightarrow;501;true;focus;yes;568292;Chrome;112.0;Windows;10;undefined;undefined;1920 x 1080;1920 x 1080
H031;52;Mannelijk;Rechts;3;18;right;yes;200;rightarrow;394;false;focus;yes;569468;Chrome;112.0;Windows;10;undefined;undefined;1920 x 1080;1920 x 1080
H031;52;Mannelijk;Rechts;3;19;left;no;150;leftarrow;443;true;focus;yes;570692;Chrome;112.0;Windows;10;undefined;undefined;1920 x 1080;1920 x 1080
H031;52;Mannelijk;Rechts;3;20;right;no;150;rightarrow;402;true;focus;yes;571876;Chrome;112.0;Windows;10;undefined;undefined;1920 x 1080;1920 x 1080
H031;52;Mannelijk;Rechts;3;21;right;no;150;rightarrow;428;true;focus;yes;573083;Chrome;112.0;Windows;10;undefined;undefined;1920 x 1080;1920 x 1080
H031;52;Mannelijk;Rechts;3;22;left;no;150;leftarrow;478;true;focus;yes;574348;Chrome;112.0;Windows;10;undefined;undefined;1920 x 1080;1920 x 1080
H031;52;Mannelijk;Rechts;3;23;left;yes;150;undefined;null;true;focus;yes;576376;Chrome;112.0;Windows;10;undefined;undefined;1920 x 1080;1920 x 1080
H031;52;Mannelijk;Rechts;3;24;left;no;200;leftarrow;467;true;focus;yes;577612;Chrome;112.0;Windows;10;undefined;undefined;1920 x 1080;1920 x 1080
H031;52;Mannelijk;Rechts;3;25;right;no;200;rightarrow;546;true;focus;yes;578932;Chrome;112.0;Windows;10;undefined;undefined;1920 x 1080;1920 x 1080
H031;52;Mannelijk;Rechts;3;26;left;no;200;leftarrow;456;true;focus;yes;580156;Chrome;112.0;Windows;10;undefined;undefined;1920 x 1080;1920 x 1080
H031;52;Mannelijk;Rechts;3;27;left;no;200;leftarrow;608;true;focus;yes;581531;Chrome;112.0;Windows;10;undefined;undefined;1920 x 1080;1920 x 1080
H031;52;Mannelijk;Rechts;3;28;left;no;200;leftarrow;336;true;focus;yes;582636;Chrome;112.0;Windows;10;undefined;undefined;1920 x 1080;1920 x 1080
H031;52;Mannelijk;Rechts;3;29;right;no;200;rightarrow;526;true;focus;yes;583932;Chrome;112.0;Windows;10;undefined;undefined;1920 x 1080;1920 x 1080
H031;52;Mannelijk;Rechts;3;30;right;yes;200;rightarrow;456;false;focus;yes;585156;Chrome;112.0;Windows;10;undefined;undefined;1920 x 1080;1920 x 1080
H031;52;Mannelijk;Rechts;3;31;left;yes;150;undefined;null;true;focus;yes;587167;Chrome;112.0;Windows;10;undefined;undefined;1920 x 1080;1920 x 1080
H031;52;Mannelijk;Rechts;3;32;right;no;200;rightarrow;439;true;focus;yes;588372;Chrome;112.0;Windows;10;undefined;undefined;1920 x 1080;1920 x 1080
H031;52;Mannelijk;Rechts;3;33;left;yes;200;leftarrow;470;false;focus;yes;589626;Chrome;112.0;Windows;10;undefined;undefined;1920 x 1080;1920 x 1080
H031;52;Mannelijk;Rechts;3;34;right;yes;150;undefined;null;true;focus;yes;591665;Chrome;112.0;Windows;10;undefined;undefined;1920 x 1080;1920 x 1080
H031;52;Mannelijk;Rechts;3;35;left;no;200;leftarrow;465;true;focus;yes;592908;Chrome;112.0;Windows;10;undefined;undefined;1920 x 1080;1920 x 1080
H031;52;Mannelijk;Rechts;3;36;left;no;200;leftarrow;401;true;focus;yes;594083;Chrome;112.0;Windows;10;undefined;undefined;1920 x 1080;1920 x 1080
H031;52;Mannelijk;Rechts;3;37;right;no;200;rightarrow;443;true;focus;yes;595291;Chrome;112.0;Windows;10;undefined;undefined;1920 x 1080;1920 x 1080
H031;52;Mannelijk;Rechts;3;38;right;no;200;rightarrow;370;true;focus;yes;596420;Chrome;112.0;Windows;10;undefined;undefined;1920 x 1080;1920 x 1080
H031;52;Mannelijk;Rechts;3;39;right;no;200;rightarrow;413;true;focus;yes;597604;Chrome;112.0;Windows;10;undefined;undefined;1920 x 1080;1920 x 1080
H031;52;Mannelijk;Rechts;3;40;left;no;200;rightarrow;380;false;focus;yes;598748;Chrome;112.0;Windows;10;undefined;undefined;1920 x 1080;1920 x 1080
H031;52;Mannelijk;Rechts;3;41;left;no;200;leftarrow;364;true;focus;yes;599892;Chrome;112.0;Windows;10;undefined;undefined;1920 x 1080;1920 x 1080
H031;52;Mannelijk;Rechts;3;42;left;no;200;leftarrow;383;true;focus;yes;601044;Chrome;112.0;Windows;10;undefined;undefined;1920 x 1080;1920 x 1080
H031;52;Mannelijk;Rechts;3;43;right;no;200;rightarrow;644;true;focus;yes;602452;Chrome;112.0;Windows;10;undefined;undefined;1920 x 1080;1920 x 1080
H031;52;Mannelijk;Rechts;3;44;right;yes;200;rightarrow;543;false;focus;yes;603756;Chrome;112.0;Windows;10;undefined;undefined;1920 x 1080;1920 x 1080
H031;52;Mannelijk;Rechts;3;45;right;no;150;rightarrow;550;true;focus;yes;605068;Chrome;112.0;Windows;10;undefined;undefined;1920 x 1080;1920 x 1080
H031;52;Mannelijk;Rechts;3;46;left;no;150;leftarrow;448;true;focus;yes;606284;Chrome;112.0;Windows;10;undefined;undefined;1920 x 1080;1920 x 1080
H031;52;Mannelijk;Rechts;3;47;right;no;150;leftarrow;380;false;focus;yes;607436;Chrome;112.0;Windows;10;undefined;undefined;1920 x 1080;1920 x 1080
H031;52;Mannelijk;Rechts;3;48;left;yes;150;undefined;null;true;focus;yes;609462;Chrome;112.0;Windows;10;undefined;undefined;1920 x 1080;1920 x 1080
H031;52;Mannelijk;Rechts;3;49;left;no;200;leftarrow;396;true;focus;yes;610636;Chrome;112.0;Windows;10;undefined;undefined;1920 x 1080;1920 x 1080
H031;52;Mannelijk;Rechts;3;50;right;no;200;rightarrow;382;true;focus;yes;611804;Chrome;112.0;Windows;10;undefined;undefined;1920 x 1080;1920 x 1080
H031;52;Mannelijk;Rechts;3;51;right;no;200;rightarrow;579;true;focus;yes;613151;Chrome;112.0;Windows;10;undefined;undefined;1920 x 1080;1920 x 1080
H031;52;Mannelijk;Rechts;3;52;left;no;200;leftarrow;428;true;focus;yes;614350;Chrome;112.0;Windows;10;undefined;undefined;1920 x 1080;1920 x 1080
H031;52;Mannelijk;Rechts;3;53;right;no;200;rightarrow;475;true;focus;yes;615599;Chrome;112.0;Windows;10;undefined;undefined;1920 x 1080;1920 x 1080
H031;52;Mannelijk;Rechts;3;54;left;yes;200;leftarrow;436;false;focus;yes;616799;Chrome;112.0;Windows;10;undefined;undefined;1920 x 1080;1920 x 1080
H031;52;Mannelijk;Rechts;3;55;left;no;150;leftarrow;451;true;focus;yes;618023;Chrome;112.0;Windows;10;undefined;undefined;1920 x 1080;1920 x 1080
H031;52;Mannelijk;Rechts;3;56;right;yes;150;undefined;null;true;focus;yes;620045;Chrome;112.0;Windows;10;undefined;undefined;1920 x 1080;1920 x 1080
H031;52;Mannelijk;Rechts;3;57;left;no;200;leftarrow;359;true;focus;yes;621183;Chrome;112.0;Windows;10;undefined;undefined;1920 x 1080;1920 x 1080
H031;52;Mannelijk;Rechts;3;58;left;no;200;leftarrow;398;true;focus;yes;622343;Chrome;112.0;Windows;10;undefined;undefined;1920 x 1080;1920 x 1080
H031;52;Mannelijk;Rechts;3;59;right;no;200;rightarrow;457;true;focus;yes;623575;Chrome;112.0;Windows;10;undefined;undefined;1920 x 1080;1920 x 1080
H031;52;Mannelijk;Rechts;3;60;left;yes;200;leftarrow;393;false;focus;yes;624735;Chrome;112.0;Windows;10;undefined;undefined;1920 x 1080;1920 x 1080
H031;52;Mannelijk;Rechts;3;61;right;no;150;rightarrow;458;true;focus;yes;625975;Chrome;112.0;Windows;10;undefined;undefined;1920 x 1080;1920 x 1080
H031;52;Mannelijk;Rechts;3;62;right;yes;150;rightarrow;445;false;focus;yes;627199;Chrome;112.0;Windows;10;undefined;undefined;1920 x 1080;1920 x 1080
H031;52;Mannelijk;Rechts;3;63;right;no;100;rightarrow;446;true;focus;yes;628422;Chrome;112.0;Windows;10;undefined;undefined;1920 x 1080;1920 x 1080
H031;52;Mannelijk;Rechts;3;64;left;no;100;leftarrow;407;true;focus;yes;629607;Chrome;112.0;Windows;10;undefined;undefined;1920 x 1080;1920 x 1080
H031;52;Mannelijk;Rechts;3;65;right;no;100;rightarrow;445;true;focus;yes;630831;Chrome;112.0;Windows;10;undefined;undefined;1920 x 1080;1920 x 1080
H031;52;Mannelijk;Rechts;3;66;right;yes;100;rightarrow;369;false;focus;yes;631999;Chrome;112.0;Windows;10;undefined;undefined;1920 x 1080;1920 x 1080
H031;52;Mannelijk;Rechts;3;67;left;yes;50;leftarrow;329;false;focus;yes;633102;Chrome;112.0;Windows;10;undefined;undefined;1920 x 1080;1920 x 1080
H031;52;Mannelijk;Rechts;3;68;left;no;50;leftarrow;552;true;focus;yes;634423;Chrome;112.0;Windows;10;undefined;undefined;1920 x 1080;1920 x 1080
H031;52;Mannelijk;Rechts;3;69;right;no;50;rightarrow;459;true;focus;yes;635655;Chrome;112.0;Windows;10;undefined;undefined;1920 x 1080;1920 x 1080
H031;52;Mannelijk;Rechts;3;70;left;no;50;leftarrow;516;true;focus;yes;636942;Chrome;112.0;Windows;10;undefined;undefined;1920 x 1080;1920 x 1080
H031;52;Mannelijk;Rechts;3;71;right;no;50;rightarrow;461;true;focus;yes;638190;Chrome;112.0;Windows;10;undefined;undefined;1920 x 1080;1920 x 1080
H031;52;Mannelijk;Rechts;3;72;left;no;50;leftarrow;692;true;focus;yes;639662;Chrome;112.0;Windows;10;undefined;undefined;1920 x 1080;1920 x 1080
H031;52;Mannelijk;Rechts;3;73;left;no;50;leftarrow;459;true;focus;yes;640887;Chrome;112.0;Windows;10;undefined;undefined;1920 x 1080;1920 x 1080
H031;52;Mannelijk;Rechts;3;74;left;no;50;leftarrow;459;true;focus;yes;642119;Chrome;112.0;Windows;10;undefined;undefined;1920 x 1080;1920 x 1080
H031;52;Mannelijk;Rechts;3;75;right;no;50;rightarrow;595;true;focus;yes;643494;Chrome;112.0;Windows;10;undefined;undefined;1920 x 1080;1920 x 1080
H031;52;Mannelijk;Rechts;3;76;right;no;50;rightarrow;441;true;focus;yes;644703;Chrome;112.0;Windows;10;undefined;undefined;1920 x 1080;1920 x 1080
H031;52;Mannelijk;Rechts;3;77;right;yes;50;undefined;null;true;focus;yes;646724;Chrome;112.0;Windows;10;undefined;undefined;1920 x 1080;1920 x 1080
H031;52;Mannelijk;Rechts;3;78;left;no;100;leftarrow;426;true;focus;yes;647934;Chrome;112.0;Windows;10;undefined;undefined;1920 x 1080;1920 x 1080
H031;52;Mannelijk;Rechts;3;79;left;yes;100;undefined;null;true;focus;yes;649952;Chrome;112.0;Windows;10;undefined;undefined;1920 x 1080;1920 x 1080
H031;52;Mannelijk;Rechts;3;80;right;no;150;rightarrow;477;true;focus;yes;651199;Chrome;112.0;Windows;10;undefined;undefined;1920 x 1080;1920 x 1080
H031;52;Mannelijk;Rechts;3;81;right;no;150;rightarrow;698;true;focus;yes;652671;Chrome;112.0;Windows;10;undefined;undefined;1920 x 1080;1920 x 1080
H031;52;Mannelijk;Rechts;3;82;left;no;150;leftarrow;505;true;focus;yes;653951;Chrome;112.0;Windows;10;undefined;undefined;1920 x 1080;1920 x 1080
H031;52;Mannelijk;Rechts;3;83;right;no;150;rightarrow;589;true;focus;yes;655310;Chrome;112.0;Windows;10;undefined;undefined;1920 x 1080;1920 x 1080
H031;52;Mannelijk;Rechts;3;84;left;yes;150;undefined;null;true;focus;yes;657351;Chrome;112.0;Windows;10;undefined;undefined;1920 x 1080;1920 x 1080
H031;52;Mannelijk;Rechts;3;85;right;no;200;rightarrow;481;true;focus;yes;658615;Chrome;112.0;Windows;10;undefined;undefined;1920 x 1080;1920 x 1080
H031;52;Mannelijk;Rechts;3;86;left;no;200;leftarrow;396;true;focus;yes;659783;Chrome;112.0;Windows;10;undefined;undefined;1920 x 1080;1920 x 1080
H031;52;Mannelijk;Rechts;3;87;left;no;200;leftarrow;407;true;focus;yes;660959;Chrome;112.0;Windows;10;undefined;undefined;1920 x 1080;1920 x 1080
H031;52;Mannelijk;Rechts;3;88;right;yes;200;rightarrow;376;false;focus;yes;662110;Chrome;112.0;Windows;10;undefined;undefined;1920 x 1080;1920 x 1080
H031;52;Mannelijk;Rechts;3;89;right;no;150;rightarrow;545;true;focus;yes;663430;Chrome;112.0;Windows;10;undefined;undefined;1920 x 1080;1920 x 1080
H031;52;Mannelijk;Rechts;3;90;right;no;150;rightarrow;527;true;focus;yes;664726;Chrome;112.0;Windows;10;undefined;undefined;1920 x 1080;1920 x 1080
H031;52;Mannelijk;Rechts;3;91;right;no;150;rightarrow;434;true;focus;yes;665935;Chrome;112.0;Windows;10;undefined;undefined;1920 x 1080;1920 x 1080
H031;52;Mannelijk;Rechts;3;92;left;no;150;leftarrow;499;true;focus;yes;667206;Chrome;112.0;Windows;10;undefined;undefined;1920 x 1080;1920 x 1080
H031;52;Mannelijk;Rechts;3;93;left;no;150;leftarrow;497;true;focus;yes;668479;Chrome;112.0;Windows;10;undefined;undefined;1920 x 1080;1920 x 1080
H031;52;Mannelijk;Rechts;3;94;left;yes;150;undefined;null;true;focus;yes;670499;Chrome;112.0;Windows;10;undefined;undefined;1920 x 1080;1920 x 1080
H031;52;Mannelijk;Rechts;3;95;left;no;200;leftarrow;438;true;focus;yes;671718;Chrome;112.0;Windows;10;undefined;undefined;1920 x 1080;1920 x 1080
H031;52;Mannelijk;Rechts;3;96;right;yes;200;rightarrow;419;false;focus;yes;672910;Chrome;112.0;Windows;10;undefined;undefined;1920 x 1080;1920 x 1080
H031;52;Mannelijk;Rechts;3;97;left;yes;150;leftarrow;444;false;focus;yes;674118;Chrome;112.0;Windows;10;undefined;undefined;1920 x 1080;1920 x 1080
H031;52;Mannelijk;Rechts;3;98;left;no;100;leftarrow;600;true;focus;yes;675478;Chrome;112.0;Windows;10;undefined;undefined;1920 x 1080;1920 x 1080
H031;52;Mannelijk;Rechts;3;99;right;yes;100;undefined;null;true;focus;yes;677507;Chrome;112.0;Windows;10;undefined;undefined;1920 x 1080;1920 x 1080
H031;52;Mannelijk;Rechts;3;100;left;no;150;leftarrow;434;true;focus;yes;678709;Chrome;112.0;Windows;10;undefined;undefined;1920 x 1080;1920 x 1080
H031;52;Mannelijk;Rechts;3;101;right;no;150;rightarrow;614;true;focus;yes;680103;Chrome;112.0;Windows;10;undefined;undefined;1920 x 1080;1920 x 1080
H031;52;Mannelijk;Rechts;3;102;right;no;150;rightarrow;455;true;focus;yes;681327;Chrome;112.0;Windows;10;undefined;undefined;1920 x 1080;1920 x 1080
H031;52;Mannelijk;Rechts;3;103;right;no;150;rightarrow;395;true;focus;yes;682495;Chrome;112.0;Windows;10;undefined;undefined;1920 x 1080;1920 x 1080
H031;52;Mannelijk;Rechts;3;104;left;no;150;leftarrow;593;true;focus;yes;683855;Chrome;112.0;Windows;10;undefined;undefined;1920 x 1080;1920 x 1080
H031;52;Mannelijk;Rechts;3;105;right;no;150;rightarrow;426;true;focus;yes;685063;Chrome;112.0;Windows;10;undefined;undefined;1920 x 1080;1920 x 1080
H031;52;Mannelijk;Rechts;3;106;right;no;150;rightarrow;417;true;focus;yes;686246;Chrome;112.0;Windows;10;undefined;undefined;1920 x 1080;1920 x 1080
H031;52;Mannelijk;Rechts;3;107;left;no;150;leftarrow;526;true;focus;yes;687534;Chrome;112.0;Windows;10;undefined;undefined;1920 x 1080;1920 x 1080
H031;52;Mannelijk;Rechts;3;108;right;no;150;rightarrow;410;true;focus;yes;688717;Chrome;112.0;Windows;10;undefined;undefined;1920 x 1080;1920 x 1080
H031;52;Mannelijk;Rechts;3;109;left;yes;150;undefined;null;true;focus;yes;690750;Chrome;112.0;Windows;10;undefined;undefined;1920 x 1080;1920 x 1080
H031;52;Mannelijk;Rechts;3;110;left;no;200;leftarrow;544;true;focus;yes;692062;Chrome;112.0;Windows;10;undefined;undefined;1920 x 1080;1920 x 1080
H031;52;Mannelijk;Rechts;3;111;left;no;200;leftarrow;408;true;focus;yes;693262;Chrome;112.0;Windows;10;undefined;undefined;1920 x 1080;1920 x 1080
H031;52;Mannelijk;Rechts;3;112;right;yes;200;undefined;null;true;focus;yes;695280;Chrome;112.0;Windows;10;undefined;undefined;1920 x 1080;1920 x 1080
H031;52;Mannelijk;Rechts;3;113;left;yes;250;leftarrow;376;false;focus;yes;696430;Chrome;112.0;Windows;10;undefined;undefined;1920 x 1080;1920 x 1080
H031;52;Mannelijk;Rechts;3;114;left;no;200;leftarrow;851;true;focus;yes;698054;Chrome;112.0;Windows;10;undefined;undefined;1920 x 1080;1920 x 1080
H031;52;Mannelijk;Rechts;3;115;left;no;200;leftarrow;549;true;focus;yes;699358;Chrome;112.0;Windows;10;undefined;undefined;1920 x 1080;1920 x 1080
H031;52;Mannelijk;Rechts;3;116;right;no;200;rightarrow;402;true;focus;yes;700526;Chrome;112.0;Windows;10;undefined;undefined;1920 x 1080;1920 x 1080
H031;52;Mannelijk;Rechts;3;117;right;no;200;rightarrow;474;true;focus;yes;701774;Chrome;112.0;Windows;10;undefined;undefined;1920 x 1080;1920 x 1080
H031;52;Mannelijk;Rechts;3;118;left;no;200;leftarrow;406;true;focus;yes;702950;Chrome;112.0;Windows;10;undefined;undefined;1920 x 1080;1920 x 1080
H031;52;Mannelijk;Rechts;3;119;right;no;200;rightarrow;350;true;focus;yes;704087;Chrome;112.0;Windows;10;undefined;undefined;1920 x 1080;1920 x 1080
H031;52;Mannelijk;Rechts;3;120;right;yes;200;undefined;null;true;focus;yes;706108;Chrome;112.0;Windows;10;undefined;undefined;1920 x 1080;1920 x 1080
H031;52;Mannelijk;Rechts;3;121;right;yes;250;leftarrow;306;false;focus;yes;707182;Chrome;112.0;Windows;10;undefined;undefined;1920 x 1080;1920 x 1080
H031;52;Mannelijk;Rechts;3;122;left;no;200;leftarrow;397;true;focus;yes;708358;Chrome;112.0;Windows;10;undefined;undefined;1920 x 1080;1920 x 1080
H031;52;Mannelijk;Rechts;3;123;left;no;200;leftarrow;589;true;focus;yes;709725;Chrome;112.0;Windows;10;undefined;undefined;1920 x 1080;1920 x 1080
H031;52;Mannelijk;Rechts;3;124;left;no;200;leftarrow;518;true;focus;yes;711015;Chrome;112.0;Windows;10;undefined;undefined;1920 x 1080;1920 x 1080
H031;52;Mannelijk;Rechts;3;125;right;no;200;rightarrow;624;true;focus;yes;712413;Chrome;112.0;Windows;10;undefined;undefined;1920 x 1080;1920 x 1080
H031;52;Mannelijk;Rechts;3;126;left;yes;200;leftarrow;474;false;focus;yes;713670;Chrome;112.0;Windows;10;undefined;undefined;1920 x 1080;1920 x 1080
H031;52;Mannelijk;Rechts;3;127;right;no;150;rightarrow;438;true;focus;yes;714871;Chrome;112.0;Windows;10;undefined;undefined;1920 x 1080;1920 x 1080
H031;52;Mannelijk;Rechts;3;128;right;no;150;rightarrow;554;true;focus;yes;716198;Chrome;112.0;Windows;10;undefined;undefined;1920 x 1080;1920 x 1080
H031;52;Mannelijk;Rechts;4;1;right;no;150;rightarrow;511;true;focus;yes;734991;Chrome;112.0;Windows;10;undefined;undefined;1920 x 1080;1920 x 1080
H031;52;Mannelijk;Rechts;4;2;right;no;150;rightarrow;453;true;focus;yes;736222;Chrome;112.0;Windows;10;undefined;undefined;1920 x 1080;1920 x 1080
H031;52;Mannelijk;Rechts;4;3;right;yes;150;rightarrow;438;false;focus;yes;737439;Chrome;112.0;Windows;10;undefined;undefined;1920 x 1080;1920 x 1080
H031;52;Mannelijk;Rechts;4;4;left;no;100;leftarrow;402;true;focus;yes;738599;Chrome;112.0;Windows;10;undefined;undefined;1920 x 1080;1920 x 1080
H031;52;Mannelijk;Rechts;4;5;left;yes;100;undefined;null;true;focus;yes;740639;Chrome;112.0;Windows;10;undefined;undefined;1920 x 1080;1920 x 1080
H031;52;Mannelijk;Rechts;4;6;left;no;150;leftarrow;454;true;focus;yes;741863;Chrome;112.0;Windows;10;undefined;undefined;1920 x 1080;1920 x 1080
H031;52;Mannelijk;Rechts;4;7;left;no;150;leftarrow;478;true;focus;yes;743127;Chrome;112.0;Windows;10;undefined;undefined;1920 x 1080;1920 x 1080
H031;52;Mannelijk;Rechts;4;8;right;no;150;rightarrow;428;true;focus;yes;744326;Chrome;112.0;Windows;10;undefined;undefined;1920 x 1080;1920 x 1080
H031;52;Mannelijk;Rechts;4;9;left;no;150;leftarrow;466;true;focus;yes;745558;Chrome;112.0;Windows;10;undefined;undefined;1920 x 1080;1920 x 1080
H031;52;Mannelijk;Rechts;4;10;right;yes;150;undefined;null;true;focus;yes;747584;Chrome;112.0;Windows;10;undefined;undefined;1920 x 1080;1920 x 1080
H031;52;Mannelijk;Rechts;4;11;left;no;200;leftarrow;411;true;focus;yes;748766;Chrome;112.0;Windows;10;undefined;undefined;1920 x 1080;1920 x 1080
H031;52;Mannelijk;Rechts;4;12;right;no;200;rightarrow;394;true;focus;yes;749950;Chrome;112.0;Windows;10;undefined;undefined;1920 x 1080;1920 x 1080
H031;52;Mannelijk;Rechts;4;13;left;no;200;leftarrow;438;true;focus;yes;751166;Chrome;112.0;Windows;10;undefined;undefined;1920 x 1080;1920 x 1080
H031;52;Mannelijk;Rechts;4;14;left;yes;200;leftarrow;431;false;focus;yes;752374;Chrome;112.0;Windows;10;undefined;undefined;1920 x 1080;1920 x 1080
H031;52;Mannelijk;Rechts;4;15;right;no;150;rightarrow;426;true;focus;yes;753558;Chrome;112.0;Windows;10;undefined;undefined;1920 x 1080;1920 x 1080
H031;52;Mannelijk;Rechts;4;16;right;no;150;rightarrow;486;true;focus;yes;754814;Chrome;112.0;Windows;10;undefined;undefined;1920 x 1080;1920 x 1080
H031;52;Mannelijk;Rechts;4;17;left;no;150;leftarrow;486;true;focus;yes;756079;Chrome;112.0;Windows;10;undefined;undefined;1920 x 1080;1920 x 1080
H031;52;Mannelijk;Rechts;4;18;right;no;150;rightarrow;446;true;focus;yes;757295;Chrome;112.0;Windows;10;undefined;undefined;1920 x 1080;1920 x 1080
H031;52;Mannelijk;Rechts;4;19;left;no;150;leftarrow;540;true;focus;yes;758599;Chrome;112.0;Windows;10;undefined;undefined;1920 x 1080;1920 x 1080
H031;52;Mannelijk;Rechts;4;20;right;no;150;rightarrow;427;true;focus;yes;759799;Chrome;112.0;Windows;10;undefined;undefined;1920 x 1080;1920 x 1080
H031;52;Mannelijk;Rechts;4;21;right;yes;150;undefined;null;true;focus;yes;761816;Chrome;112.0;Windows;10;undefined;undefined;1920 x 1080;1920 x 1080
H031;52;Mannelijk;Rechts;4;22;right;no;200;rightarrow;518;true;focus;yes;763103;Chrome;112.0;Windows;10;undefined;undefined;1920 x 1080;1920 x 1080
H031;52;Mannelijk;Rechts;4;23;left;yes;200;undefined;null;true;focus;yes;765138;Chrome;112.0;Windows;10;undefined;undefined;1920 x 1080;1920 x 1080
H031;52;Mannelijk;Rechts;4;24;left;no;250;leftarrow;507;true;focus;yes;766430;Chrome;112.0;Windows;10;undefined;undefined;1920 x 1080;1920 x 1080
H031;52;Mannelijk;Rechts;4;25;left;yes;250;leftarrow;443;false;focus;yes;767647;Chrome;112.0;Windows;10;undefined;undefined;1920 x 1080;1920 x 1080
H031;52;Mannelijk;Rechts;4;26;left;no;200;leftarrow;471;true;focus;yes;768886;Chrome;112.0;Windows;10;undefined;undefined;1920 x 1080;1920 x 1080
H031;52;Mannelijk;Rechts;4;27;left;no;200;leftarrow;624;true;focus;yes;770286;Chrome;112.0;Windows;10;undefined;undefined;1920 x 1080;1920 x 1080
H031;52;Mannelijk;Rechts;4;28;right;no;200;rightarrow;487;true;focus;yes;771551;Chrome;112.0;Windows;10;undefined;undefined;1920 x 1080;1920 x 1080
H031;52;Mannelijk;Rechts;4;29;right;no;200;rightarrow;510;true;focus;yes;772847;Chrome;112.0;Windows;10;undefined;undefined;1920 x 1080;1920 x 1080
H031;52;Mannelijk;Rechts;4;30;right;no;200;rightarrow;575;true;focus;yes;774191;Chrome;112.0;Windows;10;undefined;undefined;1920 x 1080;1920 x 1080
H031;52;Mannelijk;Rechts;4;31;right;yes;200;undefined;null;true;focus;yes;776219;Chrome;112.0;Windows;10;undefined;undefined;1920 x 1080;1920 x 1080
H031;52;Mannelijk;Rechts;4;32;left;no;250;leftarrow;556;true;focus;yes;777543;Chrome;112.0;Windows;10;undefined;undefined;1920 x 1080;1920 x 1080
H031;52;Mannelijk;Rechts;4;33;right;no;250;rightarrow;499;true;focus;yes;778815;Chrome;112.0;Windows;10;undefined;undefined;1920 x 1080;1920 x 1080
H031;52;Mannelijk;Rechts;4;34;left;yes;250;leftarrow;497;false;focus;yes;780095;Chrome;112.0;Windows;10;undefined;undefined;1920 x 1080;1920 x 1080
H031;52;Mannelijk;Rechts;4;35;left;no;200;leftarrow;543;true;focus;yes;781407;Chrome;112.0;Windows;10;undefined;undefined;1920 x 1080;1920 x 1080
H031;52;Mannelijk;Rechts;4;36;right;no;200;rightarrow;613;true;focus;yes;782791;Chrome;112.0;Windows;10;undefined;undefined;1920 x 1080;1920 x 1080
H031;52;Mannelijk;Rechts;4;37;right;yes;200;undefined;null;true;focus;yes;784824;Chrome;112.0;Windows;10;undefined;undefined;1920 x 1080;1920 x 1080
H031;52;Mannelijk;Rechts;4;38;left;no;250;leftarrow;611;true;focus;yes;786206;Chrome;112.0;Windows;10;undefined;undefined;1920 x 1080;1920 x 1080
H031;52;Mannelijk;Rechts;4;39;right;no;250;rightarrow;539;true;focus;yes;787511;Chrome;112.0;Windows;10;undefined;undefined;1920 x 1080;1920 x 1080
H031;52;Mannelijk;Rechts;4;40;left;no;250;leftarrow;449;true;focus;yes;788727;Chrome;112.0;Windows;10;undefined;undefined;1920 x 1080;1920 x 1080
H031;52;Mannelijk;Rechts;4;41;right;no;250;rightarrow;606;true;focus;yes;790117;Chrome;112.0;Windows;10;undefined;undefined;1920 x 1080;1920 x 1080
H031;52;Mannelijk;Rechts;4;42;left;no;250;leftarrow;657;true;focus;yes;791551;Chrome;112.0;Windows;10;undefined;undefined;1920 x 1080;1920 x 1080
H031;52;Mannelijk;Rechts;4;43;right;no;250;rightarrow;530;true;focus;yes;792847;Chrome;112.0;Windows;10;undefined;undefined;1920 x 1080;1920 x 1080
H031;52;Mannelijk;Rechts;4;44;right;no;250;rightarrow;602;true;focus;yes;794228;Chrome;112.0;Windows;10;undefined;undefined;1920 x 1080;1920 x 1080
H031;52;Mannelijk;Rechts;4;45;left;no;250;leftarrow;595;true;focus;yes;795596;Chrome;112.0;Windows;10;undefined;undefined;1920 x 1080;1920 x 1080
H031;52;Mannelijk;Rechts;4;46;left;no;250;leftarrow;617;true;focus;yes;796997;Chrome;112.0;Windows;10;undefined;undefined;1920 x 1080;1920 x 1080
H031;52;Mannelijk;Rechts;4;47;right;yes;250;rightarrow;536;false;focus;yes;798300;Chrome;112.0;Windows;10;undefined;undefined;1920 x 1080;1920 x 1080
H031;52;Mannelijk;Rechts;4;48;left;yes;200;leftarrow;412;false;focus;yes;799492;Chrome;112.0;Windows;10;undefined;undefined;1920 x 1080;1920 x 1080
H031;52;Mannelijk;Rechts;4;49;left;yes;150;undefined;null;true;focus;yes;801523;Chrome;112.0;Windows;10;undefined;undefined;1920 x 1080;1920 x 1080
H031;52;Mannelijk;Rechts;4;50;right;no;200;rightarrow;432;true;focus;yes;802724;Chrome;112.0;Windows;10;undefined;undefined;1920 x 1080;1920 x 1080
H031;52;Mannelijk;Rechts;4;51;right;no;200;rightarrow;514;true;focus;yes;804028;Chrome;112.0;Windows;10;undefined;undefined;1920 x 1080;1920 x 1080
H031;52;Mannelijk;Rechts;4;52;left;no;200;leftarrow;467;true;focus;yes;805268;Chrome;112.0;Windows;10;undefined;undefined;1920 x 1080;1920 x 1080
H031;52;Mannelijk;Rechts;4;53;right;no;200;rightarrow;413;true;focus;yes;806444;Chrome;112.0;Windows;10;undefined;undefined;1920 x 1080;1920 x 1080
H031;52;Mannelijk;Rechts;4;54;left;no;200;leftarrow;656;true;focus;yes;807869;Chrome;112.0;Windows;10;undefined;undefined;1920 x 1080;1920 x 1080
H031;52;Mannelijk;Rechts;4;55;left;no;200;leftarrow;510;true;focus;yes;809148;Chrome;112.0;Windows;10;undefined;undefined;1920 x 1080;1920 x 1080
H031;52;Mannelijk;Rechts;4;56;right;yes;200;rightarrow;456;false;focus;yes;810380;Chrome;112.0;Windows;10;undefined;undefined;1920 x 1080;1920 x 1080
H031;52;Mannelijk;Rechts;4;57;right;no;150;rightarrow;525;true;focus;yes;811683;Chrome;112.0;Windows;10;undefined;undefined;1920 x 1080;1920 x 1080
H031;52;Mannelijk;Rechts;4;58;left;no;150;leftarrow;492;true;focus;yes;812948;Chrome;112.0;Windows;10;undefined;undefined;1920 x 1080;1920 x 1080
H031;52;Mannelijk;Rechts;4;59;left;no;150;leftarrow;471;true;focus;yes;814203;Chrome;112.0;Windows;10;undefined;undefined;1920 x 1080;1920 x 1080
H031;52;Mannelijk;Rechts;4;60;right;yes;150;rightarrow;410;false;focus;yes;815412;Chrome;112.0;Windows;10;undefined;undefined;1920 x 1080;1920 x 1080
H031;52;Mannelijk;Rechts;4;61;right;no;100;rightarrow;484;true;focus;yes;816659;Chrome;112.0;Windows;10;undefined;undefined;1920 x 1080;1920 x 1080
H031;52;Mannelijk;Rechts;4;62;left;no;100;leftarrow;520;true;focus;yes;817940;Chrome;112.0;Windows;10;undefined;undefined;1920 x 1080;1920 x 1080
H031;52;Mannelijk;Rechts;4;63;right;no;100;rightarrow;484;true;focus;yes;819203;Chrome;112.0;Windows;10;undefined;undefined;1920 x 1080;1920 x 1080
H031;52;Mannelijk;Rechts;4;64;left;yes;100;leftarrow;425;false;focus;yes;820411;Chrome;112.0;Windows;10;undefined;undefined;1920 x 1080;1920 x 1080
H031;52;Mannelijk;Rechts;4;65;right;yes;50;undefined;null;true;focus;yes;822447;Chrome;112.0;Windows;10;undefined;undefined;1920 x 1080;1920 x 1080
H031;52;Mannelijk;Rechts;4;66;right;no;100;rightarrow;529;true;focus;yes;823747;Chrome;112.0;Windows;10;undefined;undefined;1920 x 1080;1920 x 1080
H031;52;Mannelijk;Rechts;4;67;left;no;100;leftarrow;692;true;focus;yes;825211;Chrome;112.0;Windows;10;undefined;undefined;1920 x 1080;1920 x 1080
H031;52;Mannelijk;Rechts;4;68;left;no;100;leftarrow;477;true;focus;yes;826460;Chrome;112.0;Windows;10;undefined;undefined;1920 x 1080;1920 x 1080
H031;52;Mannelijk;Rechts;4;69;left;no;100;leftarrow;503;true;focus;yes;827731;Chrome;112.0;Windows;10;undefined;undefined;1920 x 1080;1920 x 1080
H031;52;Mannelijk;Rechts;4;70;right;no;100;rightarrow;544;true;focus;yes;829060;Chrome;112.0;Windows;10;undefined;undefined;1920 x 1080;1920 x 1080
H031;52;Mannelijk;Rechts;4;71;left;yes;100;undefined;null;true;focus;yes;831101;Chrome;112.0;Windows;10;undefined;undefined;1920 x 1080;1920 x 1080
H031;52;Mannelijk;Rechts;4;72;right;no;150;rightarrow;436;true;focus;yes;832316;Chrome;112.0;Windows;10;undefined;undefined;1920 x 1080;1920 x 1080
H031;52;Mannelijk;Rechts;4;73;right;yes;150;rightarrow;458;false;focus;yes;833548;Chrome;112.0;Windows;10;undefined;undefined;1920 x 1080;1920 x 1080
H031;52;Mannelijk;Rechts;4;74;left;no;100;leftarrow;409;true;focus;yes;834723;Chrome;112.0;Windows;10;undefined;undefined;1920 x 1080;1920 x 1080
H031;52;Mannelijk;Rechts;4;75;left;no;100;leftarrow;477;true;focus;yes;835972;Chrome;112.0;Windows;10;undefined;undefined;1920 x 1080;1920 x 1080
H031;52;Mannelijk;Rechts;4;76;right;no;100;rightarrow;492;true;focus;yes;837236;Chrome;112.0;Windows;10;undefined;undefined;1920 x 1080;1920 x 1080
H031;52;Mannelijk;Rechts;4;77;right;no;100;rightarrow;646;true;focus;yes;838659;Chrome;112.0;Windows;10;undefined;undefined;1920 x 1080;1920 x 1080
H031;52;Mannelijk;Rechts;4;78;left;yes;100;undefined;null;true;focus;yes;840676;Chrome;112.0;Windows;10;undefined;undefined;1920 x 1080;1920 x 1080
H031;52;Mannelijk;Rechts;4;79;right;no;150;rightarrow;448;true;focus;yes;841908;Chrome;112.0;Windows;10;undefined;undefined;1920 x 1080;1920 x 1080
H031;52;Mannelijk;Rechts;4;80;left;no;150;leftarrow;442;true;focus;yes;843124;Chrome;112.0;Windows;10;undefined;undefined;1920 x 1080;1920 x 1080
H031;52;Mannelijk;Rechts;4;81;right;no;150;rightarrow;487;true;focus;yes;844380;Chrome;112.0;Windows;10;undefined;undefined;1920 x 1080;1920 x 1080
H031;52;Mannelijk;Rechts;4;82;right;no;150;rightarrow;485;true;focus;yes;845644;Chrome;112.0;Windows;10;undefined;undefined;1920 x 1080;1920 x 1080
H031;52;Mannelijk;Rechts;4;83;left;yes;150;undefined;null;true;focus;yes;847667;Chrome;112.0;Windows;10;undefined;undefined;1920 x 1080;1920 x 1080
H031;52;Mannelijk;Rechts;4;84;right;yes;200;undefined;null;true;focus;yes;849693;Chrome;112.0;Windows;10;undefined;undefined;1920 x 1080;1920 x 1080
H031;52;Mannelijk;Rechts;4;85;left;no;250;leftarrow;405;true;focus;yes;850876;Chrome;112.0;Windows;10;undefined;undefined;1920 x 1080;1920 x 1080
H031;52;Mannelijk;Rechts;4;86;left;no;250;leftarrow;439;true;focus;yes;852085;Chrome;112.0;Windows;10;undefined;undefined;1920 x 1080;1920 x 1080
H031;52;Mannelijk;Rechts;4;87;right;no;250;rightarrow;591;true;focus;yes;853452;Chrome;112.0;Windows;10;undefined;undefined;1920 x 1080;1920 x 1080
H031;52;Mannelijk;Rechts;4;88;left;no;250;leftarrow;709;true;focus;yes;854926;Chrome;112.0;Windows;10;undefined;undefined;1920 x 1080;1920 x 1080
H031;52;Mannelijk;Rechts;4;89;right;yes;250;undefined;null;true;focus;yes;856961;Chrome;112.0;Windows;10;undefined;undefined;1920 x 1080;1920 x 1080
H031;52;Mannelijk;Rechts;4;90;right;no;300;rightarrow;563;true;focus;yes;858287;Chrome;112.0;Windows;10;undefined;undefined;1920 x 1080;1920 x 1080
H031;52;Mannelijk;Rechts;4;91;left;no;300;leftarrow;543;true;focus;yes;859607;Chrome;112.0;Windows;10;undefined;undefined;1920 x 1080;1920 x 1080
H031;52;Mannelijk;Rechts;4;92;right;no;300;rightarrow;549;true;focus;yes;860919;Chrome;112.0;Windows;10;undefined;undefined;1920 x 1080;1920 x 1080
H031;52;Mannelijk;Rechts;4;93;right;no;300;rightarrow;517;true;focus;yes;862215;Chrome;112.0;Windows;10;undefined;undefined;1920 x 1080;1920 x 1080
H031;52;Mannelijk;Rechts;4;94;left;no;300;leftarrow;510;true;focus;yes;863495;Chrome;112.0;Windows;10;undefined;undefined;1920 x 1080;1920 x 1080
H031;52;Mannelijk;Rechts;4;95;left;yes;300;leftarrow;467;false;focus;yes;864735;Chrome;112.0;Windows;10;undefined;undefined;1920 x 1080;1920 x 1080
H031;52;Mannelijk;Rechts;4;96;left;no;250;leftarrow;539;true;focus;yes;866055;Chrome;112.0;Windows;10;undefined;undefined;1920 x 1080;1920 x 1080
H031;52;Mannelijk;Rechts;4;97;left;yes;250;undefined;null;true;focus;yes;868093;Chrome;112.0;Windows;10;undefined;undefined;1920 x 1080;1920 x 1080
H031;52;Mannelijk;Rechts;4;98;left;no;300;leftarrow;643;true;focus;yes;869510;Chrome;112.0;Windows;10;undefined;undefined;1920 x 1080;1920 x 1080
H031;52;Mannelijk;Rechts;4;99;right;no;300;rightarrow;600;true;focus;yes;870871;Chrome;112.0;Windows;10;undefined;undefined;1920 x 1080;1920 x 1080
H031;52;Mannelijk;Rechts;4;100;right;no;300;rightarrow;515;true;focus;yes;872151;Chrome;112.0;Windows;10;undefined;undefined;1920 x 1080;1920 x 1080
H031;52;Mannelijk;Rechts;4;101;right;no;300;rightarrow;494;true;focus;yes;873423;Chrome;112.0;Windows;10;undefined;undefined;1920 x 1080;1920 x 1080
H031;52;Mannelijk;Rechts;4;102;left;no;300;leftarrow;464;true;focus;yes;874662;Chrome;112.0;Windows;10;undefined;undefined;1920 x 1080;1920 x 1080
H031;52;Mannelijk;Rechts;4;103;right;yes;300;undefined;null;true;focus;yes;876681;Chrome;112.0;Windows;10;undefined;undefined;1920 x 1080;1920 x 1080
H031;52;Mannelijk;Rechts;4;104;left;no;350;leftarrow;455;true;focus;yes;877919;Chrome;112.0;Windows;10;undefined;undefined;1920 x 1080;1920 x 1080
H031;52;Mannelijk;Rechts;4;105;left;yes;350;leftarrow;503;false;focus;yes;879207;Chrome;112.0;Windows;10;undefined;undefined;1920 x 1080;1920 x 1080
H031;52;Mannelijk;Rechts;4;106;left;no;300;leftarrow;462;true;focus;yes;880439;Chrome;112.0;Windows;10;undefined;undefined;1920 x 1080;1920 x 1080
H031;52;Mannelijk;Rechts;4;107;left;no;300;leftarrow;715;true;focus;yes;881927;Chrome;112.0;Windows;10;undefined;undefined;1920 x 1080;1920 x 1080
H031;52;Mannelijk;Rechts;4;108;right;no;300;rightarrow;513;true;focus;yes;883199;Chrome;112.0;Windows;10;undefined;undefined;1920 x 1080;1920 x 1080
H031;52;Mannelijk;Rechts;4;109;right;yes;300;undefined;null;true;focus;yes;885238;Chrome;112.0;Windows;10;undefined;undefined;1920 x 1080;1920 x 1080
H031;52;Mannelijk;Rechts;4;110;right;no;350;rightarrow;519;true;focus;yes;886543;Chrome;112.0;Windows;10;undefined;undefined;1920 x 1080;1920 x 1080
H031;52;Mannelijk;Rechts;4;111;right;no;350;rightarrow;578;true;focus;yes;887903;Chrome;112.0;Windows;10;undefined;undefined;1920 x 1080;1920 x 1080
H031;52;Mannelijk;Rechts;4;112;left;no;350;leftarrow;486;true;focus;yes;889159;Chrome;112.0;Windows;10;undefined;undefined;1920 x 1080;1920 x 1080
H031;52;Mannelijk;Rechts;4;113;right;no;350;rightarrow;534;true;focus;yes;890462;Chrome;112.0;Windows;10;undefined;undefined;1920 x 1080;1920 x 1080
H031;52;Mannelijk;Rechts;4;114;right;no;350;rightarrow;586;true;focus;yes;891823;Chrome;112.0;Windows;10;undefined;undefined;1920 x 1080;1920 x 1080
H031;52;Mannelijk;Rechts;4;115;left;yes;350;leftarrow;496;false;focus;yes;893103;Chrome;112.0;Windows;10;undefined;undefined;1920 x 1080;1920 x 1080
H031;52;Mannelijk;Rechts;4;116;left;no;300;leftarrow;462;true;focus;yes;894335;Chrome;112.0;Windows;10;undefined;undefined;1920 x 1080;1920 x 1080
H031;52;Mannelijk;Rechts;4;117;left;no;300;leftarrow;518;true;focus;yes;895633;Chrome;112.0;Windows;10;undefined;undefined;1920 x 1080;1920 x 1080
H031;52;Mannelijk;Rechts;4;118;right;no;300;rightarrow;504;true;focus;yes;896910;Chrome;112.0;Windows;10;undefined;undefined;1920 x 1080;1920 x 1080
H031;52;Mannelijk;Rechts;4;119;left;no;300;leftarrow;545;true;focus;yes;898231;Chrome;112.0;Windows;10;undefined;undefined;1920 x 1080;1920 x 1080
H031;52;Mannelijk;Rechts;4;120;right;yes;300;rightarrow;524;false;focus;yes;899543;Chrome;112.0;Windows;10;undefined;undefined;1920 x 1080;1920 x 1080
H031;52;Mannelijk;Rechts;4;121;left;no;250;leftarrow;497;true;focus;yes;900815;Chrome;112.0;Windows;10;undefined;undefined;1920 x 1080;1920 x 1080
H031;52;Mannelijk;Rechts;4;122;left;no;250;leftarrow;484;true;focus;yes;902087;Chrome;112.0;Windows;10;undefined;undefined;1920 x 1080;1920 x 1080
H031;52;Mannelijk;Rechts;4;123;right;no;250;rightarrow;556;true;focus;yes;903415;Chrome;112.0;Windows;10;undefined;undefined;1920 x 1080;1920 x 1080
H031;52;Mannelijk;Rechts;4;124;left;yes;250;leftarrow;465;false;focus;yes;904655;Chrome;112.0;Windows;10;undefined;undefined;1920 x 1080;1920 x 1080
H031;52;Mannelijk;Rechts;4;125;right;yes;200;rightarrow;460;false;focus;yes;905879;Chrome;112.0;Windows;10;undefined;undefined;1920 x 1080;1920 x 1080
H031;52;Mannelijk;Rechts;4;126;left;no;150;leftarrow;413;true;focus;yes;907062;Chrome;112.0;Windows;10;undefined;undefined;1920 x 1080;1920 x 1080
H031;52;Mannelijk;Rechts;4;127;right;no;150;rightarrow;477;true;focus;yes;908303;Chrome;112.0;Windows;10;undefined;undefined;1920 x 1080;1920 x 1080
H031;52;Mannelijk;Rechts;4;128;right;no;150;rightarrow;523;true;focus;yes;909591;Chrome;112.0;Windows;10;undefined;undefined;1920 x 1080;1920 x 1080
H031;52;Mannelijk;Rechts;5;1;left;no;150;leftarrow;386;true;focus;yes;928846;Chrome;112.0;Windows;10;undefined;undefined;1920 x 1080;1920 x 1080
H031;52;Mannelijk;Rechts;5;2;right;no;150;rightarrow;409;true;focus;yes;930030;Chrome;112.0;Windows;10;undefined;undefined;1920 x 1080;1920 x 1080
H031;52;Mannelijk;Rechts;5;3;left;yes;150;undefined;null;true;focus;yes;932064;Chrome;112.0;Windows;10;undefined;undefined;1920 x 1080;1920 x 1080
H031;52;Mannelijk;Rechts;5;4;right;yes;200;undefined;null;true;focus;yes;934086;Chrome;112.0;Windows;10;undefined;undefined;1920 x 1080;1920 x 1080
H031;52;Mannelijk;Rechts;5;5;left;no;250;leftarrow;487;true;focus;yes;935342;Chrome;112.0;Windows;10;undefined;undefined;1920 x 1080;1920 x 1080
H031;52;Mannelijk;Rechts;5;6;right;no;250;rightarrow;455;true;focus;yes;936566;Chrome;112.0;Windows;10;undefined;undefined;1920 x 1080;1920 x 1080
H031;52;Mannelijk;Rechts;5;7;right;no;250;rightarrow;612;true;focus;yes;937958;Chrome;112.0;Windows;10;undefined;undefined;1920 x 1080;1920 x 1080
H031;52;Mannelijk;Rechts;5;8;left;no;250;leftarrow;552;true;focus;yes;939278;Chrome;112.0;Windows;10;undefined;undefined;1920 x 1080;1920 x 1080
H031;52;Mannelijk;Rechts;5;9;left;no;250;leftarrow;558;true;focus;yes;940606;Chrome;112.0;Windows;10;undefined;undefined;1920 x 1080;1920 x 1080
H031;52;Mannelijk;Rechts;5;10;left;no;250;leftarrow;654;true;focus;yes;942029;Chrome;112.0;Windows;10;undefined;undefined;1920 x 1080;1920 x 1080
H031;52;Mannelijk;Rechts;5;11;right;no;250;rightarrow;605;true;focus;yes;943406;Chrome;112.0;Windows;10;undefined;undefined;1920 x 1080;1920 x 1080
H031;52;Mannelijk;Rechts;5;12;left;no;250;leftarrow;458;true;focus;yes;944630;Chrome;112.0;Windows;10;undefined;undefined;1920 x 1080;1920 x 1080
H031;52;Mannelijk;Rechts;5;13;right;no;250;rightarrow;658;true;focus;yes;946062;Chrome;112.0;Windows;10;undefined;undefined;1920 x 1080;1920 x 1080
H031;52;Mannelijk;Rechts;5;14;right;no;250;rightarrow;656;true;focus;yes;947494;Chrome;112.0;Windows;10;undefined;undefined;1920 x 1080;1920 x 1080
H031;52;Mannelijk;Rechts;5;15;left;yes;250;undefined;null;true;focus;yes;949524;Chrome;112.0;Windows;10;undefined;undefined;1920 x 1080;1920 x 1080
H031;52;Mannelijk;Rechts;5;16;right;yes;300;undefined;null;true;focus;yes;951562;Chrome;112.0;Windows;10;undefined;undefined;1920 x 1080;1920 x 1080
H031;52;Mannelijk;Rechts;5;17;left;no;350;leftarrow;851;true;focus;yes;953182;Chrome;112.0;Windows;10;undefined;undefined;1920 x 1080;1920 x 1080
H031;52;Mannelijk;Rechts;5;18;left;no;350;leftarrow;486;true;focus;yes;954445;Chrome;112.0;Windows;10;undefined;undefined;1920 x 1080;1920 x 1080
H031;52;Mannelijk;Rechts;5;19;right;no;350;rightarrow;501;true;focus;yes;955717;Chrome;112.0;Windows;10;undefined;undefined;1920 x 1080;1920 x 1080
H031;52;Mannelijk;Rechts;5;20;left;yes;350;undefined;null;true;focus;yes;957753;Chrome;112.0;Windows;10;undefined;undefined;1920 x 1080;1920 x 1080
H031;52;Mannelijk;Rechts;5;21;left;no;400;leftarrow;448;true;focus;yes;958982;Chrome;112.0;Windows;10;undefined;undefined;1920 x 1080;1920 x 1080
H031;52;Mannelijk;Rechts;5;22;right;yes;400;rightarrow;558;false;focus;yes;960318;Chrome;112.0;Windows;10;undefined;undefined;1920 x 1080;1920 x 1080
H031;52;Mannelijk;Rechts;5;23;right;no;350;rightarrow;539;true;focus;yes;961622;Chrome;112.0;Windows;10;undefined;undefined;1920 x 1080;1920 x 1080
H031;52;Mannelijk;Rechts;5;24;right;no;350;rightarrow;676;true;focus;yes;963070;Chrome;112.0;Windows;10;undefined;undefined;1920 x 1080;1920 x 1080
H031;52;Mannelijk;Rechts;5;25;left;no;350;leftarrow;574;true;focus;yes;964421;Chrome;112.0;Windows;10;undefined;undefined;1920 x 1080;1920 x 1080
H031;52;Mannelijk;Rechts;5;26;left;yes;350;undefined;null;true;focus;yes;966436;Chrome;112.0;Windows;10;undefined;undefined;1920 x 1080;1920 x 1080
H031;52;Mannelijk;Rechts;5;27;right;no;400;rightarrow;481;true;focus;yes;967686;Chrome;112.0;Windows;10;undefined;undefined;1920 x 1080;1920 x 1080
H031;52;Mannelijk;Rechts;5;28;right;no;400;rightarrow;847;true;focus;yes;969294;Chrome;112.0;Windows;10;undefined;undefined;1920 x 1080;1920 x 1080
H031;52;Mannelijk;Rechts;5;29;left;no;400;leftarrow;456;true;focus;yes;970518;Chrome;112.0;Windows;10;undefined;undefined;1920 x 1080;1920 x 1080
H031;52;Mannelijk;Rechts;5;30;left;no;400;leftarrow;520;true;focus;yes;971814;Chrome;112.0;Windows;10;undefined;undefined;1920 x 1080;1920 x 1080
H031;52;Mannelijk;Rechts;5;31;right;yes;400;rightarrow;568;false;focus;yes;973150;Chrome;112.0;Windows;10;undefined;undefined;1920 x 1080;1920 x 1080
H031;52;Mannelijk;Rechts;5;32;right;no;350;rightarrow;495;true;focus;yes;974422;Chrome;112.0;Windows;10;undefined;undefined;1920 x 1080;1920 x 1080
H031;52;Mannelijk;Rechts;5;33;left;no;350;leftarrow;516;true;focus;yes;975715;Chrome;112.0;Windows;10;undefined;undefined;1920 x 1080;1920 x 1080
H031;52;Mannelijk;Rechts;5;34;left;no;350;leftarrow;607;true;focus;yes;977098;Chrome;112.0;Windows;10;undefined;undefined;1920 x 1080;1920 x 1080
H031;52;Mannelijk;Rechts;5;35;right;no;350;rightarrow;623;true;focus;yes;978492;Chrome;112.0;Windows;10;undefined;undefined;1920 x 1080;1920 x 1080
H031;52;Mannelijk;Rechts;5;36;left;yes;350;leftarrow;498;false;focus;yes;979755;Chrome;112.0;Windows;10;undefined;undefined;1920 x 1080;1920 x 1080
H031;52;Mannelijk;Rechts;5;37;right;yes;300;undefined;null;true;focus;yes;981777;Chrome;112.0;Windows;10;undefined;undefined;1920 x 1080;1920 x 1080
H031;52;Mannelijk;Rechts;5;38;right;no;350;rightarrow;562;true;focus;yes;983107;Chrome;112.0;Windows;10;undefined;undefined;1920 x 1080;1920 x 1080
H031;52;Mannelijk;Rechts;5;39;right;no;350;rightarrow;655;true;focus;yes;984524;Chrome;112.0;Windows;10;undefined;undefined;1920 x 1080;1920 x 1080
H031;52;Mannelijk;Rechts;5;40;left;no;350;leftarrow;649;true;focus;yes;985938;Chrome;112.0;Windows;10;undefined;undefined;1920 x 1080;1920 x 1080
H031;52;Mannelijk;Rechts;5;41;right;yes;350;rightarrow;558;false;focus;yes;987291;Chrome;112.0;Windows;10;undefined;undefined;1920 x 1080;1920 x 1080
H031;52;Mannelijk;Rechts;5;42;right;no;300;rightarrow;766;true;focus;yes;988819;Chrome;112.0;Windows;10;undefined;undefined;1920 x 1080;1920 x 1080
H031;52;Mannelijk;Rechts;5;43;left;no;300;leftarrow;602;true;focus;yes;990203;Chrome;112.0;Windows;10;undefined;undefined;1920 x 1080;1920 x 1080
H031;52;Mannelijk;Rechts;5;44;left;no;300;leftarrow;598;true;focus;yes;991579;Chrome;112.0;Windows;10;undefined;undefined;1920 x 1080;1920 x 1080
H031;52;Mannelijk;Rechts;5;45;left;yes;300;undefined;null;true;focus;yes;993612;Chrome;112.0;Windows;10;undefined;undefined;1920 x 1080;1920 x 1080
H031;52;Mannelijk;Rechts;5;46;right;no;350;rightarrow;444;true;focus;yes;994826;Chrome;112.0;Windows;10;undefined;undefined;1920 x 1080;1920 x 1080
H031;52;Mannelijk;Rechts;5;47;right;no;350;rightarrow;606;true;focus;yes;996204;Chrome;112.0;Windows;10;undefined;undefined;1920 x 1080;1920 x 1080
H031;52;Mannelijk;Rechts;5;48;left;no;350;leftarrow;645;true;focus;yes;997620;Chrome;112.0;Windows;10;undefined;undefined;1920 x 1080;1920 x 1080
H031;52;Mannelijk;Rechts;5;49;left;no;350;leftarrow;626;true;focus;yes;999019;Chrome;112.0;Windows;10;undefined;undefined;1920 x 1080;1920 x 1080
H031;52;Mannelijk;Rechts;5;50;right;no;350;rightarrow;767;true;focus;yes;1000562;Chrome;112.0;Windows;10;undefined;undefined;1920 x 1080;1920 x 1080
H031;52;Mannelijk;Rechts;5;51;right;no;350;rightarrow;540;true;focus;yes;1001868;Chrome;112.0;Windows;10;undefined;undefined;1920 x 1080;1920 x 1080
H031;52;Mannelijk;Rechts;5;52;left;no;350;leftarrow;609;true;focus;yes;1003252;Chrome;112.0;Windows;10;undefined;undefined;1920 x 1080;1920 x 1080
H031;52;Mannelijk;Rechts;5;53;left;yes;350;undefined;null;true;focus;yes;1005272;Chrome;112.0;Windows;10;undefined;undefined;1920 x 1080;1920 x 1080
H031;52;Mannelijk;Rechts;5;54;left;no;400;leftarrow;632;true;focus;yes;1006674;Chrome;112.0;Windows;10;undefined;undefined;1920 x 1080;1920 x 1080
H031;52;Mannelijk;Rechts;5;55;right;yes;400;undefined;null;true;focus;yes;1008717;Chrome;112.0;Windows;10;undefined;undefined;1920 x 1080;1920 x 1080
H031;52;Mannelijk;Rechts;5;56;right;no;450;rightarrow;574;true;focus;yes;1010051;Chrome;112.0;Windows;10;undefined;undefined;1920 x 1080;1920 x 1080
H031;52;Mannelijk;Rechts;5;57;right;yes;450;undefined;null;true;focus;yes;1012075;Chrome;112.0;Windows;10;undefined;undefined;1920 x 1080;1920 x 1080
H031;52;Mannelijk;Rechts;5;58;right;no;500;rightarrow;552;true;focus;yes;1013395;Chrome;112.0;Windows;10;undefined;undefined;1920 x 1080;1920 x 1080
H031;52;Mannelijk;Rechts;5;59;left;no;500;leftarrow;576;true;focus;yes;1014747;Chrome;112.0;Windows;10;undefined;undefined;1920 x 1080;1920 x 1080
H031;52;Mannelijk;Rechts;5;60;left;yes;500;leftarrow;717;false;focus;yes;1016227;Chrome;112.0;Windows;10;undefined;undefined;1920 x 1080;1920 x 1080
H031;52;Mannelijk;Rechts;5;61;right;no;450;rightarrow;692;true;focus;yes;1017690;Chrome;112.0;Windows;10;undefined;undefined;1920 x 1080;1920 x 1080
H031;52;Mannelijk;Rechts;5;62;left;no;450;leftarrow;749;true;focus;yes;1019219;Chrome;112.0;Windows;10;undefined;undefined;1920 x 1080;1920 x 1080
H031;52;Mannelijk;Rechts;5;63;left;no;450;leftarrow;817;true;focus;yes;1020802;Chrome;112.0;Windows;10;undefined;undefined;1920 x 1080;1920 x 1080
H031;52;Mannelijk;Rechts;5;64;right;no;450;rightarrow;706;true;focus;yes;1022275;Chrome;112.0;Windows;10;undefined;undefined;1920 x 1080;1920 x 1080
H031;52;Mannelijk;Rechts;5;65;left;yes;450;leftarrow;593;false;focus;yes;1023628;Chrome;112.0;Windows;10;undefined;undefined;1920 x 1080;1920 x 1080
H031;52;Mannelijk;Rechts;5;66;right;no;400;rightarrow;624;true;focus;yes;1025019;Chrome;112.0;Windows;10;undefined;undefined;1920 x 1080;1920 x 1080
H031;52;Mannelijk;Rechts;5;67;left;no;400;leftarrow;701;true;focus;yes;1026499;Chrome;112.0;Windows;10;undefined;undefined;1920 x 1080;1920 x 1080
H031;52;Mannelijk;Rechts;5;68;right;no;400;rightarrow;753;true;focus;yes;1028035;Chrome;112.0;Windows;10;undefined;undefined;1920 x 1080;1920 x 1080
H031;52;Mannelijk;Rechts;5;69;right;no;400;rightarrow;834;true;focus;yes;1029651;Chrome;112.0;Windows;10;undefined;undefined;1920 x 1080;1920 x 1080
H031;52;Mannelijk;Rechts;5;70;left;no;400;leftarrow;611;true;focus;yes;1031028;Chrome;112.0;Windows;10;undefined;undefined;1920 x 1080;1920 x 1080
H031;52;Mannelijk;Rechts;5;71;left;no;400;leftarrow;650;true;focus;yes;1032459;Chrome;112.0;Windows;10;undefined;undefined;1920 x 1080;1920 x 1080
H031;52;Mannelijk;Rechts;5;72;right;yes;400;undefined;null;true;focus;yes;1034488;Chrome;112.0;Windows;10;undefined;undefined;1920 x 1080;1920 x 1080
H031;52;Mannelijk;Rechts;5;73;right;no;450;rightarrow;560;true;focus;yes;1035824;Chrome;112.0;Windows;10;undefined;undefined;1920 x 1080;1920 x 1080
H031;52;Mannelijk;Rechts;5;74;right;no;450;rightarrow;684;true;focus;yes;1037288;Chrome;112.0;Windows;10;undefined;undefined;1920 x 1080;1920 x 1080
H031;52;Mannelijk;Rechts;5;75;left;yes;450;leftarrow;647;false;focus;yes;1038703;Chrome;112.0;Windows;10;undefined;undefined;1920 x 1080;1920 x 1080
H031;52;Mannelijk;Rechts;5;76;right;no;400;rightarrow;645;true;focus;yes;1040120;Chrome;112.0;Windows;10;undefined;undefined;1920 x 1080;1920 x 1080
H031;52;Mannelijk;Rechts;5;77;left;no;400;leftarrow;655;true;focus;yes;1041559;Chrome;112.0;Windows;10;undefined;undefined;1920 x 1080;1920 x 1080
H031;52;Mannelijk;Rechts;5;78;left;no;400;leftarrow;513;true;focus;yes;1042848;Chrome;112.0;Windows;10;undefined;undefined;1920 x 1080;1920 x 1080
H031;52;Mannelijk;Rechts;5;79;left;no;400;leftarrow;712;true;focus;yes;1044320;Chrome;112.0;Windows;10;undefined;undefined;1920 x 1080;1920 x 1080
H031;52;Mannelijk;Rechts;5;80;right;yes;400;undefined;null;true;focus;yes;1046366;Chrome;112.0;Windows;10;undefined;undefined;1920 x 1080;1920 x 1080
H031;52;Mannelijk;Rechts;5;81;left;yes;450;leftarrow;743;false;focus;yes;1047894;Chrome;112.0;Windows;10;undefined;undefined;1920 x 1080;1920 x 1080
H031;52;Mannelijk;Rechts;5;82;right;no;400;rightarrow;552;true;focus;yes;1049215;Chrome;112.0;Windows;10;undefined;undefined;1920 x 1080;1920 x 1080
H031;52;Mannelijk;Rechts;5;83;right;yes;400;rightarrow;517;false;focus;yes;1050503;Chrome;112.0;Windows;10;undefined;undefined;1920 x 1080;1920 x 1080
H031;52;Mannelijk;Rechts;5;84;left;no;350;leftarrow;569;true;focus;yes;1051847;Chrome;112.0;Windows;10;undefined;undefined;1920 x 1080;1920 x 1080
H031;52;Mannelijk;Rechts;5;85;right;no;350;rightarrow;733;true;focus;yes;1053351;Chrome;112.0;Windows;10;undefined;undefined;1920 x 1080;1920 x 1080
H031;52;Mannelijk;Rechts;5;86;left;no;350;leftarrow;530;true;focus;yes;1054655;Chrome;112.0;Windows;10;undefined;undefined;1920 x 1080;1920 x 1080
H031;52;Mannelijk;Rechts;5;87;left;no;350;leftarrow;606;true;focus;yes;1056023;Chrome;112.0;Windows;10;undefined;undefined;1920 x 1080;1920 x 1080
H031;52;Mannelijk;Rechts;5;88;right;no;350;rightarrow;944;true;focus;yes;1057735;Chrome;112.0;Windows;10;undefined;undefined;1920 x 1080;1920 x 1080
H031;52;Mannelijk;Rechts;5;89;right;no;350;rightarrow;481;true;focus;yes;1058984;Chrome;112.0;Windows;10;undefined;undefined;1920 x 1080;1920 x 1080
H031;52;Mannelijk;Rechts;5;90;right;no;350;rightarrow;498;true;focus;yes;1060263;Chrome;112.0;Windows;10;undefined;undefined;1920 x 1080;1920 x 1080
H031;52;Mannelijk;Rechts;5;91;left;no;350;leftarrow;900;true;focus;yes;1061952;Chrome;112.0;Windows;10;undefined;undefined;1920 x 1080;1920 x 1080
H031;52;Mannelijk;Rechts;5;92;right;no;350;rightarrow;525;true;focus;yes;1063239;Chrome;112.0;Windows;10;undefined;undefined;1920 x 1080;1920 x 1080
H031;52;Mannelijk;Rechts;5;93;left;no;350;leftarrow;619;true;focus;yes;1064631;Chrome;112.0;Windows;10;undefined;undefined;1920 x 1080;1920 x 1080
H031;52;Mannelijk;Rechts;5;94;left;no;350;leftarrow;666;true;focus;yes;1066079;Chrome;112.0;Windows;10;undefined;undefined;1920 x 1080;1920 x 1080
H031;52;Mannelijk;Rechts;5;95;left;yes;350;undefined;null;true;focus;yes;1068107;Chrome;112.0;Windows;10;undefined;undefined;1920 x 1080;1920 x 1080
H031;52;Mannelijk;Rechts;5;96;right;yes;400;rightarrow;484;false;focus;yes;1069375;Chrome;112.0;Windows;10;undefined;undefined;1920 x 1080;1920 x 1080
H031;52;Mannelijk;Rechts;5;97;right;yes;350;rightarrow;495;false;focus;yes;1070656;Chrome;112.0;Windows;10;undefined;undefined;1920 x 1080;1920 x 1080
H031;52;Mannelijk;Rechts;5;98;left;no;300;leftarrow;449;true;focus;yes;1071871;Chrome;112.0;Windows;10;undefined;undefined;1920 x 1080;1920 x 1080
H031;52;Mannelijk;Rechts;5;99;left;no;300;leftarrow;741;true;focus;yes;1073376;Chrome;112.0;Windows;10;undefined;undefined;1920 x 1080;1920 x 1080
H031;52;Mannelijk;Rechts;5;100;left;yes;300;leftarrow;522;false;focus;yes;1074664;Chrome;112.0;Windows;10;undefined;undefined;1920 x 1080;1920 x 1080
H031;52;Mannelijk;Rechts;5;101;right;no;250;rightarrow;508;true;focus;yes;1075951;Chrome;112.0;Windows;10;undefined;undefined;1920 x 1080;1920 x 1080
H031;52;Mannelijk;Rechts;5;102;left;no;250;leftarrow;701;true;focus;yes;1077423;Chrome;112.0;Windows;10;undefined;undefined;1920 x 1080;1920 x 1080
H031;52;Mannelijk;Rechts;5;103;right;no;250;rightarrow;795;true;focus;yes;1078984;Chrome;112.0;Windows;10;undefined;undefined;1920 x 1080;1920 x 1080
H031;52;Mannelijk;Rechts;5;104;right;no;250;rightarrow;466;true;focus;yes;1080223;Chrome;112.0;Windows;10;undefined;undefined;1920 x 1080;1920 x 1080
H031;52;Mannelijk;Rechts;5;105;right;yes;250;undefined;null;true;focus;yes;1082259;Chrome;112.0;Windows;10;undefined;undefined;1920 x 1080;1920 x 1080
H031;52;Mannelijk;Rechts;5;106;left;yes;300;leftarrow;320;false;focus;yes;1083358;Chrome;112.0;Windows;10;undefined;undefined;1920 x 1080;1920 x 1080
H031;52;Mannelijk;Rechts;5;107;left;no;250;leftarrow;472;true;focus;yes;1084608;Chrome;112.0;Windows;10;undefined;undefined;1920 x 1080;1920 x 1080
H031;52;Mannelijk;Rechts;5;108;right;no;250;rightarrow;589;true;focus;yes;1085968;Chrome;112.0;Windows;10;undefined;undefined;1920 x 1080;1920 x 1080
H031;52;Mannelijk;Rechts;5;109;right;no;250;rightarrow;471;true;focus;yes;1087208;Chrome;112.0;Windows;10;undefined;undefined;1920 x 1080;1920 x 1080
H031;52;Mannelijk;Rechts;5;110;left;no;250;leftarrow;730;true;focus;yes;1088711;Chrome;112.0;Windows;10;undefined;undefined;1920 x 1080;1920 x 1080
H031;52;Mannelijk;Rechts;5;111;left;no;250;leftarrow;500;true;focus;yes;1089983;Chrome;112.0;Windows;10;undefined;undefined;1920 x 1080;1920 x 1080
H031;52;Mannelijk;Rechts;5;112;right;no;250;rightarrow;560;true;focus;yes;1091320;Chrome;112.0;Windows;10;undefined;undefined;1920 x 1080;1920 x 1080
H031;52;Mannelijk;Rechts;5;113;right;no;250;rightarrow;483;true;focus;yes;1092584;Chrome;112.0;Windows;10;undefined;undefined;1920 x 1080;1920 x 1080
H031;52;Mannelijk;Rechts;5;114;right;no;250;rightarrow;482;true;focus;yes;1093840;Chrome;112.0;Windows;10;undefined;undefined;1920 x 1080;1920 x 1080
H031;52;Mannelijk;Rechts;5;115;left;yes;250;leftarrow;455;false;focus;yes;1095071;Chrome;112.0;Windows;10;undefined;undefined;1920 x 1080;1920 x 1080
H031;52;Mannelijk;Rechts;5;116;left;no;200;leftarrow;588;true;focus;yes;1096429;Chrome;112.0;Windows;10;undefined;undefined;1920 x 1080;1920 x 1080
H031;52;Mannelijk;Rechts;5;117;left;no;200;leftarrow;651;true;focus;yes;1097854;Chrome;112.0;Windows;10;undefined;undefined;1920 x 1080;1920 x 1080
H031;52;Mannelijk;Rechts;5;118;right;yes;200;undefined;null;true;focus;yes;1099882;Chrome;112.0;Windows;10;undefined;undefined;1920 x 1080;1920 x 1080
H031;52;Mannelijk;Rechts;5;119;left;no;250;leftarrow;428;true;focus;yes;1101069;Chrome;112.0;Windows;10;undefined;undefined;1920 x 1080;1920 x 1080
H031;52;Mannelijk;Rechts;5;120;right;no;250;rightarrow;439;true;focus;yes;1102294;Chrome;112.0;Windows;10;undefined;undefined;1920 x 1080;1920 x 1080
H031;52;Mannelijk;Rechts;5;121;left;no;250;leftarrow;628;true;focus;yes;1103694;Chrome;112.0;Windows;10;undefined;undefined;1920 x 1080;1920 x 1080
H031;52;Mannelijk;Rechts;5;122;left;no;250;leftarrow;519;true;focus;yes;1104981;Chrome;112.0;Windows;10;undefined;undefined;1920 x 1080;1920 x 1080
H031;52;Mannelijk;Rechts;5;123;left;no;250;leftarrow;631;true;focus;yes;1106381;Chrome;112.0;Windows;10;undefined;undefined;1920 x 1080;1920 x 1080
H031;52;Mannelijk;Rechts;5;124;right;no;250;rightarrow;601;true;focus;yes;1107758;Chrome;112.0;Windows;10;undefined;undefined;1920 x 1080;1920 x 1080
H031;52;Mannelijk;Rechts;5;125;right;no;250;rightarrow;697;true;focus;yes;1109230;Chrome;112.0;Windows;10;undefined;undefined;1920 x 1080;1920 x 1080
H031;52;Mannelijk;Rechts;5;126;right;yes;250;undefined;null;true;focus;yes;1111261;Chrome;112.0;Windows;10;undefined;undefined;1920 x 1080;1920 x 1080
H031;52;Mannelijk;Rechts;5;127;left;yes;300;leftarrow;375;false;focus;yes;1112406;Chrome;112.0;Windows;10;undefined;undefined;1920 x 1080;1920 x 1080
H031;52;Mannelijk;Rechts;5;128;right;no;250;rightarrow;514;true;focus;yes;1113693;Chrome;112.0;Windows;10;undefined;undefined;1920 x 1080;1920 x 1080
H031;52;Mannelijk;Rechts;6;1;right;yes;250;rightarrow;709;false;focus;yes;1132677;Chrome;112.0;Windows;10;undefined;undefined;1920 x 1080;1920 x 1080
H031;52;Mannelijk;Rechts;6;2;right;no;200;rightarrow;551;true;focus;yes;1133989;Chrome;112.0;Windows;10;undefined;undefined;1920 x 1080;1920 x 1080
H031;52;Mannelijk;Rechts;6;3;right;no;200;rightarrow;465;true;focus;yes;1135229;Chrome;112.0;Windows;10;undefined;undefined;1920 x 1080;1920 x 1080
H031;52;Mannelijk;Rechts;6;4;left;no;200;leftarrow;769;true;focus;yes;1136774;Chrome;112.0;Windows;10;undefined;undefined;1920 x 1080;1920 x 1080
H031;52;Mannelijk;Rechts;6;5;right;no;200;rightarrow;603;true;focus;yes;1138149;Chrome;112.0;Windows;10;undefined;undefined;1920 x 1080;1920 x 1080
H031;52;Mannelijk;Rechts;6;6;left;no;200;leftarrow;725;true;focus;yes;1139638;Chrome;112.0;Windows;10;undefined;undefined;1920 x 1080;1920 x 1080
H031;52;Mannelijk;Rechts;6;7;left;yes;200;undefined;null;true;focus;yes;1141653;Chrome;112.0;Windows;10;undefined;undefined;1920 x 1080;1920 x 1080
H031;52;Mannelijk;Rechts;6;8;left;no;250;leftarrow;412;true;focus;yes;1142830;Chrome;112.0;Windows;10;undefined;undefined;1920 x 1080;1920 x 1080
H031;52;Mannelijk;Rechts;6;9;right;no;250;rightarrow;630;true;focus;yes;1144246;Chrome;112.0;Windows;10;undefined;undefined;1920 x 1080;1920 x 1080
H031;52;Mannelijk;Rechts;6;10;left;no;250;leftarrow;503;true;focus;yes;1145518;Chrome;112.0;Windows;10;undefined;undefined;1920 x 1080;1920 x 1080
H031;52;Mannelijk;Rechts;6;11;left;yes;250;undefined;null;true;focus;yes;1147546;Chrome;112.0;Windows;10;undefined;undefined;1920 x 1080;1920 x 1080
H031;52;Mannelijk;Rechts;6;12;right;no;300;rightarrow;458;true;focus;yes;1148790;Chrome;112.0;Windows;10;undefined;undefined;1920 x 1080;1920 x 1080
H031;52;Mannelijk;Rechts;6;13;right;yes;300;rightarrow;468;false;focus;yes;1150022;Chrome;112.0;Windows;10;undefined;undefined;1920 x 1080;1920 x 1080
H031;52;Mannelijk;Rechts;6;14;left;no;250;leftarrow;450;true;focus;yes;1151230;Chrome;112.0;Windows;10;undefined;undefined;1920 x 1080;1920 x 1080
H031;52;Mannelijk;Rechts;6;15;right;no;250;rightarrow;744;true;focus;yes;1152758;Chrome;112.0;Windows;10;undefined;undefined;1920 x 1080;1920 x 1080
H031;52;Mannelijk;Rechts;6;16;left;no;250;leftarrow;510;true;focus;yes;1154038;Chrome;112.0;Windows;10;undefined;undefined;1920 x 1080;1920 x 1080
H031;52;Mannelijk;Rechts;6;17;right;no;250;rightarrow;496;true;focus;yes;1155302;Chrome;112.0;Windows;10;undefined;undefined;1920 x 1080;1920 x 1080
H031;52;Mannelijk;Rechts;6;18;right;no;250;rightarrow;501;true;focus;yes;1156583;Chrome;112.0;Windows;10;undefined;undefined;1920 x 1080;1920 x 1080
H031;52;Mannelijk;Rechts;6;19;left;no;250;leftarrow;516;true;focus;yes;1157878;Chrome;112.0;Windows;10;undefined;undefined;1920 x 1080;1920 x 1080
H031;52;Mannelijk;Rechts;6;20;left;no;250;leftarrow;679;true;focus;yes;1159342;Chrome;112.0;Windows;10;undefined;undefined;1920 x 1080;1920 x 1080
H031;52;Mannelijk;Rechts;6;21;right;no;250;rightarrow;663;true;focus;yes;1160782;Chrome;112.0;Windows;10;undefined;undefined;1920 x 1080;1920 x 1080
H031;52;Mannelijk;Rechts;6;22;left;no;250;leftarrow;632;true;focus;yes;1162174;Chrome;112.0;Windows;10;undefined;undefined;1920 x 1080;1920 x 1080
H031;52;Mannelijk;Rechts;6;23;left;yes;250;undefined;null;true;focus;yes;1164207;Chrome;112.0;Windows;10;undefined;undefined;1920 x 1080;1920 x 1080
