participantID;age;gender;handedness;block_i;trial_i;stim;signal;SSD;response;rt;correct;focus;Fullscreen;time_elapsed;browser_name;browser_version;os_name;os_version;tablet;mobile;screen_resolution;window_resolution
H034;54;Vrouwelijk;Rechts;0;1;left;no;200;leftarrow;693;true;focus;yes;141245;Firefox;112.0;Windows;10;undefined;undefined;1920 x 1080;1920 x 1080
H034;54;Vrouwelijk;Rechts;0;2;right;yes;200;rightarrow;460;false;focus;yes;143213;Firefox;112.0;Windows;10;undefined;undefined;1920 x 1080;1920 x 1080
H034;54;Vrouwelijk;Rechts;0;3;left;no;150;leftarrow;461;true;focus;yes;145187;Firefox;112.0;Windows;10;undefined;undefined;1920 x 1080;1920 x 1080
H034;54;Vrouwelijk;Rechts;0;4;right;no;150;rightarrow;480;true;focus;yes;147179;Firefox;112.0;Windows;10;undefined;undefined;1920 x 1080;1920 x 1080
H034;54;Vrouwelijk;Rechts;0;5;right;no;150;rightarrow;606;true;focus;yes;149294;Firefox;112.0;Windows;10;undefined;undefined;1920 x 1080;1920 x 1080
H034;54;Vrouwelijk;Rechts;0;6;left;yes;150;leftarrow;563;false;focus;yes;151363;Firefox;112.0;Windows;10;undefined;undefined;1920 x 1080;1920 x 1080
H034;54;Vrouwelijk;Rechts;0;7;right;no;100;rightarrow;648;true;focus;yes;153516;Firefox;112.0;Windows;10;undefined;undefined;1920 x 1080;1920 x 1080
H034;54;Vrouwelijk;Rechts;0;8;left;no;100;leftarrow;439;true;focus;yes;155461;Firefox;112.0;Windows;10;undefined;undefined;1920 x 1080;1920 x 1080
H034;54;Vrouwelijk;Rechts;1;1;left;yes;100;leftarrow;428;false;focus;yes;176013;Firefox;112.0;Windows;10;undefined;undefined;1920 x 1080;1920 x 1080
H034;54;Vrouwelijk;Rechts;1;2;left;no;50;leftarrow;509;true;focus;yes;177277;Firefox;112.0;Windows;10;undefined;undefined;1920 x 1080;1920 x 1080
H034;54;Vrouwelijk;Rechts;1;3;left;no;50;leftarrow;476;true;focus;yes;178508;Firefox;112.0;Windows;10;undefined;undefined;1920 x 1080;1920 x 1080
H034;54;Vrouwelijk;Rechts;1;4;right;no;50;rightarrow;571;true;focus;yes;179836;Firefox;112.0;Windows;10;undefined;undefined;1920 x 1080;1920 x 1080
H034;54;Vrouwelijk;Rechts;1;5;right;no;50;rightarrow;474;true;focus;yes;181069;Firefox;112.0;Windows;10;undefined;undefined;1920 x 1080;1920 x 1080
H034;54;Vrouwelijk;Rechts;1;6;right;no;50;rightarrow;401;true;focus;yes;182229;Firefox;112.0;Windows;10;undefined;undefined;1920 x 1080;1920 x 1080
H034;54;Vrouwelijk;Rechts;1;7;right;yes;50;undefined;null;true;focus;yes;184240;Firefox;112.0;Windows;10;undefined;undefined;1920 x 1080;1920 x 1080
H034;54;Vrouwelijk;Rechts;1;8;left;no;100;leftarrow;341;true;focus;yes;185341;Firefox;112.0;Windows;10;undefined;undefined;1920 x 1080;1920 x 1080
H034;54;Vrouwelijk;Rechts;1;9;left;no;100;leftarrow;396;true;focus;yes;186493;Firefox;112.0;Windows;10;undefined;undefined;1920 x 1080;1920 x 1080
H034;54;Vrouwelijk;Rechts;1;10;left;no;100;leftarrow;463;true;focus;yes;187717;Firefox;112.0;Windows;10;undefined;undefined;1920 x 1080;1920 x 1080
H034;54;Vrouwelijk;Rechts;1;11;right;yes;100;undefined;null;true;focus;yes;189730;Firefox;112.0;Windows;10;undefined;undefined;1920 x 1080;1920 x 1080
H034;54;Vrouwelijk;Rechts;1;12;left;yes;150;leftarrow;431;false;focus;yes;190917;Firefox;112.0;Windows;10;undefined;undefined;1920 x 1080;1920 x 1080
H034;54;Vrouwelijk;Rechts;1;13;right;no;100;rightarrow;537;true;focus;yes;192212;Firefox;112.0;Windows;10;undefined;undefined;1920 x 1080;1920 x 1080
H034;54;Vrouwelijk;Rechts;1;14;right;no;100;rightarrow;490;true;focus;yes;193461;Firefox;112.0;Windows;10;undefined;undefined;1920 x 1080;1920 x 1080
H034;54;Vrouwelijk;Rechts;1;15;right;no;100;rightarrow;645;true;focus;yes;194861;Firefox;112.0;Windows;10;undefined;undefined;1920 x 1080;1920 x 1080
H034;54;Vrouwelijk;Rechts;1;16;left;no;100;leftarrow;534;true;focus;yes;196157;Firefox;112.0;Windows;10;undefined;undefined;1920 x 1080;1920 x 1080
H034;54;Vrouwelijk;Rechts;1;17;left;no;100;leftarrow;456;true;focus;yes;197373;Firefox;112.0;Windows;10;undefined;undefined;1920 x 1080;1920 x 1080
H034;54;Vrouwelijk;Rechts;1;18;left;no;100;leftarrow;434;true;focus;yes;198573;Firefox;112.0;Windows;10;undefined;undefined;1920 x 1080;1920 x 1080
H034;54;Vrouwelijk;Rechts;1;19;right;no;100;leftarrow;453;false;focus;yes;199789;Firefox;112.0;Windows;10;undefined;undefined;1920 x 1080;1920 x 1080
H034;54;Vrouwelijk;Rechts;1;20;right;no;100;rightarrow;616;true;focus;yes;201164;Firefox;112.0;Windows;10;undefined;undefined;1920 x 1080;1920 x 1080
H034;54;Vrouwelijk;Rechts;1;21;left;no;100;leftarrow;521;true;focus;yes;202446;Firefox;112.0;Windows;10;undefined;undefined;1920 x 1080;1920 x 1080
H034;54;Vrouwelijk;Rechts;1;22;right;no;100;rightarrow;457;true;focus;yes;203661;Firefox;112.0;Windows;10;undefined;undefined;1920 x 1080;1920 x 1080
H034;54;Vrouwelijk;Rechts;1;23;left;yes;100;undefined;null;true;focus;yes;205670;Firefox;112.0;Windows;10;undefined;undefined;1920 x 1080;1920 x 1080
H034;54;Vrouwelijk;Rechts;1;24;right;yes;150;undefined;null;true;focus;yes;207680;Firefox;112.0;Windows;10;undefined;undefined;1920 x 1080;1920 x 1080
H034;54;Vrouwelijk;Rechts;1;25;left;no;200;leftarrow;473;true;focus;yes;208909;Firefox;112.0;Windows;10;undefined;undefined;1920 x 1080;1920 x 1080
H034;54;Vrouwelijk;Rechts;1;26;right;no;200;rightarrow;477;true;focus;yes;210141;Firefox;112.0;Windows;10;undefined;undefined;1920 x 1080;1920 x 1080
H034;54;Vrouwelijk;Rechts;1;27;left;yes;200;leftarrow;603;false;focus;yes;211501;Firefox;112.0;Windows;10;undefined;undefined;1920 x 1080;1920 x 1080
H034;54;Vrouwelijk;Rechts;1;28;right;yes;150;undefined;null;true;focus;yes;213510;Firefox;112.0;Windows;10;undefined;undefined;1920 x 1080;1920 x 1080
H034;54;Vrouwelijk;Rechts;1;29;left;no;200;leftarrow;464;true;focus;yes;214733;Firefox;112.0;Windows;10;undefined;undefined;1920 x 1080;1920 x 1080
H034;54;Vrouwelijk;Rechts;1;30;right;no;200;rightarrow;490;true;focus;yes;215980;Firefox;112.0;Windows;10;undefined;undefined;1920 x 1080;1920 x 1080
H034;54;Vrouwelijk;Rechts;1;31;left;no;200;leftarrow;719;true;focus;yes;217459;Firefox;112.0;Windows;10;undefined;undefined;1920 x 1080;1920 x 1080
H034;54;Vrouwelijk;Rechts;1;32;right;no;200;rightarrow;597;true;focus;yes;218813;Firefox;112.0;Windows;10;undefined;undefined;1920 x 1080;1920 x 1080
H034;54;Vrouwelijk;Rechts;1;33;right;no;200;rightarrow;562;true;focus;yes;220133;Firefox;112.0;Windows;10;undefined;undefined;1920 x 1080;1920 x 1080
H034;54;Vrouwelijk;Rechts;1;34;left;no;200;leftarrow;497;true;focus;yes;221389;Firefox;112.0;Windows;10;undefined;undefined;1920 x 1080;1920 x 1080
H034;54;Vrouwelijk;Rechts;1;35;left;no;200;leftarrow;515;true;focus;yes;222660;Firefox;112.0;Windows;10;undefined;undefined;1920 x 1080;1920 x 1080
H034;54;Vrouwelijk;Rechts;1;36;right;yes;200;undefined;null;true;focus;yes;224672;Firefox;112.0;Windows;10;undefined;undefined;1920 x 1080;1920 x 1080
H034;54;Vrouwelijk;Rechts;1;37;right;no;250;rightarrow;600;true;focus;yes;226029;Firefox;112.0;Windows;10;undefined;undefined;1920 x 1080;1920 x 1080
H034;54;Vrouwelijk;Rechts;1;38;left;no;250;leftarrow;480;true;focus;yes;227269;Firefox;112.0;Windows;10;undefined;undefined;1920 x 1080;1920 x 1080
H034;54;Vrouwelijk;Rechts;1;39;left;yes;250;undefined;null;true;focus;yes;229277;Firefox;112.0;Windows;10;undefined;undefined;1920 x 1080;1920 x 1080
H034;54;Vrouwelijk;Rechts;1;40;right;no;300;rightarrow;444;true;focus;yes;230477;Firefox;112.0;Windows;10;undefined;undefined;1920 x 1080;1920 x 1080
H034;54;Vrouwelijk;Rechts;1;41;right;yes;300;rightarrow;428;false;focus;yes;231661;Firefox;112.0;Windows;10;undefined;undefined;1920 x 1080;1920 x 1080
H034;54;Vrouwelijk;Rechts;1;42;right;no;250;rightarrow;597;true;focus;yes;233012;Firefox;112.0;Windows;10;undefined;undefined;1920 x 1080;1920 x 1080
H034;54;Vrouwelijk;Rechts;1;43;left;yes;250;undefined;null;true;focus;yes;235020;Firefox;112.0;Windows;10;undefined;undefined;1920 x 1080;1920 x 1080
H034;54;Vrouwelijk;Rechts;1;44;left;no;300;leftarrow;561;true;focus;yes;236341;Firefox;112.0;Windows;10;undefined;undefined;1920 x 1080;1920 x 1080
H034;54;Vrouwelijk;Rechts;1;45;left;no;300;leftarrow;619;true;focus;yes;237717;Firefox;112.0;Windows;10;undefined;undefined;1920 x 1080;1920 x 1080
H034;54;Vrouwelijk;Rechts;1;46;left;no;300;leftarrow;671;true;focus;yes;239149;Firefox;112.0;Windows;10;undefined;undefined;1920 x 1080;1920 x 1080
H034;54;Vrouwelijk;Rechts;1;47;right;no;300;rightarrow;605;true;focus;yes;240509;Firefox;112.0;Windows;10;undefined;undefined;1920 x 1080;1920 x 1080
H034;54;Vrouwelijk;Rechts;1;48;right;no;300;rightarrow;604;true;focus;yes;241869;Firefox;112.0;Windows;10;undefined;undefined;1920 x 1080;1920 x 1080
H034;54;Vrouwelijk;Rechts;1;49;right;yes;300;undefined;null;true;focus;yes;243875;Firefox;112.0;Windows;10;undefined;undefined;1920 x 1080;1920 x 1080
H034;54;Vrouwelijk;Rechts;1;50;right;no;350;rightarrow;646;true;focus;yes;245277;Firefox;112.0;Windows;10;undefined;undefined;1920 x 1080;1920 x 1080
H034;54;Vrouwelijk;Rechts;1;51;left;no;350;leftarrow;507;true;focus;yes;246541;Firefox;112.0;Windows;10;undefined;undefined;1920 x 1080;1920 x 1080
H034;54;Vrouwelijk;Rechts;1;52;right;no;350;rightarrow;509;true;focus;yes;247805;Firefox;112.0;Windows;10;undefined;undefined;1920 x 1080;1920 x 1080
H034;54;Vrouwelijk;Rechts;1;53;left;yes;350;leftarrow;557;false;focus;yes;249117;Firefox;112.0;Windows;10;undefined;undefined;1920 x 1080;1920 x 1080
H034;54;Vrouwelijk;Rechts;1;54;right;no;300;rightarrow;519;true;focus;yes;250389;Firefox;112.0;Windows;10;undefined;undefined;1920 x 1080;1920 x 1080
H034;54;Vrouwelijk;Rechts;1;55;left;no;300;leftarrow;621;true;focus;yes;251764;Firefox;112.0;Windows;10;undefined;undefined;1920 x 1080;1920 x 1080
H034;54;Vrouwelijk;Rechts;1;56;left;no;300;leftarrow;652;true;focus;yes;253173;Firefox;112.0;Windows;10;undefined;undefined;1920 x 1080;1920 x 1080
H034;54;Vrouwelijk;Rechts;1;57;left;yes;300;undefined;null;true;focus;yes;255178;Firefox;112.0;Windows;10;undefined;undefined;1920 x 1080;1920 x 1080
H034;54;Vrouwelijk;Rechts;1;58;left;no;350;leftarrow;551;true;focus;yes;256485;Firefox;112.0;Windows;10;undefined;undefined;1920 x 1080;1920 x 1080
H034;54;Vrouwelijk;Rechts;1;59;right;no;350;rightarrow;509;true;focus;yes;257749;Firefox;112.0;Windows;10;undefined;undefined;1920 x 1080;1920 x 1080
H034;54;Vrouwelijk;Rechts;1;60;right;yes;350;undefined;null;true;focus;yes;259755;Firefox;112.0;Windows;10;undefined;undefined;1920 x 1080;1920 x 1080
H034;54;Vrouwelijk;Rechts;1;61;left;no;400;leftarrow;504;true;focus;yes;261013;Firefox;112.0;Windows;10;undefined;undefined;1920 x 1080;1920 x 1080
H034;54;Vrouwelijk;Rechts;1;62;right;no;400;rightarrow;549;true;focus;yes;262317;Firefox;112.0;Windows;10;undefined;undefined;1920 x 1080;1920 x 1080
H034;54;Vrouwelijk;Rechts;1;63;left;no;400;leftarrow;444;true;focus;yes;263517;Firefox;112.0;Windows;10;undefined;undefined;1920 x 1080;1920 x 1080
H034;54;Vrouwelijk;Rechts;1;64;right;no;400;rightarrow;501;true;focus;yes;264773;Firefox;112.0;Windows;10;undefined;undefined;1920 x 1080;1920 x 1080
H034;54;Vrouwelijk;Rechts;1;65;left;no;400;leftarrow;531;true;focus;yes;266061;Firefox;112.0;Windows;10;undefined;undefined;1920 x 1080;1920 x 1080
H034;54;Vrouwelijk;Rechts;1;66;right;no;400;rightarrow;635;true;focus;yes;267453;Firefox;112.0;Windows;10;undefined;undefined;1920 x 1080;1920 x 1080
H034;54;Vrouwelijk;Rechts;1;67;left;no;400;leftarrow;504;true;focus;yes;268715;Firefox;112.0;Windows;10;undefined;undefined;1920 x 1080;1920 x 1080
H034;54;Vrouwelijk;Rechts;1;68;left;no;400;leftarrow;680;true;focus;yes;270149;Firefox;112.0;Windows;10;undefined;undefined;1920 x 1080;1920 x 1080
H034;54;Vrouwelijk;Rechts;1;69;left;yes;400;leftarrow;668;false;focus;yes;271573;Firefox;112.0;Windows;10;undefined;undefined;1920 x 1080;1920 x 1080
H034;54;Vrouwelijk;Rechts;1;70;right;no;350;rightarrow;548;true;focus;yes;272876;Firefox;112.0;Windows;10;undefined;undefined;1920 x 1080;1920 x 1080
H034;54;Vrouwelijk;Rechts;1;71;right;yes;350;rightarrow;594;false;focus;yes;274229;Firefox;112.0;Windows;10;undefined;undefined;1920 x 1080;1920 x 1080
H034;54;Vrouwelijk;Rechts;1;72;right;no;300;rightarrow;980;true;focus;yes;275965;Firefox;112.0;Windows;10;undefined;undefined;1920 x 1080;1920 x 1080
H034;54;Vrouwelijk;Rechts;1;73;right;no;300;rightarrow;558;true;focus;yes;277277;Firefox;112.0;Windows;10;undefined;undefined;1920 x 1080;1920 x 1080
H034;54;Vrouwelijk;Rechts;1;74;left;no;300;leftarrow;556;true;focus;yes;278589;Firefox;112.0;Windows;10;undefined;undefined;1920 x 1080;1920 x 1080
H034;54;Vrouwelijk;Rechts;1;75;left;no;300;leftarrow;630;true;focus;yes;279973;Firefox;112.0;Windows;10;undefined;undefined;1920 x 1080;1920 x 1080
H034;54;Vrouwelijk;Rechts;1;76;left;no;300;leftarrow;621;true;focus;yes;281349;Firefox;112.0;Windows;10;undefined;undefined;1920 x 1080;1920 x 1080
H034;54;Vrouwelijk;Rechts;1;77;right;yes;300;undefined;null;true;focus;yes;283355;Firefox;112.0;Windows;10;undefined;undefined;1920 x 1080;1920 x 1080
H034;54;Vrouwelijk;Rechts;1;78;left;yes;350;undefined;null;true;focus;yes;285367;Firefox;112.0;Windows;10;undefined;undefined;1920 x 1080;1920 x 1080
H034;54;Vrouwelijk;Rechts;1;79;right;no;400;rightarrow;574;true;focus;yes;286701;Firefox;112.0;Windows;10;undefined;undefined;1920 x 1080;1920 x 1080
H034;54;Vrouwelijk;Rechts;1;80;right;no;400;rightarrow;637;true;focus;yes;288093;Firefox;112.0;Windows;10;undefined;undefined;1920 x 1080;1920 x 1080
H034;54;Vrouwelijk;Rechts;1;81;left;no;400;leftarrow;555;true;focus;yes;289403;Firefox;112.0;Windows;10;undefined;undefined;1920 x 1080;1920 x 1080
H034;54;Vrouwelijk;Rechts;1;82;right;no;400;rightarrow;654;true;focus;yes;290813;Firefox;112.0;Windows;10;undefined;undefined;1920 x 1080;1920 x 1080
H034;54;Vrouwelijk;Rechts;1;83;right;no;400;rightarrow;609;true;focus;yes;292180;Firefox;112.0;Windows;10;undefined;undefined;1920 x 1080;1920 x 1080
H034;54;Vrouwelijk;Rechts;1;84;right;no;400;rightarrow;546;true;focus;yes;293485;Firefox;112.0;Windows;10;undefined;undefined;1920 x 1080;1920 x 1080
H034;54;Vrouwelijk;Rechts;1;85;left;yes;400;undefined;null;true;focus;yes;295495;Firefox;112.0;Windows;10;undefined;undefined;1920 x 1080;1920 x 1080
H034;54;Vrouwelijk;Rechts;1;86;left;no;450;leftarrow;633;true;focus;yes;296885;Firefox;112.0;Windows;10;undefined;undefined;1920 x 1080;1920 x 1080
H034;54;Vrouwelijk;Rechts;1;87;right;yes;450;rightarrow;512;false;focus;yes;298157;Firefox;112.0;Windows;10;undefined;undefined;1920 x 1080;1920 x 1080
H034;54;Vrouwelijk;Rechts;1;88;left;no;400;leftarrow;531;true;focus;yes;299445;Firefox;112.0;Windows;10;undefined;undefined;1920 x 1080;1920 x 1080
H034;54;Vrouwelijk;Rechts;1;89;right;yes;400;undefined;null;true;focus;yes;301462;Firefox;112.0;Windows;10;undefined;undefined;1920 x 1080;1920 x 1080
H034;54;Vrouwelijk;Rechts;1;90;left;no;450;leftarrow;600;true;focus;yes;302821;Firefox;112.0;Windows;10;undefined;undefined;1920 x 1080;1920 x 1080
H034;54;Vrouwelijk;Rechts;1;91;right;no;450;rightarrow;863;true;focus;yes;304452;Firefox;112.0;Windows;10;undefined;undefined;1920 x 1080;1920 x 1080
H034;54;Vrouwelijk;Rechts;1;92;right;no;450;rightarrow;511;true;focus;yes;305725;Firefox;112.0;Windows;10;undefined;undefined;1920 x 1080;1920 x 1080
H034;54;Vrouwelijk;Rechts;1;93;left;no;450;leftarrow;479;true;focus;yes;306965;Firefox;112.0;Windows;10;undefined;undefined;1920 x 1080;1920 x 1080
H034;54;Vrouwelijk;Rechts;1;94;right;no;450;rightarrow;553;true;focus;yes;308276;Firefox;112.0;Windows;10;undefined;undefined;1920 x 1080;1920 x 1080
H034;54;Vrouwelijk;Rechts;1;95;left;yes;450;leftarrow;521;false;focus;yes;309555;Firefox;112.0;Windows;10;undefined;undefined;1920 x 1080;1920 x 1080
H034;54;Vrouwelijk;Rechts;1;96;left;no;400;leftarrow;580;true;focus;yes;310892;Firefox;112.0;Windows;10;undefined;undefined;1920 x 1080;1920 x 1080
H034;54;Vrouwelijk;Rechts;1;97;left;no;400;leftarrow;448;true;focus;yes;312101;Firefox;112.0;Windows;10;undefined;undefined;1920 x 1080;1920 x 1080
H034;54;Vrouwelijk;Rechts;1;98;left;no;400;leftarrow;645;true;focus;yes;313508;Firefox;112.0;Windows;10;undefined;undefined;1920 x 1080;1920 x 1080
H034;54;Vrouwelijk;Rechts;1;99;left;yes;400;leftarrow;587;false;focus;yes;314853;Firefox;112.0;Windows;10;undefined;undefined;1920 x 1080;1920 x 1080
H034;54;Vrouwelijk;Rechts;1;100;left;no;350;leftarrow;1009;true;focus;yes;316621;Firefox;112.0;Windows;10;undefined;undefined;1920 x 1080;1920 x 1080
H034;54;Vrouwelijk;Rechts;1;101;right;no;350;rightarrow;539;true;focus;yes;317917;Firefox;112.0;Windows;10;undefined;undefined;1920 x 1080;1920 x 1080
H034;54;Vrouwelijk;Rechts;1;102;right;no;350;rightarrow;524;true;focus;yes;319197;Firefox;112.0;Windows;10;undefined;undefined;1920 x 1080;1920 x 1080
H034;54;Vrouwelijk;Rechts;1;103;right;no;350;rightarrow;493;true;focus;yes;320453;Firefox;112.0;Windows;10;undefined;undefined;1920 x 1080;1920 x 1080
H034;54;Vrouwelijk;Rechts;1;104;right;yes;350;rightarrow;535;false;focus;yes;321749;Firefox;112.0;Windows;10;undefined;undefined;1920 x 1080;1920 x 1080
H034;54;Vrouwelijk;Rechts;1;105;right;yes;300;undefined;null;true;focus;yes;323766;Firefox;112.0;Windows;10;undefined;undefined;1920 x 1080;1920 x 1080
H034;54;Vrouwelijk;Rechts;1;106;left;no;350;leftarrow;612;true;focus;yes;325141;Firefox;112.0;Windows;10;undefined;undefined;1920 x 1080;1920 x 1080
H034;54;Vrouwelijk;Rechts;1;107;right;no;350;rightarrow;550;true;focus;yes;326453;Firefox;112.0;Windows;10;undefined;undefined;1920 x 1080;1920 x 1080
H034;54;Vrouwelijk;Rechts;1;108;right;no;350;rightarrow;552;true;focus;yes;327765;Firefox;112.0;Windows;10;undefined;undefined;1920 x 1080;1920 x 1080
H034;54;Vrouwelijk;Rechts;1;109;left;no;350;leftarrow;471;true;focus;yes;328996;Firefox;112.0;Windows;10;undefined;undefined;1920 x 1080;1920 x 1080
H034;54;Vrouwelijk;Rechts;1;110;left;no;350;leftarrow;467;true;focus;yes;330220;Firefox;112.0;Windows;10;undefined;undefined;1920 x 1080;1920 x 1080
H034;54;Vrouwelijk;Rechts;1;111;left;yes;350;leftarrow;588;false;focus;yes;331565;Firefox;112.0;Windows;10;undefined;undefined;1920 x 1080;1920 x 1080
H034;54;Vrouwelijk;Rechts;1;112;right;no;300;rightarrow;553;true;focus;yes;332877;Firefox;112.0;Windows;10;undefined;undefined;1920 x 1080;1920 x 1080
H034;54;Vrouwelijk;Rechts;1;113;left;yes;300;undefined;null;true;focus;yes;334890;Firefox;112.0;Windows;10;undefined;undefined;1920 x 1080;1920 x 1080
H034;54;Vrouwelijk;Rechts;1;114;right;no;350;rightarrow;724;true;focus;yes;336372;Firefox;112.0;Windows;10;undefined;undefined;1920 x 1080;1920 x 1080
H034;54;Vrouwelijk;Rechts;1;115;left;no;350;leftarrow;614;true;focus;yes;337747;Firefox;112.0;Windows;10;undefined;undefined;1920 x 1080;1920 x 1080
H034;54;Vrouwelijk;Rechts;1;116;right;no;350;rightarrow;549;true;focus;yes;339053;Firefox;112.0;Windows;10;undefined;undefined;1920 x 1080;1920 x 1080
H034;54;Vrouwelijk;Rechts;1;117;left;no;350;leftarrow;699;true;focus;yes;340508;Firefox;112.0;Windows;10;undefined;undefined;1920 x 1080;1920 x 1080
H034;54;Vrouwelijk;Rechts;1;118;left;no;350;leftarrow;790;true;focus;yes;342061;Firefox;112.0;Windows;10;undefined;undefined;1920 x 1080;1920 x 1080
H034;54;Vrouwelijk;Rechts;1;119;right;yes;350;undefined;null;true;focus;yes;344069;Firefox;112.0;Windows;10;undefined;undefined;1920 x 1080;1920 x 1080
H034;54;Vrouwelijk;Rechts;1;120;right;no;400;rightarrow;781;true;focus;yes;345605;Firefox;112.0;Windows;10;undefined;undefined;1920 x 1080;1920 x 1080
H034;54;Vrouwelijk;Rechts;1;121;left;no;400;leftarrow;779;true;focus;yes;347149;Firefox;112.0;Windows;10;undefined;undefined;1920 x 1080;1920 x 1080
H034;54;Vrouwelijk;Rechts;1;122;left;no;400;leftarrow;726;true;focus;yes;348637;Firefox;112.0;Windows;10;undefined;undefined;1920 x 1080;1920 x 1080
H034;54;Vrouwelijk;Rechts;1;123;right;no;400;rightarrow;731;true;focus;yes;350125;Firefox;112.0;Windows;10;undefined;undefined;1920 x 1080;1920 x 1080
H034;54;Vrouwelijk;Rechts;1;124;left;no;400;leftarrow;848;true;focus;yes;351741;Firefox;112.0;Windows;10;undefined;undefined;1920 x 1080;1920 x 1080
H034;54;Vrouwelijk;Rechts;1;125;right;no;400;rightarrow;780;true;focus;yes;353277;Firefox;112.0;Windows;10;undefined;undefined;1920 x 1080;1920 x 1080
H034;54;Vrouwelijk;Rechts;1;126;left;yes;400;undefined;null;true;focus;yes;355292;Firefox;112.0;Windows;10;undefined;undefined;1920 x 1080;1920 x 1080
H034;54;Vrouwelijk;Rechts;1;127;right;no;450;rightarrow;931;true;focus;yes;356989;Firefox;112.0;Windows;10;undefined;undefined;1920 x 1080;1920 x 1080
H034;54;Vrouwelijk;Rechts;1;128;right;yes;450;rightarrow;629;false;focus;yes;358381;Firefox;112.0;Windows;10;undefined;undefined;1920 x 1080;1920 x 1080
H034;54;Vrouwelijk;Rechts;2;1;left;yes;400;leftarrow;621;false;focus;yes;378533;Firefox;112.0;Windows;10;undefined;undefined;1920 x 1080;1920 x 1080
H034;54;Vrouwelijk;Rechts;2;2;left;no;350;leftarrow;948;true;focus;yes;380238;Firefox;112.0;Windows;10;undefined;undefined;1920 x 1080;1920 x 1080
H034;54;Vrouwelijk;Rechts;2;3;right;no;350;rightarrow;703;true;focus;yes;381701;Firefox;112.0;Windows;10;undefined;undefined;1920 x 1080;1920 x 1080
H034;54;Vrouwelijk;Rechts;2;4;right;no;350;rightarrow;713;true;focus;yes;383174;Firefox;112.0;Windows;10;undefined;undefined;1920 x 1080;1920 x 1080
H034;54;Vrouwelijk;Rechts;2;5;left;no;350;leftarrow;513;true;focus;yes;384446;Firefox;112.0;Windows;10;undefined;undefined;1920 x 1080;1920 x 1080
H034;54;Vrouwelijk;Rechts;2;6;left;no;350;leftarrow;665;true;focus;yes;385869;Firefox;112.0;Windows;10;undefined;undefined;1920 x 1080;1920 x 1080
H034;54;Vrouwelijk;Rechts;2;7;right;yes;350;rightarrow;563;false;focus;yes;387189;Firefox;112.0;Windows;10;undefined;undefined;1920 x 1080;1920 x 1080
H034;54;Vrouwelijk;Rechts;2;8;right;no;300;rightarrow;579;true;focus;yes;388525;Firefox;112.0;Windows;10;undefined;undefined;1920 x 1080;1920 x 1080
H034;54;Vrouwelijk;Rechts;2;9;right;no;300;rightarrow;797;true;focus;yes;390077;Firefox;112.0;Windows;10;undefined;undefined;1920 x 1080;1920 x 1080
H034;54;Vrouwelijk;Rechts;2;10;left;no;300;leftarrow;514;true;focus;yes;391349;Firefox;112.0;Windows;10;undefined;undefined;1920 x 1080;1920 x 1080
H034;54;Vrouwelijk;Rechts;2;11;left;yes;300;undefined;null;true;focus;yes;393363;Firefox;112.0;Windows;10;undefined;undefined;1920 x 1080;1920 x 1080
H034;54;Vrouwelijk;Rechts;2;12;right;no;350;rightarrow;662;true;focus;yes;394789;Firefox;112.0;Windows;10;undefined;undefined;1920 x 1080;1920 x 1080
H034;54;Vrouwelijk;Rechts;2;13;left;no;350;leftarrow;705;true;focus;yes;396251;Firefox;112.0;Windows;10;undefined;undefined;1920 x 1080;1920 x 1080
H034;54;Vrouwelijk;Rechts;2;14;right;yes;350;undefined;null;true;focus;yes;398262;Firefox;112.0;Windows;10;undefined;undefined;1920 x 1080;1920 x 1080
H034;54;Vrouwelijk;Rechts;2;15;right;no;400;rightarrow;770;true;focus;yes;399789;Firefox;112.0;Windows;10;undefined;undefined;1920 x 1080;1920 x 1080
H034;54;Vrouwelijk;Rechts;2;16;left;no;400;leftarrow;824;true;focus;yes;401372;Firefox;112.0;Windows;10;undefined;undefined;1920 x 1080;1920 x 1080
H034;54;Vrouwelijk;Rechts;2;17;left;yes;400;leftarrow;540;false;focus;yes;402669;Firefox;112.0;Windows;10;undefined;undefined;1920 x 1080;1920 x 1080
H034;54;Vrouwelijk;Rechts;2;18;left;no;350;leftarrow;692;true;focus;yes;404116;Firefox;112.0;Windows;10;undefined;undefined;1920 x 1080;1920 x 1080
H034;54;Vrouwelijk;Rechts;2;19;right;no;350;rightarrow;609;true;focus;yes;405485;Firefox;112.0;Windows;10;undefined;undefined;1920 x 1080;1920 x 1080
H034;54;Vrouwelijk;Rechts;2;20;right;yes;350;undefined;null;true;focus;yes;407497;Firefox;112.0;Windows;10;undefined;undefined;1920 x 1080;1920 x 1080
H034;54;Vrouwelijk;Rechts;2;21;right;no;400;rightarrow;833;true;focus;yes;409093;Firefox;112.0;Windows;10;undefined;undefined;1920 x 1080;1920 x 1080
H034;54;Vrouwelijk;Rechts;2;22;left;no;400;leftarrow;477;true;focus;yes;410333;Firefox;112.0;Windows;10;undefined;undefined;1920 x 1080;1920 x 1080
H034;54;Vrouwelijk;Rechts;2;23;right;no;400;rightarrow;687;true;focus;yes;411781;Firefox;112.0;Windows;10;undefined;undefined;1920 x 1080;1920 x 1080
H034;54;Vrouwelijk;Rechts;2;24;left;no;400;leftarrow;585;true;focus;yes;413125;Firefox;112.0;Windows;10;undefined;undefined;1920 x 1080;1920 x 1080
H034;54;Vrouwelijk;Rechts;2;25;left;no;400;leftarrow;906;true;focus;yes;414789;Firefox;112.0;Windows;10;undefined;undefined;1920 x 1080;1920 x 1080
H034;54;Vrouwelijk;Rechts;2;26;right;no;400;rightarrow;1137;true;focus;yes;416685;Firefox;112.0;Windows;10;undefined;undefined;1920 x 1080;1920 x 1080
H034;54;Vrouwelijk;Rechts;2;27;right;no;400;rightarrow;552;true;focus;yes;417997;Firefox;112.0;Windows;10;undefined;undefined;1920 x 1080;1920 x 1080
H034;54;Vrouwelijk;Rechts;2;28;left;yes;400;undefined;null;true;focus;yes;420015;Firefox;112.0;Windows;10;undefined;undefined;1920 x 1080;1920 x 1080
H034;54;Vrouwelijk;Rechts;2;29;left;no;450;leftarrow;677;true;focus;yes;421451;Firefox;112.0;Windows;10;undefined;undefined;1920 x 1080;1920 x 1080
H034;54;Vrouwelijk;Rechts;2;30;left;no;450;leftarrow;648;true;focus;yes;422861;Firefox;112.0;Windows;10;undefined;undefined;1920 x 1080;1920 x 1080
H034;54;Vrouwelijk;Rechts;2;31;right;no;450;rightarrow;939;true;focus;yes;424563;Firefox;112.0;Windows;10;undefined;undefined;1920 x 1080;1920 x 1080
H034;54;Vrouwelijk;Rechts;2;32;right;yes;450;undefined;null;true;focus;yes;426582;Firefox;112.0;Windows;10;undefined;undefined;1920 x 1080;1920 x 1080
H034;54;Vrouwelijk;Rechts;2;33;right;no;500;rightarrow;635;true;focus;yes;427980;Firefox;112.0;Windows;10;undefined;undefined;1920 x 1080;1920 x 1080
H034;54;Vrouwelijk;Rechts;2;34;right;yes;500;undefined;null;true;focus;yes;429997;Firefox;112.0;Windows;10;undefined;undefined;1920 x 1080;1920 x 1080
H034;54;Vrouwelijk;Rechts;2;35;right;no;550;rightarrow;744;true;focus;yes;431509;Firefox;112.0;Windows;10;undefined;undefined;1920 x 1080;1920 x 1080
H034;54;Vrouwelijk;Rechts;2;36;left;yes;550;leftarrow;832;false;focus;yes;433108;Firefox;112.0;Windows;10;undefined;undefined;1920 x 1080;1920 x 1080
H034;54;Vrouwelijk;Rechts;2;37;left;no;500;leftarrow;851;true;focus;yes;434726;Firefox;112.0;Windows;10;undefined;undefined;1920 x 1080;1920 x 1080
H034;54;Vrouwelijk;Rechts;2;38;right;no;500;rightarrow;744;true;focus;yes;436237;Firefox;112.0;Windows;10;undefined;undefined;1920 x 1080;1920 x 1080
H034;54;Vrouwelijk;Rechts;2;39;left;no;500;leftarrow;620;true;focus;yes;437621;Firefox;112.0;Windows;10;undefined;undefined;1920 x 1080;1920 x 1080
H034;54;Vrouwelijk;Rechts;2;40;left;no;500;leftarrow;770;true;focus;yes;439149;Firefox;112.0;Windows;10;undefined;undefined;1920 x 1080;1920 x 1080
H034;54;Vrouwelijk;Rechts;2;41;left;no;500;leftarrow;700;true;focus;yes;440612;Firefox;112.0;Windows;10;undefined;undefined;1920 x 1080;1920 x 1080
H034;54;Vrouwelijk;Rechts;2;42;left;no;500;leftarrow;711;true;focus;yes;442083;Firefox;112.0;Windows;10;undefined;undefined;1920 x 1080;1920 x 1080
H034;54;Vrouwelijk;Rechts;2;43;right;yes;500;rightarrow;691;false;focus;yes;443533;Firefox;112.0;Windows;10;undefined;undefined;1920 x 1080;1920 x 1080
H034;54;Vrouwelijk;Rechts;2;44;left;no;450;leftarrow;727;true;focus;yes;445020;Firefox;112.0;Windows;10;undefined;undefined;1920 x 1080;1920 x 1080
H034;54;Vrouwelijk;Rechts;2;45;right;no;450;rightarrow;749;true;focus;yes;446525;Firefox;112.0;Windows;10;undefined;undefined;1920 x 1080;1920 x 1080
H034;54;Vrouwelijk;Rechts;2;46;left;yes;450;leftarrow;672;false;focus;yes;447955;Firefox;112.0;Windows;10;undefined;undefined;1920 x 1080;1920 x 1080
H034;54;Vrouwelijk;Rechts;2;47;right;no;400;rightarrow;618;true;focus;yes;449331;Firefox;112.0;Windows;10;undefined;undefined;1920 x 1080;1920 x 1080
H034;54;Vrouwelijk;Rechts;2;48;right;no;400;rightarrow;815;true;focus;yes;450901;Firefox;112.0;Windows;10;undefined;undefined;1920 x 1080;1920 x 1080
H034;54;Vrouwelijk;Rechts;2;49;left;no;400;leftarrow;580;true;focus;yes;452236;Firefox;112.0;Windows;10;undefined;undefined;1920 x 1080;1920 x 1080
H034;54;Vrouwelijk;Rechts;2;50;left;no;400;leftarrow;613;true;focus;yes;453603;Firefox;112.0;Windows;10;undefined;undefined;1920 x 1080;1920 x 1080
H034;54;Vrouwelijk;Rechts;2;51;right;no;400;rightarrow;524;true;focus;yes;454884;Firefox;112.0;Windows;10;undefined;undefined;1920 x 1080;1920 x 1080
H034;54;Vrouwelijk;Rechts;2;52;right;no;400;rightarrow;557;true;focus;yes;456197;Firefox;112.0;Windows;10;undefined;undefined;1920 x 1080;1920 x 1080
H034;54;Vrouwelijk;Rechts;2;53;left;yes;400;leftarrow;625;false;focus;yes;457579;Firefox;112.0;Windows;10;undefined;undefined;1920 x 1080;1920 x 1080
H034;54;Vrouwelijk;Rechts;2;54;left;no;350;leftarrow;688;true;focus;yes;459021;Firefox;112.0;Windows;10;undefined;undefined;1920 x 1080;1920 x 1080
H034;54;Vrouwelijk;Rechts;2;55;right;yes;350;rightarrow;651;false;focus;yes;460429;Firefox;112.0;Windows;10;undefined;undefined;1920 x 1080;1920 x 1080
H034;54;Vrouwelijk;Rechts;2;56;right;no;300;rightarrow;587;true;focus;yes;461773;Firefox;112.0;Windows;10;undefined;undefined;1920 x 1080;1920 x 1080
H034;54;Vrouwelijk;Rechts;2;57;left;no;300;leftarrow;563;true;focus;yes;463094;Firefox;112.0;Windows;10;undefined;undefined;1920 x 1080;1920 x 1080
H034;54;Vrouwelijk;Rechts;2;58;left;no;300;leftarrow;611;true;focus;yes;464460;Firefox;112.0;Windows;10;undefined;undefined;1920 x 1080;1920 x 1080
H034;54;Vrouwelijk;Rechts;2;59;right;no;300;rightarrow;552;true;focus;yes;465765;Firefox;112.0;Windows;10;undefined;undefined;1920 x 1080;1920 x 1080
H034;54;Vrouwelijk;Rechts;2;60;right;no;300;rightarrow;620;true;focus;yes;467141;Firefox;112.0;Windows;10;undefined;undefined;1920 x 1080;1920 x 1080
H034;54;Vrouwelijk;Rechts;2;61;left;no;300;leftarrow;637;true;focus;yes;468533;Firefox;112.0;Windows;10;undefined;undefined;1920 x 1080;1920 x 1080
H034;54;Vrouwelijk;Rechts;2;62;right;yes;300;undefined;null;true;focus;yes;470540;Firefox;112.0;Windows;10;undefined;undefined;1920 x 1080;1920 x 1080
H034;54;Vrouwelijk;Rechts;2;63;left;yes;350;undefined;null;true;focus;yes;472546;Firefox;112.0;Windows;10;undefined;undefined;1920 x 1080;1920 x 1080
H034;54;Vrouwelijk;Rechts;2;64;right;no;400;rightarrow;693;true;focus;yes;473997;Firefox;112.0;Windows;10;undefined;undefined;1920 x 1080;1920 x 1080
H034;54;Vrouwelijk;Rechts;2;65;left;no;400;leftarrow;633;true;focus;yes;475387;Firefox;112.0;Windows;10;undefined;undefined;1920 x 1080;1920 x 1080
H034;54;Vrouwelijk;Rechts;2;66;right;no;400;rightarrow;534;true;focus;yes;476676;Firefox;112.0;Windows;10;undefined;undefined;1920 x 1080;1920 x 1080
H034;54;Vrouwelijk;Rechts;2;67;left;yes;400;leftarrow;563;false;focus;yes;477997;Firefox;112.0;Windows;10;undefined;undefined;1920 x 1080;1920 x 1080
H034;54;Vrouwelijk;Rechts;2;68;right;yes;350;rightarrow;515;false;focus;yes;479269;Firefox;112.0;Windows;10;undefined;undefined;1920 x 1080;1920 x 1080
H034;54;Vrouwelijk;Rechts;2;69;right;no;300;rightarrow;861;true;focus;yes;480885;Firefox;112.0;Windows;10;undefined;undefined;1920 x 1080;1920 x 1080
H034;54;Vrouwelijk;Rechts;2;70;right;no;300;rightarrow;548;true;focus;yes;482189;Firefox;112.0;Windows;10;undefined;undefined;1920 x 1080;1920 x 1080
H034;54;Vrouwelijk;Rechts;2;71;left;no;300;leftarrow;540;true;focus;yes;483485;Firefox;112.0;Windows;10;undefined;undefined;1920 x 1080;1920 x 1080
H034;54;Vrouwelijk;Rechts;2;72;left;no;300;leftarrow;550;true;focus;yes;484789;Firefox;112.0;Windows;10;undefined;undefined;1920 x 1080;1920 x 1080
H034;54;Vrouwelijk;Rechts;2;73;right;yes;300;undefined;null;true;focus;yes;486795;Firefox;112.0;Windows;10;undefined;undefined;1920 x 1080;1920 x 1080
H034;54;Vrouwelijk;Rechts;2;74;right;no;350;rightarrow;707;true;focus;yes;488259;Firefox;112.0;Windows;10;undefined;undefined;1920 x 1080;1920 x 1080
H034;54;Vrouwelijk;Rechts;2;75;left;yes;350;undefined;null;true;focus;yes;490264;Firefox;112.0;Windows;10;undefined;undefined;1920 x 1080;1920 x 1080
H034;54;Vrouwelijk;Rechts;2;76;left;no;400;leftarrow;735;true;focus;yes;491757;Firefox;112.0;Windows;10;undefined;undefined;1920 x 1080;1920 x 1080
H034;54;Vrouwelijk;Rechts;2;77;left;no;400;leftarrow;731;true;focus;yes;493245;Firefox;112.0;Windows;10;undefined;undefined;1920 x 1080;1920 x 1080
H034;54;Vrouwelijk;Rechts;2;78;right;no;400;rightarrow;723;true;focus;yes;494725;Firefox;112.0;Windows;10;undefined;undefined;1920 x 1080;1920 x 1080
H034;54;Vrouwelijk;Rechts;2;79;right;no;400;rightarrow;639;true;focus;yes;496125;Firefox;112.0;Windows;10;undefined;undefined;1920 x 1080;1920 x 1080
H034;54;Vrouwelijk;Rechts;2;80;left;no;400;leftarrow;696;true;focus;yes;497581;Firefox;112.0;Windows;10;undefined;undefined;1920 x 1080;1920 x 1080
H034;54;Vrouwelijk;Rechts;2;81;right;no;400;rightarrow;585;true;focus;yes;498925;Firefox;112.0;Windows;10;undefined;undefined;1920 x 1080;1920 x 1080
H034;54;Vrouwelijk;Rechts;2;82;left;no;400;leftarrow;632;true;focus;yes;500317;Firefox;112.0;Windows;10;undefined;undefined;1920 x 1080;1920 x 1080
H034;54;Vrouwelijk;Rechts;2;83;right;yes;400;rightarrow;569;false;focus;yes;501645;Firefox;112.0;Windows;10;undefined;undefined;1920 x 1080;1920 x 1080
H034;54;Vrouwelijk;Rechts;2;84;left;no;350;leftarrow;697;true;focus;yes;503101;Firefox;112.0;Windows;10;undefined;undefined;1920 x 1080;1920 x 1080
H034;54;Vrouwelijk;Rechts;2;85;right;no;350;rightarrow;737;true;focus;yes;504597;Firefox;112.0;Windows;10;undefined;undefined;1920 x 1080;1920 x 1080
H034;54;Vrouwelijk;Rechts;2;86;left;yes;350;leftarrow;536;false;focus;yes;505893;Firefox;112.0;Windows;10;undefined;undefined;1920 x 1080;1920 x 1080
H034;54;Vrouwelijk;Rechts;2;87;left;no;300;leftarrow;733;true;focus;yes;507389;Firefox;112.0;Windows;10;undefined;undefined;1920 x 1080;1920 x 1080
H034;54;Vrouwelijk;Rechts;2;88;right;no;300;rightarrow;658;true;focus;yes;508805;Firefox;112.0;Windows;10;undefined;undefined;1920 x 1080;1920 x 1080
H034;54;Vrouwelijk;Rechts;2;89;left;no;300;leftarrow;666;true;focus;yes;510230;Firefox;112.0;Windows;10;undefined;undefined;1920 x 1080;1920 x 1080
H034;54;Vrouwelijk;Rechts;2;90;left;no;300;leftarrow;618;true;focus;yes;511605;Firefox;112.0;Windows;10;undefined;undefined;1920 x 1080;1920 x 1080
H034;54;Vrouwelijk;Rechts;2;91;right;no;300;rightarrow;528;true;focus;yes;512893;Firefox;112.0;Windows;10;undefined;undefined;1920 x 1080;1920 x 1080
H034;54;Vrouwelijk;Rechts;2;92;right;no;300;rightarrow;593;true;focus;yes;514245;Firefox;112.0;Windows;10;undefined;undefined;1920 x 1080;1920 x 1080
H034;54;Vrouwelijk;Rechts;2;93;right;no;300;rightarrow;649;true;focus;yes;515653;Firefox;112.0;Windows;10;undefined;undefined;1920 x 1080;1920 x 1080
H034;54;Vrouwelijk;Rechts;2;94;right;yes;300;undefined;null;true;focus;yes;517663;Firefox;112.0;Windows;10;undefined;undefined;1920 x 1080;1920 x 1080
H034;54;Vrouwelijk;Rechts;2;95;left;yes;350;undefined;null;true;focus;yes;519677;Firefox;112.0;Windows;10;undefined;undefined;1920 x 1080;1920 x 1080
H034;54;Vrouwelijk;Rechts;2;96;left;no;400;leftarrow;769;true;focus;yes;521203;Firefox;112.0;Windows;10;undefined;undefined;1920 x 1080;1920 x 1080
H034;54;Vrouwelijk;Rechts;2;97;right;no;400;rightarrow;592;true;focus;yes;522557;Firefox;112.0;Windows;10;undefined;undefined;1920 x 1080;1920 x 1080
H034;54;Vrouwelijk;Rechts;2;98;right;no;400;rightarrow;606;true;focus;yes;523924;Firefox;112.0;Windows;10;undefined;undefined;1920 x 1080;1920 x 1080
H034;54;Vrouwelijk;Rechts;2;99;left;yes;400;undefined;null;true;focus;yes;525940;Firefox;112.0;Windows;10;undefined;undefined;1920 x 1080;1920 x 1080
H034;54;Vrouwelijk;Rechts;2;100;left;no;450;leftarrow;690;true;focus;yes;527397;Firefox;112.0;Windows;10;undefined;undefined;1920 x 1080;1920 x 1080
H034;54;Vrouwelijk;Rechts;2;101;right;no;450;rightarrow;630;true;focus;yes;528796;Firefox;112.0;Windows;10;undefined;undefined;1920 x 1080;1920 x 1080
H034;54;Vrouwelijk;Rechts;2;102;left;no;450;leftarrow;789;true;focus;yes;530349;Firefox;112.0;Windows;10;undefined;undefined;1920 x 1080;1920 x 1080
H034;54;Vrouwelijk;Rechts;2;103;left;no;450;leftarrow;615;true;focus;yes;531725;Firefox;112.0;Windows;10;undefined;undefined;1920 x 1080;1920 x 1080
H034;54;Vrouwelijk;Rechts;2;104;right;yes;450;rightarrow;569;false;focus;yes;533053;Firefox;112.0;Windows;10;undefined;undefined;1920 x 1080;1920 x 1080
H034;54;Vrouwelijk;Rechts;2;105;left;yes;400;undefined;null;true;focus;yes;535065;Firefox;112.0;Windows;10;undefined;undefined;1920 x 1080;1920 x 1080
H034;54;Vrouwelijk;Rechts;2;106;left;no;450;leftarrow;489;true;focus;yes;536317;Firefox;112.0;Windows;10;undefined;undefined;1920 x 1080;1920 x 1080
H034;54;Vrouwelijk;Rechts;2;107;right;no;450;rightarrow;466;true;focus;yes;537549;Firefox;112.0;Windows;10;undefined;undefined;1920 x 1080;1920 x 1080
H034;54;Vrouwelijk;Rechts;2;108;left;no;450;leftarrow;453;true;focus;yes;538765;Firefox;112.0;Windows;10;undefined;undefined;1920 x 1080;1920 x 1080
H034;54;Vrouwelijk;Rechts;2;109;right;yes;450;rightarrow;482;false;focus;yes;540011;Firefox;112.0;Windows;10;undefined;undefined;1920 x 1080;1920 x 1080
H034;54;Vrouwelijk;Rechts;2;110;right;no;400;undefined;null;false;focus;yes;542016;Firefox;112.0;Windows;10;undefined;undefined;1920 x 1080;1920 x 1080
H034;54;Vrouwelijk;Rechts;2;111;left;no;400;leftarrow;482;true;focus;yes;543253;Firefox;112.0;Windows;10;undefined;undefined;1920 x 1080;1920 x 1080
H034;54;Vrouwelijk;Rechts;2;112;right;no;400;rightarrow;403;true;focus;yes;544413;Firefox;112.0;Windows;10;undefined;undefined;1920 x 1080;1920 x 1080
H034;54;Vrouwelijk;Rechts;2;113;right;yes;400;rightarrow;610;false;focus;yes;545781;Firefox;112.0;Windows;10;undefined;undefined;1920 x 1080;1920 x 1080
H034;54;Vrouwelijk;Rechts;2;114;left;no;350;leftarrow;785;true;focus;yes;547325;Firefox;112.0;Windows;10;undefined;undefined;1920 x 1080;1920 x 1080
H034;54;Vrouwelijk;Rechts;2;115;left;no;350;leftarrow;619;true;focus;yes;548701;Firefox;112.0;Windows;10;undefined;undefined;1920 x 1080;1920 x 1080
H034;54;Vrouwelijk;Rechts;2;116;right;no;350;rightarrow;587;true;focus;yes;550045;Firefox;112.0;Windows;10;undefined;undefined;1920 x 1080;1920 x 1080
H034;54;Vrouwelijk;Rechts;2;117;right;no;350;rightarrow;485;true;focus;yes;551285;Firefox;112.0;Windows;10;undefined;undefined;1920 x 1080;1920 x 1080
H034;54;Vrouwelijk;Rechts;2;118;right;no;350;rightarrow;603;true;focus;yes;552645;Firefox;112.0;Windows;10;undefined;undefined;1920 x 1080;1920 x 1080
H034;54;Vrouwelijk;Rechts;2;119;left;yes;350;leftarrow;612;false;focus;yes;554013;Firefox;112.0;Windows;10;undefined;undefined;1920 x 1080;1920 x 1080
H034;54;Vrouwelijk;Rechts;2;120;left;no;300;leftarrow;905;true;focus;yes;555676;Firefox;112.0;Windows;10;undefined;undefined;1920 x 1080;1920 x 1080
H034;54;Vrouwelijk;Rechts;2;121;left;no;300;leftarrow;507;true;focus;yes;556941;Firefox;112.0;Windows;10;undefined;undefined;1920 x 1080;1920 x 1080
H034;54;Vrouwelijk;Rechts;2;122;left;no;300;leftarrow;687;true;focus;yes;558389;Firefox;112.0;Windows;10;undefined;undefined;1920 x 1080;1920 x 1080
H034;54;Vrouwelijk;Rechts;2;123;right;no;300;rightarrow;603;true;focus;yes;559749;Firefox;112.0;Windows;10;undefined;undefined;1920 x 1080;1920 x 1080
H034;54;Vrouwelijk;Rechts;2;124;right;no;300;rightarrow;606;true;focus;yes;561116;Firefox;112.0;Windows;10;undefined;undefined;1920 x 1080;1920 x 1080
H034;54;Vrouwelijk;Rechts;2;125;right;yes;300;undefined;null;true;focus;yes;563125;Firefox;112.0;Windows;10;undefined;undefined;1920 x 1080;1920 x 1080
H034;54;Vrouwelijk;Rechts;2;126;left;no;350;leftarrow;688;true;focus;yes;564573;Firefox;112.0;Windows;10;undefined;undefined;1920 x 1080;1920 x 1080
H034;54;Vrouwelijk;Rechts;2;127;right;no;350;rightarrow;663;true;focus;yes;565996;Firefox;112.0;Windows;10;undefined;undefined;1920 x 1080;1920 x 1080
H034;54;Vrouwelijk;Rechts;2;128;left;yes;350;leftarrow;569;false;focus;yes;567325;Firefox;112.0;Windows;10;undefined;undefined;1920 x 1080;1920 x 1080
H034;54;Vrouwelijk;Rechts;3;1;right;no;300;rightarrow;504;true;focus;yes;587829;Firefox;112.0;Windows;10;undefined;undefined;1920 x 1080;1920 x 1080
H034;54;Vrouwelijk;Rechts;3;2;left;no;300;leftarrow;469;true;focus;yes;589061;Firefox;112.0;Windows;10;undefined;undefined;1920 x 1080;1920 x 1080
H034;54;Vrouwelijk;Rechts;3;3;left;no;300;leftarrow;658;true;focus;yes;590477;Firefox;112.0;Windows;10;undefined;undefined;1920 x 1080;1920 x 1080
H034;54;Vrouwelijk;Rechts;3;4;left;no;300;leftarrow;653;true;focus;yes;591892;Firefox;112.0;Windows;10;undefined;undefined;1920 x 1080;1920 x 1080
H034;54;Vrouwelijk;Rechts;3;5;right;no;300;rightarrow;498;true;focus;yes;593148;Firefox;112.0;Windows;10;undefined;undefined;1920 x 1080;1920 x 1080
H034;54;Vrouwelijk;Rechts;3;6;right;yes;300;undefined;null;true;focus;yes;595161;Firefox;112.0;Windows;10;undefined;undefined;1920 x 1080;1920 x 1080
H034;54;Vrouwelijk;Rechts;3;7;right;no;350;rightarrow;731;true;focus;yes;596653;Firefox;112.0;Windows;10;undefined;undefined;1920 x 1080;1920 x 1080
H034;54;Vrouwelijk;Rechts;3;8;left;yes;350;undefined;null;true;focus;yes;598667;Firefox;112.0;Windows;10;undefined;undefined;1920 x 1080;1920 x 1080
H034;54;Vrouwelijk;Rechts;3;9;right;no;400;rightarrow;864;true;focus;yes;600293;Firefox;112.0;Windows;10;undefined;undefined;1920 x 1080;1920 x 1080
H034;54;Vrouwelijk;Rechts;3;10;left;no;400;leftarrow;949;true;focus;yes;602005;Firefox;112.0;Windows;10;undefined;undefined;1920 x 1080;1920 x 1080
H034;54;Vrouwelijk;Rechts;3;11;left;yes;400;leftarrow;570;false;focus;yes;603341;Firefox;112.0;Windows;10;undefined;undefined;1920 x 1080;1920 x 1080
H034;54;Vrouwelijk;Rechts;3;12;left;no;350;leftarrow;844;true;focus;yes;604949;Firefox;112.0;Windows;10;undefined;undefined;1920 x 1080;1920 x 1080
H034;54;Vrouwelijk;Rechts;3;13;right;no;350;rightarrow;574;true;focus;yes;606293;Firefox;112.0;Windows;10;undefined;undefined;1920 x 1080;1920 x 1080
H034;54;Vrouwelijk;Rechts;3;14;right;no;350;rightarrow;706;true;focus;yes;607765;Firefox;112.0;Windows;10;undefined;undefined;1920 x 1080;1920 x 1080
H034;54;Vrouwelijk;Rechts;3;15;right;yes;350;undefined;null;true;focus;yes;609785;Firefox;112.0;Windows;10;undefined;undefined;1920 x 1080;1920 x 1080
H034;54;Vrouwelijk;Rechts;3;16;left;no;400;leftarrow;703;true;focus;yes;611252;Firefox;112.0;Windows;10;undefined;undefined;1920 x 1080;1920 x 1080
H034;54;Vrouwelijk;Rechts;3;17;right;no;400;rightarrow;677;true;focus;yes;612683;Firefox;112.0;Windows;10;undefined;undefined;1920 x 1080;1920 x 1080
H034;54;Vrouwelijk;Rechts;3;18;left;no;400;leftarrow;559;true;focus;yes;614005;Firefox;112.0;Windows;10;undefined;undefined;1920 x 1080;1920 x 1080
H034;54;Vrouwelijk;Rechts;3;19;right;yes;400;rightarrow;629;false;focus;yes;615405;Firefox;112.0;Windows;10;undefined;undefined;1920 x 1080;1920 x 1080
H034;54;Vrouwelijk;Rechts;3;20;right;no;350;rightarrow;1187;true;focus;yes;617357;Firefox;112.0;Windows;10;undefined;undefined;1920 x 1080;1920 x 1080
H034;54;Vrouwelijk;Rechts;3;21;left;yes;350;leftarrow;519;false;focus;yes;618637;Firefox;112.0;Windows;10;undefined;undefined;1920 x 1080;1920 x 1080
H034;54;Vrouwelijk;Rechts;3;22;left;no;300;leftarrow;630;true;focus;yes;620029;Firefox;112.0;Windows;10;undefined;undefined;1920 x 1080;1920 x 1080
H034;54;Vrouwelijk;Rechts;3;23;left;no;300;leftarrow;523;true;focus;yes;621317;Firefox;112.0;Windows;10;undefined;undefined;1920 x 1080;1920 x 1080
H034;54;Vrouwelijk;Rechts;3;24;right;no;300;rightarrow;612;true;focus;yes;622693;Firefox;112.0;Windows;10;undefined;undefined;1920 x 1080;1920 x 1080
H034;54;Vrouwelijk;Rechts;3;25;left;no;300;leftarrow;699;true;focus;yes;624157;Firefox;112.0;Windows;10;undefined;undefined;1920 x 1080;1920 x 1080
H034;54;Vrouwelijk;Rechts;3;26;left;yes;300;undefined;null;true;focus;yes;626170;Firefox;112.0;Windows;10;undefined;undefined;1920 x 1080;1920 x 1080
H034;54;Vrouwelijk;Rechts;3;27;right;no;350;rightarrow;592;true;focus;yes;627525;Firefox;112.0;Windows;10;undefined;undefined;1920 x 1080;1920 x 1080
H034;54;Vrouwelijk;Rechts;3;28;right;yes;350;rightarrow;536;false;focus;yes;628821;Firefox;112.0;Windows;10;undefined;undefined;1920 x 1080;1920 x 1080
H034;54;Vrouwelijk;Rechts;3;29;left;no;300;leftarrow;823;true;focus;yes;630405;Firefox;112.0;Windows;10;undefined;undefined;1920 x 1080;1920 x 1080
H034;54;Vrouwelijk;Rechts;3;30;left;no;300;leftarrow;547;true;focus;yes;631717;Firefox;112.0;Windows;10;undefined;undefined;1920 x 1080;1920 x 1080
H034;54;Vrouwelijk;Rechts;3;31;right;no;300;rightarrow;477;true;focus;yes;632956;Firefox;112.0;Windows;10;undefined;undefined;1920 x 1080;1920 x 1080
H034;54;Vrouwelijk;Rechts;3;32;right;no;300;rightarrow;517;true;focus;yes;634235;Firefox;112.0;Windows;10;undefined;undefined;1920 x 1080;1920 x 1080
H034;54;Vrouwelijk;Rechts;3;33;left;yes;300;leftarrow;588;false;focus;yes;635588;Firefox;112.0;Windows;10;undefined;undefined;1920 x 1080;1920 x 1080
H034;54;Vrouwelijk;Rechts;3;34;left;no;250;leftarrow;525;true;focus;yes;636877;Firefox;112.0;Windows;10;undefined;undefined;1920 x 1080;1920 x 1080
H034;54;Vrouwelijk;Rechts;3;35;right;no;250;rightarrow;620;true;focus;yes;638261;Firefox;112.0;Windows;10;undefined;undefined;1920 x 1080;1920 x 1080
H034;54;Vrouwelijk;Rechts;3;36;right;no;250;rightarrow;560;true;focus;yes;639581;Firefox;112.0;Windows;10;undefined;undefined;1920 x 1080;1920 x 1080
H034;54;Vrouwelijk;Rechts;3;37;left;no;250;leftarrow;675;true;focus;yes;641021;Firefox;112.0;Windows;10;undefined;undefined;1920 x 1080;1920 x 1080
H034;54;Vrouwelijk;Rechts;3;38;right;no;250;rightarrow;607;true;focus;yes;642389;Firefox;112.0;Windows;10;undefined;undefined;1920 x 1080;1920 x 1080
H034;54;Vrouwelijk;Rechts;3;39;left;no;250;leftarrow;734;true;focus;yes;643885;Firefox;112.0;Windows;10;undefined;undefined;1920 x 1080;1920 x 1080
H034;54;Vrouwelijk;Rechts;3;40;right;yes;250;undefined;null;true;focus;yes;645902;Firefox;112.0;Windows;10;undefined;undefined;1920 x 1080;1920 x 1080
H034;54;Vrouwelijk;Rechts;3;41;left;no;300;leftarrow;510;true;focus;yes;647173;Firefox;112.0;Windows;10;undefined;undefined;1920 x 1080;1920 x 1080
H034;54;Vrouwelijk;Rechts;3;42;left;yes;300;undefined;null;true;focus;yes;649183;Firefox;112.0;Windows;10;undefined;undefined;1920 x 1080;1920 x 1080
H034;54;Vrouwelijk;Rechts;3;43;left;no;350;leftarrow;631;true;focus;yes;650573;Firefox;112.0;Windows;10;undefined;undefined;1920 x 1080;1920 x 1080
H034;54;Vrouwelijk;Rechts;3;44;left;no;350;leftarrow;638;true;focus;yes;651973;Firefox;112.0;Windows;10;undefined;undefined;1920 x 1080;1920 x 1080
H034;54;Vrouwelijk;Rechts;3;45;right;no;350;rightarrow;616;true;focus;yes;653347;Firefox;112.0;Windows;10;undefined;undefined;1920 x 1080;1920 x 1080
H034;54;Vrouwelijk;Rechts;3;46;right;yes;350;rightarrow;625;false;focus;yes;654732;Firefox;112.0;Windows;10;undefined;undefined;1920 x 1080;1920 x 1080
H034;54;Vrouwelijk;Rechts;3;47;right;no;300;rightarrow;648;true;focus;yes;656141;Firefox;112.0;Windows;10;undefined;undefined;1920 x 1080;1920 x 1080
H034;54;Vrouwelijk;Rechts;3;48;right;no;300;rightarrow;538;true;focus;yes;657437;Firefox;112.0;Windows;10;undefined;undefined;1920 x 1080;1920 x 1080
H034;54;Vrouwelijk;Rechts;3;49;left;no;300;leftarrow;750;true;focus;yes;658949;Firefox;112.0;Windows;10;undefined;undefined;1920 x 1080;1920 x 1080
H034;54;Vrouwelijk;Rechts;3;50;right;no;300;rightarrow;498;true;focus;yes;660205;Firefox;112.0;Windows;10;undefined;undefined;1920 x 1080;1920 x 1080
H034;54;Vrouwelijk;Rechts;3;51;left;yes;300;undefined;null;true;focus;yes;662223;Firefox;112.0;Windows;10;undefined;undefined;1920 x 1080;1920 x 1080
H034;54;Vrouwelijk;Rechts;3;52;right;no;350;rightarrow;505;true;focus;yes;663493;Firefox;112.0;Windows;10;undefined;undefined;1920 x 1080;1920 x 1080
H034;54;Vrouwelijk;Rechts;3;53;left;no;350;leftarrow;618;true;focus;yes;664869;Firefox;112.0;Windows;10;undefined;undefined;1920 x 1080;1920 x 1080
H034;54;Vrouwelijk;Rechts;3;54;right;yes;350;rightarrow;476;false;focus;yes;666101;Firefox;112.0;Windows;10;undefined;undefined;1920 x 1080;1920 x 1080
H034;54;Vrouwelijk;Rechts;3;55;right;no;300;rightarrow;525;true;focus;yes;667397;Firefox;112.0;Windows;10;undefined;undefined;1920 x 1080;1920 x 1080
H034;54;Vrouwelijk;Rechts;3;56;left;no;300;leftarrow;625;true;focus;yes;668781;Firefox;112.0;Windows;10;undefined;undefined;1920 x 1080;1920 x 1080
H034;54;Vrouwelijk;Rechts;3;57;right;no;300;rightarrow;608;true;focus;yes;670149;Firefox;112.0;Windows;10;undefined;undefined;1920 x 1080;1920 x 1080
H034;54;Vrouwelijk;Rechts;3;58;right;yes;300;undefined;null;true;focus;yes;672170;Firefox;112.0;Windows;10;undefined;undefined;1920 x 1080;1920 x 1080
H034;54;Vrouwelijk;Rechts;3;59;left;no;350;leftarrow;615;true;focus;yes;673549;Firefox;112.0;Windows;10;undefined;undefined;1920 x 1080;1920 x 1080
H034;54;Vrouwelijk;Rechts;3;60;left;yes;350;undefined;null;true;focus;yes;675564;Firefox;112.0;Windows;10;undefined;undefined;1920 x 1080;1920 x 1080
H034;54;Vrouwelijk;Rechts;3;61;right;no;400;rightarrow;576;true;focus;yes;676901;Firefox;112.0;Windows;10;undefined;undefined;1920 x 1080;1920 x 1080
H034;54;Vrouwelijk;Rechts;3;62;right;no;400;rightarrow;576;true;focus;yes;678237;Firefox;112.0;Windows;10;undefined;undefined;1920 x 1080;1920 x 1080
H034;54;Vrouwelijk;Rechts;3;63;left;no;400;leftarrow;726;true;focus;yes;679725;Firefox;112.0;Windows;10;undefined;undefined;1920 x 1080;1920 x 1080
H034;54;Vrouwelijk;Rechts;3;64;left;no;400;leftarrow;646;true;focus;yes;681132;Firefox;112.0;Windows;10;undefined;undefined;1920 x 1080;1920 x 1080
H034;54;Vrouwelijk;Rechts;3;65;left;no;400;leftarrow;627;true;focus;yes;682517;Firefox;112.0;Windows;10;undefined;undefined;1920 x 1080;1920 x 1080
H034;54;Vrouwelijk;Rechts;3;66;right;no;400;rightarrow;582;true;focus;yes;683860;Firefox;112.0;Windows;10;undefined;undefined;1920 x 1080;1920 x 1080
H034;54;Vrouwelijk;Rechts;3;67;right;yes;400;rightarrow;577;false;focus;yes;685195;Firefox;112.0;Windows;10;undefined;undefined;1920 x 1080;1920 x 1080
H034;54;Vrouwelijk;Rechts;3;68;left;no;350;leftarrow;592;true;focus;yes;686547;Firefox;112.0;Windows;10;undefined;undefined;1920 x 1080;1920 x 1080
H034;54;Vrouwelijk;Rechts;3;69;right;no;350;rightarrow;587;true;focus;yes;687893;Firefox;112.0;Windows;10;undefined;undefined;1920 x 1080;1920 x 1080
H034;54;Vrouwelijk;Rechts;3;70;right;no;350;rightarrow;527;true;focus;yes;689181;Firefox;112.0;Windows;10;undefined;undefined;1920 x 1080;1920 x 1080
H034;54;Vrouwelijk;Rechts;3;71;left;no;350;leftarrow;497;true;focus;yes;690437;Firefox;112.0;Windows;10;undefined;undefined;1920 x 1080;1920 x 1080
H034;54;Vrouwelijk;Rechts;3;72;left;yes;350;leftarrow;464;false;focus;yes;691661;Firefox;112.0;Windows;10;undefined;undefined;1920 x 1080;1920 x 1080
H034;54;Vrouwelijk;Rechts;3;73;left;no;300;leftarrow;555;true;focus;yes;692973;Firefox;112.0;Windows;10;undefined;undefined;1920 x 1080;1920 x 1080
H034;54;Vrouwelijk;Rechts;3;74;left;yes;300;leftarrow;406;false;focus;yes;694141;Firefox;112.0;Windows;10;undefined;undefined;1920 x 1080;1920 x 1080
H034;54;Vrouwelijk;Rechts;3;75;right;yes;250;rightarrow;472;false;focus;yes;695373;Firefox;112.0;Windows;10;undefined;undefined;1920 x 1080;1920 x 1080
H034;54;Vrouwelijk;Rechts;3;76;right;no;200;rightarrow;572;true;focus;yes;696701;Firefox;112.0;Windows;10;undefined;undefined;1920 x 1080;1920 x 1080
H034;54;Vrouwelijk;Rechts;3;77;left;no;200;leftarrow;487;true;focus;yes;697948;Firefox;112.0;Windows;10;undefined;undefined;1920 x 1080;1920 x 1080
H034;54;Vrouwelijk;Rechts;3;78;right;no;200;rightarrow;555;true;focus;yes;699260;Firefox;112.0;Windows;10;undefined;undefined;1920 x 1080;1920 x 1080
H034;54;Vrouwelijk;Rechts;3;79;left;no;200;leftarrow;524;true;focus;yes;700541;Firefox;112.0;Windows;10;undefined;undefined;1920 x 1080;1920 x 1080
H034;54;Vrouwelijk;Rechts;3;80;right;no;200;rightarrow;456;true;focus;yes;701757;Firefox;112.0;Windows;10;undefined;undefined;1920 x 1080;1920 x 1080
H034;54;Vrouwelijk;Rechts;3;81;right;no;200;rightarrow;1176;true;focus;yes;703692;Firefox;112.0;Windows;10;undefined;undefined;1920 x 1080;1920 x 1080
H034;54;Vrouwelijk;Rechts;3;82;right;no;200;rightarrow;603;true;focus;yes;705053;Firefox;112.0;Windows;10;undefined;undefined;1920 x 1080;1920 x 1080
H034;54;Vrouwelijk;Rechts;3;83;left;no;200;leftarrow;544;true;focus;yes;706365;Firefox;112.0;Windows;10;undefined;undefined;1920 x 1080;1920 x 1080
H034;54;Vrouwelijk;Rechts;3;84;left;no;200;leftarrow;692;true;focus;yes;707821;Firefox;112.0;Windows;10;undefined;undefined;1920 x 1080;1920 x 1080
H034;54;Vrouwelijk;Rechts;3;85;right;yes;200;undefined;null;true;focus;yes;709837;Firefox;112.0;Windows;10;undefined;undefined;1920 x 1080;1920 x 1080
H034;54;Vrouwelijk;Rechts;3;86;left;yes;250;undefined;null;true;focus;yes;711863;Firefox;112.0;Windows;10;undefined;undefined;1920 x 1080;1920 x 1080
H034;54;Vrouwelijk;Rechts;3;87;right;no;300;rightarrow;616;true;focus;yes;713245;Firefox;112.0;Windows;10;undefined;undefined;1920 x 1080;1920 x 1080
H034;54;Vrouwelijk;Rechts;3;88;left;no;300;leftarrow;540;true;focus;yes;714549;Firefox;112.0;Windows;10;undefined;undefined;1920 x 1080;1920 x 1080
H034;54;Vrouwelijk;Rechts;3;89;right;no;300;rightarrow;537;true;focus;yes;715853;Firefox;112.0;Windows;10;undefined;undefined;1920 x 1080;1920 x 1080
H034;54;Vrouwelijk;Rechts;3;90;left;no;300;leftarrow;606;true;focus;yes;717221;Firefox;112.0;Windows;10;undefined;undefined;1920 x 1080;1920 x 1080
H034;54;Vrouwelijk;Rechts;3;91;right;no;300;rightarrow;589;true;focus;yes;718573;Firefox;112.0;Windows;10;undefined;undefined;1920 x 1080;1920 x 1080
H034;54;Vrouwelijk;Rechts;3;92;left;yes;300;leftarrow;457;false;focus;yes;719797;Firefox;112.0;Windows;10;undefined;undefined;1920 x 1080;1920 x 1080
H034;54;Vrouwelijk;Rechts;3;93;left;no;250;leftarrow;843;true;focus;yes;721397;Firefox;112.0;Windows;10;undefined;undefined;1920 x 1080;1920 x 1080
H034;54;Vrouwelijk;Rechts;3;94;right;no;250;rightarrow;697;true;focus;yes;722853;Firefox;112.0;Windows;10;undefined;undefined;1920 x 1080;1920 x 1080
H034;54;Vrouwelijk;Rechts;3;95;right;yes;250;undefined;null;true;focus;yes;724866;Firefox;112.0;Windows;10;undefined;undefined;1920 x 1080;1920 x 1080
H034;54;Vrouwelijk;Rechts;3;96;left;no;300;leftarrow;767;true;focus;yes;726389;Firefox;112.0;Windows;10;undefined;undefined;1920 x 1080;1920 x 1080
H034;54;Vrouwelijk;Rechts;3;97;left;no;300;leftarrow;743;true;focus;yes;727893;Firefox;112.0;Windows;10;undefined;undefined;1920 x 1080;1920 x 1080
H034;54;Vrouwelijk;Rechts;3;98;left;yes;300;undefined;null;true;focus;yes;729905;Firefox;112.0;Windows;10;undefined;undefined;1920 x 1080;1920 x 1080
H034;54;Vrouwelijk;Rechts;3;99;left;no;350;leftarrow;725;true;focus;yes;731389;Firefox;112.0;Windows;10;undefined;undefined;1920 x 1080;1920 x 1080
H034;54;Vrouwelijk;Rechts;3;100;right;yes;350;undefined;null;true;focus;yes;733399;Firefox;112.0;Windows;10;undefined;undefined;1920 x 1080;1920 x 1080
H034;54;Vrouwelijk;Rechts;3;101;right;no;400;rightarrow;653;true;focus;yes;734813;Firefox;112.0;Windows;10;undefined;undefined;1920 x 1080;1920 x 1080
H034;54;Vrouwelijk;Rechts;3;102;right;no;400;rightarrow;807;true;focus;yes;736381;Firefox;112.0;Windows;10;undefined;undefined;1920 x 1080;1920 x 1080
H034;54;Vrouwelijk;Rechts;3;103;right;no;400;rightarrow;648;true;focus;yes;737789;Firefox;112.0;Windows;10;undefined;undefined;1920 x 1080;1920 x 1080
H034;54;Vrouwelijk;Rechts;3;104;left;no;400;leftarrow;688;true;focus;yes;739237;Firefox;112.0;Windows;10;undefined;undefined;1920 x 1080;1920 x 1080
H034;54;Vrouwelijk;Rechts;3;105;left;no;400;leftarrow;603;true;focus;yes;740597;Firefox;112.0;Windows;10;undefined;undefined;1920 x 1080;1920 x 1080
H034;54;Vrouwelijk;Rechts;3;106;left;no;400;leftarrow;762;true;focus;yes;742117;Firefox;112.0;Windows;10;undefined;undefined;1920 x 1080;1920 x 1080
H034;54;Vrouwelijk;Rechts;3;107;left;yes;400;leftarrow;690;false;focus;yes;743565;Firefox;112.0;Windows;10;undefined;undefined;1920 x 1080;1920 x 1080
H034;54;Vrouwelijk;Rechts;3;108;right;yes;350;undefined;null;true;focus;yes;745578;Firefox;112.0;Windows;10;undefined;undefined;1920 x 1080;1920 x 1080
H034;54;Vrouwelijk;Rechts;3;109;right;no;400;rightarrow;573;true;focus;yes;746910;Firefox;112.0;Windows;10;undefined;undefined;1920 x 1080;1920 x 1080
H034;54;Vrouwelijk;Rechts;3;110;right;no;400;rightarrow;609;true;focus;yes;748277;Firefox;112.0;Windows;10;undefined;undefined;1920 x 1080;1920 x 1080
H034;54;Vrouwelijk;Rechts;3;111;left;no;400;leftarrow;655;true;focus;yes;749693;Firefox;112.0;Windows;10;undefined;undefined;1920 x 1080;1920 x 1080
H034;54;Vrouwelijk;Rechts;3;112;right;no;400;rightarrow;686;true;focus;yes;751140;Firefox;112.0;Windows;10;undefined;undefined;1920 x 1080;1920 x 1080
H034;54;Vrouwelijk;Rechts;3;113;left;no;400;leftarrow;908;true;focus;yes;752805;Firefox;112.0;Windows;10;undefined;undefined;1920 x 1080;1920 x 1080
H034;54;Vrouwelijk;Rechts;3;114;left;no;400;leftarrow;479;true;focus;yes;754043;Firefox;112.0;Windows;10;undefined;undefined;1920 x 1080;1920 x 1080
H034;54;Vrouwelijk;Rechts;3;115;right;no;400;rightarrow;493;true;focus;yes;755293;Firefox;112.0;Windows;10;undefined;undefined;1920 x 1080;1920 x 1080
H034;54;Vrouwelijk;Rechts;3;116;right;no;400;rightarrow;517;true;focus;yes;756573;Firefox;112.0;Windows;10;undefined;undefined;1920 x 1080;1920 x 1080
H034;54;Vrouwelijk;Rechts;3;117;left;yes;400;leftarrow;583;false;focus;yes;757917;Firefox;112.0;Windows;10;undefined;undefined;1920 x 1080;1920 x 1080
H034;54;Vrouwelijk;Rechts;3;118;left;no;350;leftarrow;586;true;focus;yes;759261;Firefox;112.0;Windows;10;undefined;undefined;1920 x 1080;1920 x 1080
H034;54;Vrouwelijk;Rechts;3;119;right;no;350;rightarrow;689;true;focus;yes;760709;Firefox;112.0;Windows;10;undefined;undefined;1920 x 1080;1920 x 1080
H034;54;Vrouwelijk;Rechts;3;120;right;yes;350;rightarrow;647;false;focus;yes;762117;Firefox;112.0;Windows;10;undefined;undefined;1920 x 1080;1920 x 1080
H034;54;Vrouwelijk;Rechts;3;121;left;no;300;leftarrow;540;true;focus;yes;763414;Firefox;112.0;Windows;10;undefined;undefined;1920 x 1080;1920 x 1080
H034;54;Vrouwelijk;Rechts;3;122;right;no;300;rightarrow;607;true;focus;yes;764781;Firefox;112.0;Windows;10;undefined;undefined;1920 x 1080;1920 x 1080
H034;54;Vrouwelijk;Rechts;3;123;right;yes;300;undefined;null;true;focus;yes;766791;Firefox;112.0;Windows;10;undefined;undefined;1920 x 1080;1920 x 1080
H034;54;Vrouwelijk;Rechts;3;124;right;no;350;rightarrow;661;true;focus;yes;768221;Firefox;112.0;Windows;10;undefined;undefined;1920 x 1080;1920 x 1080
H034;54;Vrouwelijk;Rechts;3;125;right;no;350;rightarrow;759;true;focus;yes;769747;Firefox;112.0;Windows;10;undefined;undefined;1920 x 1080;1920 x 1080
H034;54;Vrouwelijk;Rechts;3;126;left;yes;350;undefined;null;true;focus;yes;771767;Firefox;112.0;Windows;10;undefined;undefined;1920 x 1080;1920 x 1080
H034;54;Vrouwelijk;Rechts;3;127;left;no;400;leftarrow;765;true;focus;yes;773301;Firefox;112.0;Windows;10;undefined;undefined;1920 x 1080;1920 x 1080
H034;54;Vrouwelijk;Rechts;3;128;left;no;400;leftarrow;674;true;focus;yes;774741;Firefox;112.0;Windows;10;undefined;undefined;1920 x 1080;1920 x 1080
H034;54;Vrouwelijk;Rechts;4;1;right;no;400;rightarrow;522;true;focus;yes;794389;Firefox;112.0;Windows;10;undefined;undefined;1920 x 1080;1920 x 1080
H034;54;Vrouwelijk;Rechts;4;2;left;no;400;leftarrow;575;true;focus;yes;795725;Firefox;112.0;Windows;10;undefined;undefined;1920 x 1080;1920 x 1080
H034;54;Vrouwelijk;Rechts;4;3;left;no;400;leftarrow;689;true;focus;yes;797181;Firefox;112.0;Windows;10;undefined;undefined;1920 x 1080;1920 x 1080
H034;54;Vrouwelijk;Rechts;4;4;left;yes;400;leftarrow;547;false;focus;yes;798493;Firefox;112.0;Windows;10;undefined;undefined;1920 x 1080;1920 x 1080
H034;54;Vrouwelijk;Rechts;4;5;right;yes;350;rightarrow;535;false;focus;yes;799789;Firefox;112.0;Windows;10;undefined;undefined;1920 x 1080;1920 x 1080
H034;54;Vrouwelijk;Rechts;4;6;left;no;300;leftarrow;563;true;focus;yes;801118;Firefox;112.0;Windows;10;undefined;undefined;1920 x 1080;1920 x 1080
H034;54;Vrouwelijk;Rechts;4;7;right;no;300;rightarrow;476;true;focus;yes;802357;Firefox;112.0;Windows;10;undefined;undefined;1920 x 1080;1920 x 1080
H034;54;Vrouwelijk;Rechts;4;8;right;no;300;rightarrow;592;true;focus;yes;803709;Firefox;112.0;Windows;10;undefined;undefined;1920 x 1080;1920 x 1080
H034;54;Vrouwelijk;Rechts;4;9;right;yes;300;undefined;null;true;focus;yes;805717;Firefox;112.0;Windows;10;undefined;undefined;1920 x 1080;1920 x 1080
H034;54;Vrouwelijk;Rechts;4;10;left;no;350;leftarrow;552;true;focus;yes;807030;Firefox;112.0;Windows;10;undefined;undefined;1920 x 1080;1920 x 1080
H034;54;Vrouwelijk;Rechts;4;11;left;no;350;leftarrow;687;true;focus;yes;808484;Firefox;112.0;Windows;10;undefined;undefined;1920 x 1080;1920 x 1080
H034;54;Vrouwelijk;Rechts;4;12;left;yes;350;undefined;null;true;focus;yes;810500;Firefox;112.0;Windows;10;undefined;undefined;1920 x 1080;1920 x 1080
H034;54;Vrouwelijk;Rechts;4;13;left;no;400;leftarrow;633;true;focus;yes;811893;Firefox;112.0;Windows;10;undefined;undefined;1920 x 1080;1920 x 1080
H034;54;Vrouwelijk;Rechts;4;14;right;no;400;rightarrow;649;true;focus;yes;813300;Firefox;112.0;Windows;10;undefined;undefined;1920 x 1080;1920 x 1080
H034;54;Vrouwelijk;Rechts;4;15;right;no;400;rightarrow;705;true;focus;yes;814765;Firefox;112.0;Windows;10;undefined;undefined;1920 x 1080;1920 x 1080
H034;54;Vrouwelijk;Rechts;4;16;right;no;400;rightarrow;665;true;focus;yes;816189;Firefox;112.0;Windows;10;undefined;undefined;1920 x 1080;1920 x 1080
H034;54;Vrouwelijk;Rechts;4;17;left;no;400;leftarrow;660;true;focus;yes;817605;Firefox;112.0;Windows;10;undefined;undefined;1920 x 1080;1920 x 1080
H034;54;Vrouwelijk;Rechts;4;18;left;yes;400;undefined;null;true;focus;yes;819612;Firefox;112.0;Windows;10;undefined;undefined;1920 x 1080;1920 x 1080
H034;54;Vrouwelijk;Rechts;4;19;left;no;450;leftarrow;725;true;focus;yes;821093;Firefox;112.0;Windows;10;undefined;undefined;1920 x 1080;1920 x 1080
H034;54;Vrouwelijk;Rechts;4;20;left;no;450;leftarrow;617;true;focus;yes;822469;Firefox;112.0;Windows;10;undefined;undefined;1920 x 1080;1920 x 1080
H034;54;Vrouwelijk;Rechts;4;21;right;no;450;rightarrow;683;true;focus;yes;823910;Firefox;112.0;Windows;10;undefined;undefined;1920 x 1080;1920 x 1080
H034;54;Vrouwelijk;Rechts;4;22;right;no;450;rightarrow;603;true;focus;yes;825269;Firefox;112.0;Windows;10;undefined;undefined;1920 x 1080;1920 x 1080
H034;54;Vrouwelijk;Rechts;4;23;right;no;450;rightarrow;545;true;focus;yes;826573;Firefox;112.0;Windows;10;undefined;undefined;1920 x 1080;1920 x 1080
H034;54;Vrouwelijk;Rechts;4;24;right;yes;450;rightarrow;529;false;focus;yes;827861;Firefox;112.0;Windows;10;undefined;undefined;1920 x 1080;1920 x 1080
H034;54;Vrouwelijk;Rechts;4;25;left;yes;400;undefined;null;true;focus;yes;829874;Firefox;112.0;Windows;10;undefined;undefined;1920 x 1080;1920 x 1080
H034;54;Vrouwelijk;Rechts;4;26;left;no;450;leftarrow;516;true;focus;yes;831149;Firefox;112.0;Windows;10;undefined;undefined;1920 x 1080;1920 x 1080
H034;54;Vrouwelijk;Rechts;4;27;right;yes;450;rightarrow;592;false;focus;yes;832502;Firefox;112.0;Windows;10;undefined;undefined;1920 x 1080;1920 x 1080
H034;54;Vrouwelijk;Rechts;4;28;left;no;400;leftarrow;685;true;focus;yes;833949;Firefox;112.0;Windows;10;undefined;undefined;1920 x 1080;1920 x 1080
H034;54;Vrouwelijk;Rechts;4;29;right;no;400;rightarrow;602;true;focus;yes;835309;Firefox;112.0;Windows;10;undefined;undefined;1920 x 1080;1920 x 1080
H034;54;Vrouwelijk;Rechts;4;30;right;no;400;rightarrow;708;true;focus;yes;836781;Firefox;112.0;Windows;10;undefined;undefined;1920 x 1080;1920 x 1080
H034;54;Vrouwelijk;Rechts;4;31;left;no;400;leftarrow;689;true;focus;yes;838229;Firefox;112.0;Windows;10;undefined;undefined;1920 x 1080;1920 x 1080
H034;54;Vrouwelijk;Rechts;4;32;right;no;400;rightarrow;524;true;focus;yes;839517;Firefox;112.0;Windows;10;undefined;undefined;1920 x 1080;1920 x 1080
H034;54;Vrouwelijk;Rechts;4;33;left;no;400;leftarrow;526;true;focus;yes;840804;Firefox;112.0;Windows;10;undefined;undefined;1920 x 1080;1920 x 1080
H034;54;Vrouwelijk;Rechts;4;34;left;no;400;leftarrow;515;true;focus;yes;842085;Firefox;112.0;Windows;10;undefined;undefined;1920 x 1080;1920 x 1080
H034;54;Vrouwelijk;Rechts;4;35;left;no;400;leftarrow;655;true;focus;yes;843509;Firefox;112.0;Windows;10;undefined;undefined;1920 x 1080;1920 x 1080
H034;54;Vrouwelijk;Rechts;4;36;right;no;400;rightarrow;565;true;focus;yes;844837;Firefox;112.0;Windows;10;undefined;undefined;1920 x 1080;1920 x 1080
H034;54;Vrouwelijk;Rechts;4;37;right;no;400;rightarrow;494;true;focus;yes;846093;Firefox;112.0;Windows;10;undefined;undefined;1920 x 1080;1920 x 1080
H034;54;Vrouwelijk;Rechts;4;38;right;yes;400;rightarrow;510;false;focus;yes;847372;Firefox;112.0;Windows;10;undefined;undefined;1920 x 1080;1920 x 1080
H034;54;Vrouwelijk;Rechts;4;39;right;no;350;rightarrow;631;true;focus;yes;848765;Firefox;112.0;Windows;10;undefined;undefined;1920 x 1080;1920 x 1080
H034;54;Vrouwelijk;Rechts;4;40;left;yes;350;leftarrow;566;false;focus;yes;850093;Firefox;112.0;Windows;10;undefined;undefined;1920 x 1080;1920 x 1080
H034;54;Vrouwelijk;Rechts;4;41;left;no;300;leftarrow;700;true;focus;yes;851557;Firefox;112.0;Windows;10;undefined;undefined;1920 x 1080;1920 x 1080
H034;54;Vrouwelijk;Rechts;4;42;left;no;300;leftarrow;580;true;focus;yes;852901;Firefox;112.0;Windows;10;undefined;undefined;1920 x 1080;1920 x 1080
H034;54;Vrouwelijk;Rechts;4;43;right;no;300;rightarrow;499;true;focus;yes;854165;Firefox;112.0;Windows;10;undefined;undefined;1920 x 1080;1920 x 1080
H034;54;Vrouwelijk;Rechts;4;44;right;no;300;rightarrow;695;true;focus;yes;855621;Firefox;112.0;Windows;10;undefined;undefined;1920 x 1080;1920 x 1080
H034;54;Vrouwelijk;Rechts;4;45;left;no;300;leftarrow;466;true;focus;yes;856845;Firefox;112.0;Windows;10;undefined;undefined;1920 x 1080;1920 x 1080
H034;54;Vrouwelijk;Rechts;4;46;right;no;300;rightarrow;504;true;focus;yes;858109;Firefox;112.0;Windows;10;undefined;undefined;1920 x 1080;1920 x 1080
H034;54;Vrouwelijk;Rechts;4;47;left;yes;300;leftarrow;478;false;focus;yes;859349;Firefox;112.0;Windows;10;undefined;undefined;1920 x 1080;1920 x 1080
H034;54;Vrouwelijk;Rechts;4;48;right;yes;250;rightarrow;421;false;focus;yes;860533;Firefox;112.0;Windows;10;undefined;undefined;1920 x 1080;1920 x 1080
H034;54;Vrouwelijk;Rechts;4;49;left;no;200;leftarrow;526;true;focus;yes;861821;Firefox;112.0;Windows;10;undefined;undefined;1920 x 1080;1920 x 1080
H034;54;Vrouwelijk;Rechts;4;50;right;no;200;rightarrow;509;true;focus;yes;863093;Firefox;112.0;Windows;10;undefined;undefined;1920 x 1080;1920 x 1080
H034;54;Vrouwelijk;Rechts;4;51;left;no;200;leftarrow;485;true;focus;yes;864341;Firefox;112.0;Windows;10;undefined;undefined;1920 x 1080;1920 x 1080
H034;54;Vrouwelijk;Rechts;4;52;right;no;200;rightarrow;514;true;focus;yes;865614;Firefox;112.0;Windows;10;undefined;undefined;1920 x 1080;1920 x 1080
H034;54;Vrouwelijk;Rechts;4;53;left;no;200;leftarrow;536;true;focus;yes;866909;Firefox;112.0;Windows;10;undefined;undefined;1920 x 1080;1920 x 1080
H034;54;Vrouwelijk;Rechts;4;54;left;yes;200;undefined;null;true;focus;yes;868920;Firefox;112.0;Windows;10;undefined;undefined;1920 x 1080;1920 x 1080
H034;54;Vrouwelijk;Rechts;4;55;right;yes;250;undefined;null;true;focus;yes;870932;Firefox;112.0;Windows;10;undefined;undefined;1920 x 1080;1920 x 1080
H034;54;Vrouwelijk;Rechts;4;56;right;no;300;rightarrow;530;true;focus;yes;872221;Firefox;112.0;Windows;10;undefined;undefined;1920 x 1080;1920 x 1080
H034;54;Vrouwelijk;Rechts;4;57;right;yes;300;rightarrow;585;false;focus;yes;873565;Firefox;112.0;Windows;10;undefined;undefined;1920 x 1080;1920 x 1080
H034;54;Vrouwelijk;Rechts;4;58;left;no;250;leftarrow;496;true;focus;yes;874821;Firefox;112.0;Windows;10;undefined;undefined;1920 x 1080;1920 x 1080
H034;54;Vrouwelijk;Rechts;4;59;right;no;250;rightarrow;545;true;focus;yes;876125;Firefox;112.0;Windows;10;undefined;undefined;1920 x 1080;1920 x 1080
H034;54;Vrouwelijk;Rechts;4;60;left;no;250;leftarrow;496;true;focus;yes;877379;Firefox;112.0;Windows;10;undefined;undefined;1920 x 1080;1920 x 1080
H034;54;Vrouwelijk;Rechts;4;61;left;no;250;leftarrow;500;true;focus;yes;878637;Firefox;112.0;Windows;10;undefined;undefined;1920 x 1080;1920 x 1080
H034;54;Vrouwelijk;Rechts;4;62;right;no;250;rightarrow;537;true;focus;yes;879933;Firefox;112.0;Windows;10;undefined;undefined;1920 x 1080;1920 x 1080
H034;54;Vrouwelijk;Rechts;4;63;left;yes;250;undefined;null;true;focus;yes;881942;Firefox;112.0;Windows;10;undefined;undefined;1920 x 1080;1920 x 1080
H034;54;Vrouwelijk;Rechts;4;64;right;no;300;rightarrow;497;true;focus;yes;883197;Firefox;112.0;Windows;10;undefined;undefined;1920 x 1080;1920 x 1080
H034;54;Vrouwelijk;Rechts;4;65;right;no;300;rightarrow;578;true;focus;yes;884532;Firefox;112.0;Windows;10;undefined;undefined;1920 x 1080;1920 x 1080
H034;54;Vrouwelijk;Rechts;4;66;right;no;300;rightarrow;588;true;focus;yes;885877;Firefox;112.0;Windows;10;undefined;undefined;1920 x 1080;1920 x 1080
H034;54;Vrouwelijk;Rechts;4;67;left;no;300;leftarrow;682;true;focus;yes;887317;Firefox;112.0;Windows;10;undefined;undefined;1920 x 1080;1920 x 1080
H034;54;Vrouwelijk;Rechts;4;68;left;no;300;leftarrow;494;true;focus;yes;888573;Firefox;112.0;Windows;10;undefined;undefined;1920 x 1080;1920 x 1080
H034;54;Vrouwelijk;Rechts;4;69;right;no;300;rightarrow;521;true;focus;yes;889853;Firefox;112.0;Windows;10;undefined;undefined;1920 x 1080;1920 x 1080
H034;54;Vrouwelijk;Rechts;4;70;right;yes;300;rightarrow;503;false;focus;yes;891117;Firefox;112.0;Windows;10;undefined;undefined;1920 x 1080;1920 x 1080
H034;54;Vrouwelijk;Rechts;4;71;left;no;250;leftarrow;631;true;focus;yes;892510;Firefox;112.0;Windows;10;undefined;undefined;1920 x 1080;1920 x 1080
H034;54;Vrouwelijk;Rechts;4;72;left;yes;250;leftarrow;409;false;focus;yes;893677;Firefox;112.0;Windows;10;undefined;undefined;1920 x 1080;1920 x 1080
H034;54;Vrouwelijk;Rechts;4;73;left;no;200;leftarrow;644;true;focus;yes;895083;Firefox;112.0;Windows;10;undefined;undefined;1920 x 1080;1920 x 1080
H034;54;Vrouwelijk;Rechts;4;74;right;no;200;rightarrow;507;true;focus;yes;896349;Firefox;112.0;Windows;10;undefined;undefined;1920 x 1080;1920 x 1080
H034;54;Vrouwelijk;Rechts;4;75;right;yes;200;rightarrow;424;false;focus;yes;897533;Firefox;112.0;Windows;10;undefined;undefined;1920 x 1080;1920 x 1080
H034;54;Vrouwelijk;Rechts;4;76;left;no;150;leftarrow;530;true;focus;yes;898821;Firefox;112.0;Windows;10;undefined;undefined;1920 x 1080;1920 x 1080
H034;54;Vrouwelijk;Rechts;4;77;left;yes;150;undefined;null;true;focus;yes;900832;Firefox;112.0;Windows;10;undefined;undefined;1920 x 1080;1920 x 1080
H034;54;Vrouwelijk;Rechts;4;78;right;no;200;rightarrow;516;true;focus;yes;902109;Firefox;112.0;Windows;10;undefined;undefined;1920 x 1080;1920 x 1080
H034;54;Vrouwelijk;Rechts;4;79;left;no;200;leftarrow;445;true;focus;yes;903317;Firefox;112.0;Windows;10;undefined;undefined;1920 x 1080;1920 x 1080
H034;54;Vrouwelijk;Rechts;4;80;right;no;200;rightarrow;505;true;focus;yes;904581;Firefox;112.0;Windows;10;undefined;undefined;1920 x 1080;1920 x 1080
H034;54;Vrouwelijk;Rechts;4;81;left;yes;200;undefined;null;true;focus;yes;906594;Firefox;112.0;Windows;10;undefined;undefined;1920 x 1080;1920 x 1080
H034;54;Vrouwelijk;Rechts;4;82;right;no;250;rightarrow;492;true;focus;yes;907845;Firefox;112.0;Windows;10;undefined;undefined;1920 x 1080;1920 x 1080
H034;54;Vrouwelijk;Rechts;4;83;right;no;250;rightarrow;527;true;focus;yes;909133;Firefox;112.0;Windows;10;undefined;undefined;1920 x 1080;1920 x 1080
H034;54;Vrouwelijk;Rechts;4;84;left;no;250;leftarrow;545;true;focus;yes;910437;Firefox;112.0;Windows;10;undefined;undefined;1920 x 1080;1920 x 1080
H034;54;Vrouwelijk;Rechts;4;85;right;no;250;rightarrow;502;true;focus;yes;911701;Firefox;112.0;Windows;10;undefined;undefined;1920 x 1080;1920 x 1080
H034;54;Vrouwelijk;Rechts;4;86;left;no;250;leftarrow;512;true;focus;yes;912973;Firefox;112.0;Windows;10;undefined;undefined;1920 x 1080;1920 x 1080
H034;54;Vrouwelijk;Rechts;4;87;left;no;250;leftarrow;561;true;focus;yes;914291;Firefox;112.0;Windows;10;undefined;undefined;1920 x 1080;1920 x 1080
H034;54;Vrouwelijk;Rechts;4;88;right;yes;250;undefined;null;true;focus;yes;916297;Firefox;112.0;Windows;10;undefined;undefined;1920 x 1080;1920 x 1080
H034;54;Vrouwelijk;Rechts;4;89;right;no;300;rightarrow;531;true;focus;yes;917589;Firefox;112.0;Windows;10;undefined;undefined;1920 x 1080;1920 x 1080
H034;54;Vrouwelijk;Rechts;4;90;right;yes;300;rightarrow;520;false;focus;yes;918869;Firefox;112.0;Windows;10;undefined;undefined;1920 x 1080;1920 x 1080
H034;54;Vrouwelijk;Rechts;4;91;left;no;250;leftarrow;656;true;focus;yes;920285;Firefox;112.0;Windows;10;undefined;undefined;1920 x 1080;1920 x 1080
H034;54;Vrouwelijk;Rechts;4;92;left;no;250;leftarrow;520;true;focus;yes;921565;Firefox;112.0;Windows;10;undefined;undefined;1920 x 1080;1920 x 1080
H034;54;Vrouwelijk;Rechts;4;93;right;no;250;rightarrow;575;true;focus;yes;922901;Firefox;112.0;Windows;10;undefined;undefined;1920 x 1080;1920 x 1080
H034;54;Vrouwelijk;Rechts;4;94;right;no;250;rightarrow;497;true;focus;yes;924157;Firefox;112.0;Windows;10;undefined;undefined;1920 x 1080;1920 x 1080
H034;54;Vrouwelijk;Rechts;4;95;left;yes;250;undefined;null;true;focus;yes;926167;Firefox;112.0;Windows;10;undefined;undefined;1920 x 1080;1920 x 1080
H034;54;Vrouwelijk;Rechts;4;96;left;no;300;leftarrow;543;true;focus;yes;927469;Firefox;112.0;Windows;10;undefined;undefined;1920 x 1080;1920 x 1080
H034;54;Vrouwelijk;Rechts;4;97;left;no;300;leftarrow;481;true;focus;yes;928709;Firefox;112.0;Windows;10;undefined;undefined;1920 x 1080;1920 x 1080
H034;54;Vrouwelijk;Rechts;4;98;right;no;300;rightarrow;535;true;focus;yes;930005;Firefox;112.0;Windows;10;undefined;undefined;1920 x 1080;1920 x 1080
H034;54;Vrouwelijk;Rechts;4;99;right;no;300;rightarrow;520;true;focus;yes;931285;Firefox;112.0;Windows;10;undefined;undefined;1920 x 1080;1920 x 1080
H034;54;Vrouwelijk;Rechts;4;100;left;yes;300;leftarrow;601;false;focus;yes;932645;Firefox;112.0;Windows;10;undefined;undefined;1920 x 1080;1920 x 1080
H034;54;Vrouwelijk;Rechts;4;101;left;no;250;leftarrow;502;true;focus;yes;933901;Firefox;112.0;Windows;10;undefined;undefined;1920 x 1080;1920 x 1080
H034;54;Vrouwelijk;Rechts;4;102;right;yes;250;undefined;null;true;focus;yes;935911;Firefox;112.0;Windows;10;undefined;undefined;1920 x 1080;1920 x 1080
H034;54;Vrouwelijk;Rechts;4;103;right;no;300;rightarrow;614;true;focus;yes;937285;Firefox;112.0;Windows;10;undefined;undefined;1920 x 1080;1920 x 1080
H034;54;Vrouwelijk;Rechts;4;104;left;no;300;leftarrow;472;true;focus;yes;938517;Firefox;112.0;Windows;10;undefined;undefined;1920 x 1080;1920 x 1080
H034;54;Vrouwelijk;Rechts;4;105;left;no;300;leftarrow;505;true;focus;yes;939782;Firefox;112.0;Windows;10;undefined;undefined;1920 x 1080;1920 x 1080
H034;54;Vrouwelijk;Rechts;4;106;left;yes;300;undefined;null;true;focus;yes;941789;Firefox;112.0;Windows;10;undefined;undefined;1920 x 1080;1920 x 1080
H034;54;Vrouwelijk;Rechts;4;107;left;no;350;leftarrow;494;true;focus;yes;943045;Firefox;112.0;Windows;10;undefined;undefined;1920 x 1080;1920 x 1080
H034;54;Vrouwelijk;Rechts;4;108;right;yes;350;rightarrow;480;false;focus;yes;944285;Firefox;112.0;Windows;10;undefined;undefined;1920 x 1080;1920 x 1080
H034;54;Vrouwelijk;Rechts;4;109;right;no;300;rightarrow;561;true;focus;yes;945605;Firefox;112.0;Windows;10;undefined;undefined;1920 x 1080;1920 x 1080
H034;54;Vrouwelijk;Rechts;4;110;right;no;300;rightarrow;528;true;focus;yes;946893;Firefox;112.0;Windows;10;undefined;undefined;1920 x 1080;1920 x 1080
H034;54;Vrouwelijk;Rechts;4;111;right;no;300;rightarrow;511;true;focus;yes;948165;Firefox;112.0;Windows;10;undefined;undefined;1920 x 1080;1920 x 1080
H034;54;Vrouwelijk;Rechts;4;112;left;no;300;leftarrow;553;true;focus;yes;949476;Firefox;112.0;Windows;10;undefined;undefined;1920 x 1080;1920 x 1080
H034;54;Vrouwelijk;Rechts;4;113;left;no;300;leftarrow;533;true;focus;yes;950764;Firefox;112.0;Windows;10;undefined;undefined;1920 x 1080;1920 x 1080
H034;54;Vrouwelijk;Rechts;4;114;left;yes;300;leftarrow;517;false;focus;yes;952037;Firefox;112.0;Windows;10;undefined;undefined;1920 x 1080;1920 x 1080
H034;54;Vrouwelijk;Rechts;4;115;left;no;250;leftarrow;458;true;focus;yes;953253;Firefox;112.0;Windows;10;undefined;undefined;1920 x 1080;1920 x 1080
H034;54;Vrouwelijk;Rechts;4;116;right;no;250;rightarrow;537;true;focus;yes;954549;Firefox;112.0;Windows;10;undefined;undefined;1920 x 1080;1920 x 1080
H034;54;Vrouwelijk;Rechts;4;117;right;no;250;rightarrow;512;true;focus;yes;955821;Firefox;112.0;Windows;10;undefined;undefined;1920 x 1080;1920 x 1080
H034;54;Vrouwelijk;Rechts;4;118;right;yes;250;rightarrow;505;false;focus;yes;957085;Firefox;112.0;Windows;10;undefined;undefined;1920 x 1080;1920 x 1080
H034;54;Vrouwelijk;Rechts;4;119;left;no;200;leftarrow;530;true;focus;yes;958373;Firefox;112.0;Windows;10;undefined;undefined;1920 x 1080;1920 x 1080
H034;54;Vrouwelijk;Rechts;4;120;right;no;200;rightarrow;633;true;focus;yes;959765;Firefox;112.0;Windows;10;undefined;undefined;1920 x 1080;1920 x 1080
H034;54;Vrouwelijk;Rechts;4;121;left;no;200;leftarrow;466;true;focus;yes;960989;Firefox;112.0;Windows;10;undefined;undefined;1920 x 1080;1920 x 1080
H034;54;Vrouwelijk;Rechts;4;122;right;yes;200;undefined;null;true;focus;yes;963005;Firefox;112.0;Windows;10;undefined;undefined;1920 x 1080;1920 x 1080
H034;54;Vrouwelijk;Rechts;4;123;left;no;250;leftarrow;500;true;focus;yes;964269;Firefox;112.0;Windows;10;undefined;undefined;1920 x 1080;1920 x 1080
H034;54;Vrouwelijk;Rechts;4;124;right;no;250;rightarrow;488;true;focus;yes;965516;Firefox;112.0;Windows;10;undefined;undefined;1920 x 1080;1920 x 1080
H034;54;Vrouwelijk;Rechts;4;125;left;yes;250;undefined;null;true;focus;yes;967527;Firefox;112.0;Windows;10;undefined;undefined;1920 x 1080;1920 x 1080
H034;54;Vrouwelijk;Rechts;4;126;right;no;300;rightarrow;488;true;focus;yes;968781;Firefox;112.0;Windows;10;undefined;undefined;1920 x 1080;1920 x 1080
H034;54;Vrouwelijk;Rechts;4;127;right;no;300;rightarrow;528;true;focus;yes;970069;Firefox;112.0;Windows;10;undefined;undefined;1920 x 1080;1920 x 1080
H034;54;Vrouwelijk;Rechts;4;128;left;no;300;leftarrow;591;true;focus;yes;971422;Firefox;112.0;Windows;10;undefined;undefined;1920 x 1080;1920 x 1080
H034;54;Vrouwelijk;Rechts;5;1;left;no;300;leftarrow;530;true;focus;yes;990989;Firefox;112.0;Windows;10;undefined;undefined;1920 x 1080;1920 x 1080
H034;54;Vrouwelijk;Rechts;5;2;right;yes;300;rightarrow;536;false;focus;yes;992285;Firefox;112.0;Windows;10;undefined;undefined;1920 x 1080;1920 x 1080
H034;54;Vrouwelijk;Rechts;5;3;left;no;250;leftarrow;475;true;focus;yes;993517;Firefox;112.0;Windows;10;undefined;undefined;1920 x 1080;1920 x 1080
H034;54;Vrouwelijk;Rechts;5;4;right;no;250;rightarrow;521;true;focus;yes;994797;Firefox;112.0;Windows;10;undefined;undefined;1920 x 1080;1920 x 1080
H034;54;Vrouwelijk;Rechts;5;5;right;no;250;rightarrow;552;true;focus;yes;996109;Firefox;112.0;Windows;10;undefined;undefined;1920 x 1080;1920 x 1080
H034;54;Vrouwelijk;Rechts;5;6;left;yes;250;undefined;null;true;focus;yes;998119;Firefox;112.0;Windows;10;undefined;undefined;1920 x 1080;1920 x 1080
H034;54;Vrouwelijk;Rechts;5;7;right;no;300;rightarrow;502;true;focus;yes;999381;Firefox;112.0;Windows;10;undefined;undefined;1920 x 1080;1920 x 1080
H034;54;Vrouwelijk;Rechts;5;8;left;no;300;leftarrow;617;true;focus;yes;1000757;Firefox;112.0;Windows;10;undefined;undefined;1920 x 1080;1920 x 1080
H034;54;Vrouwelijk;Rechts;5;9;left;yes;300;undefined;null;true;focus;yes;1002766;Firefox;112.0;Windows;10;undefined;undefined;1920 x 1080;1920 x 1080
H034;54;Vrouwelijk;Rechts;5;10;right;yes;350;rightarrow;511;false;focus;yes;1004037;Firefox;112.0;Windows;10;undefined;undefined;1920 x 1080;1920 x 1080
H034;54;Vrouwelijk;Rechts;5;11;left;no;300;leftarrow;544;true;focus;yes;1005341;Firefox;112.0;Windows;10;undefined;undefined;1920 x 1080;1920 x 1080
H034;54;Vrouwelijk;Rechts;5;12;right;no;300;rightarrow;684;true;focus;yes;1006789;Firefox;112.0;Windows;10;undefined;undefined;1920 x 1080;1920 x 1080
H034;54;Vrouwelijk;Rechts;5;13;right;no;300;rightarrow;553;true;focus;yes;1008101;Firefox;112.0;Windows;10;undefined;undefined;1920 x 1080;1920 x 1080
H034;54;Vrouwelijk;Rechts;5;14;left;no;300;leftarrow;524;true;focus;yes;1009389;Firefox;112.0;Windows;10;undefined;undefined;1920 x 1080;1920 x 1080
H034;54;Vrouwelijk;Rechts;5;15;left;no;300;leftarrow;463;true;focus;yes;1010613;Firefox;112.0;Windows;10;undefined;undefined;1920 x 1080;1920 x 1080
H034;54;Vrouwelijk;Rechts;5;16;right;no;300;rightarrow;564;true;focus;yes;1011941;Firefox;112.0;Windows;10;undefined;undefined;1920 x 1080;1920 x 1080
H034;54;Vrouwelijk;Rechts;5;17;left;no;300;leftarrow;563;true;focus;yes;1013261;Firefox;112.0;Windows;10;undefined;undefined;1920 x 1080;1920 x 1080
H034;54;Vrouwelijk;Rechts;5;18;left;yes;300;leftarrow;540;false;focus;yes;1014565;Firefox;112.0;Windows;10;undefined;undefined;1920 x 1080;1920 x 1080
H034;54;Vrouwelijk;Rechts;5;19;right;no;250;rightarrow;515;true;focus;yes;1015844;Firefox;112.0;Windows;10;undefined;undefined;1920 x 1080;1920 x 1080
H034;54;Vrouwelijk;Rechts;5;20;left;no;250;leftarrow;497;true;focus;yes;1017102;Firefox;112.0;Windows;10;undefined;undefined;1920 x 1080;1920 x 1080
H034;54;Vrouwelijk;Rechts;5;21;left;no;250;leftarrow;526;true;focus;yes;1018389;Firefox;112.0;Windows;10;undefined;undefined;1920 x 1080;1920 x 1080
H034;54;Vrouwelijk;Rechts;5;22;right;no;250;rightarrow;533;true;focus;yes;1019685;Firefox;112.0;Windows;10;undefined;undefined;1920 x 1080;1920 x 1080
H034;54;Vrouwelijk;Rechts;5;23;right;no;250;rightarrow;535;true;focus;yes;1020981;Firefox;112.0;Windows;10;undefined;undefined;1920 x 1080;1920 x 1080
H034;54;Vrouwelijk;Rechts;5;24;right;yes;250;undefined;null;true;focus;yes;1022995;Firefox;112.0;Windows;10;undefined;undefined;1920 x 1080;1920 x 1080
H034;54;Vrouwelijk;Rechts;5;25;right;no;300;rightarrow;688;true;focus;yes;1024445;Firefox;112.0;Windows;10;undefined;undefined;1920 x 1080;1920 x 1080
H034;54;Vrouwelijk;Rechts;5;26;right;no;300;rightarrow;472;true;focus;yes;1025677;Firefox;112.0;Windows;10;undefined;undefined;1920 x 1080;1920 x 1080
H034;54;Vrouwelijk;Rechts;5;27;left;no;300;leftarrow;619;true;focus;yes;1027062;Firefox;112.0;Windows;10;undefined;undefined;1920 x 1080;1920 x 1080
H034;54;Vrouwelijk;Rechts;5;28;left;no;300;leftarrow;478;true;focus;yes;1028301;Firefox;112.0;Windows;10;undefined;undefined;1920 x 1080;1920 x 1080
H034;54;Vrouwelijk;Rechts;5;29;right;yes;300;rightarrow;492;false;focus;yes;1029557;Firefox;112.0;Windows;10;undefined;undefined;1920 x 1080;1920 x 1080
H034;54;Vrouwelijk;Rechts;5;30;right;no;250;rightarrow;625;true;focus;yes;1030949;Firefox;112.0;Windows;10;undefined;undefined;1920 x 1080;1920 x 1080
H034;54;Vrouwelijk;Rechts;5;31;left;yes;250;undefined;null;true;focus;yes;1032964;Firefox;112.0;Windows;10;undefined;undefined;1920 x 1080;1920 x 1080
H034;54;Vrouwelijk;Rechts;5;32;left;no;300;leftarrow;537;true;focus;yes;1034262;Firefox;112.0;Windows;10;undefined;undefined;1920 x 1080;1920 x 1080
H034;54;Vrouwelijk;Rechts;5;33;right;yes;300;undefined;null;true;focus;yes;1036273;Firefox;112.0;Windows;10;undefined;undefined;1920 x 1080;1920 x 1080
H034;54;Vrouwelijk;Rechts;5;34;left;no;350;leftarrow;531;true;focus;yes;1037565;Firefox;112.0;Windows;10;undefined;undefined;1920 x 1080;1920 x 1080
H034;54;Vrouwelijk;Rechts;5;35;left;no;350;leftarrow;623;true;focus;yes;1038949;Firefox;112.0;Windows;10;undefined;undefined;1920 x 1080;1920 x 1080
H034;54;Vrouwelijk;Rechts;5;36;left;yes;350;leftarrow;577;false;focus;yes;1040286;Firefox;112.0;Windows;10;undefined;undefined;1920 x 1080;1920 x 1080
H034;54;Vrouwelijk;Rechts;5;37;right;no;300;rightarrow;647;true;focus;yes;1041693;Firefox;112.0;Windows;10;undefined;undefined;1920 x 1080;1920 x 1080
H034;54;Vrouwelijk;Rechts;5;38;right;no;300;rightarrow;575;true;focus;yes;1043029;Firefox;112.0;Windows;10;undefined;undefined;1920 x 1080;1920 x 1080
H034;54;Vrouwelijk;Rechts;5;39;right;no;300;rightarrow;545;true;focus;yes;1044333;Firefox;112.0;Windows;10;undefined;undefined;1920 x 1080;1920 x 1080
H034;54;Vrouwelijk;Rechts;5;40;left;no;300;leftarrow;599;true;focus;yes;1045693;Firefox;112.0;Windows;10;undefined;undefined;1920 x 1080;1920 x 1080
H034;54;Vrouwelijk;Rechts;5;41;right;yes;300;undefined;null;true;focus;yes;1047706;Firefox;112.0;Windows;10;undefined;undefined;1920 x 1080;1920 x 1080
H034;54;Vrouwelijk;Rechts;5;42;left;no;350;leftarrow;554;true;focus;yes;1049021;Firefox;112.0;Windows;10;undefined;undefined;1920 x 1080;1920 x 1080
H034;54;Vrouwelijk;Rechts;5;43;right;no;350;rightarrow;590;true;focus;yes;1050373;Firefox;112.0;Windows;10;undefined;undefined;1920 x 1080;1920 x 1080
H034;54;Vrouwelijk;Rechts;5;44;right;no;350;rightarrow;717;true;focus;yes;1051853;Firefox;112.0;Windows;10;undefined;undefined;1920 x 1080;1920 x 1080
H034;54;Vrouwelijk;Rechts;5;45;left;yes;350;undefined;null;true;focus;yes;1053866;Firefox;112.0;Windows;10;undefined;undefined;1920 x 1080;1920 x 1080
H034;54;Vrouwelijk;Rechts;5;46;left;no;400;leftarrow;465;true;focus;yes;1055093;Firefox;112.0;Windows;10;undefined;undefined;1920 x 1080;1920 x 1080
H034;54;Vrouwelijk;Rechts;5;47;right;no;400;rightarrow;534;true;focus;yes;1056389;Firefox;112.0;Windows;10;undefined;undefined;1920 x 1080;1920 x 1080
H034;54;Vrouwelijk;Rechts;5;48;left;no;400;leftarrow;539;true;focus;yes;1057693;Firefox;112.0;Windows;10;undefined;undefined;1920 x 1080;1920 x 1080
H034;54;Vrouwelijk;Rechts;5;49;right;no;400;rightarrow;502;true;focus;yes;1058957;Firefox;112.0;Windows;10;undefined;undefined;1920 x 1080;1920 x 1080
H034;54;Vrouwelijk;Rechts;5;50;left;no;400;leftarrow;556;true;focus;yes;1060277;Firefox;112.0;Windows;10;undefined;undefined;1920 x 1080;1920 x 1080
H034;54;Vrouwelijk;Rechts;5;51;left;no;400;leftarrow;699;true;focus;yes;1061741;Firefox;112.0;Windows;10;undefined;undefined;1920 x 1080;1920 x 1080
H034;54;Vrouwelijk;Rechts;5;52;right;no;400;rightarrow;601;true;focus;yes;1063107;Firefox;112.0;Windows;10;undefined;undefined;1920 x 1080;1920 x 1080
H034;54;Vrouwelijk;Rechts;5;53;right;no;400;rightarrow;570;true;focus;yes;1064436;Firefox;112.0;Windows;10;undefined;undefined;1920 x 1080;1920 x 1080
H034;54;Vrouwelijk;Rechts;5;54;right;yes;400;rightarrow;613;false;focus;yes;1065805;Firefox;112.0;Windows;10;undefined;undefined;1920 x 1080;1920 x 1080
H034;54;Vrouwelijk;Rechts;5;55;left;no;350;leftarrow;620;true;focus;yes;1067189;Firefox;112.0;Windows;10;undefined;undefined;1920 x 1080;1920 x 1080
H034;54;Vrouwelijk;Rechts;5;56;left;yes;350;leftarrow;537;false;focus;yes;1068493;Firefox;112.0;Windows;10;undefined;undefined;1920 x 1080;1920 x 1080
H034;54;Vrouwelijk;Rechts;5;57;right;no;300;rightarrow;651;true;focus;yes;1069910;Firefox;112.0;Windows;10;undefined;undefined;1920 x 1080;1920 x 1080
H034;54;Vrouwelijk;Rechts;5;58;left;no;300;leftarrow;585;true;focus;yes;1071261;Firefox;112.0;Windows;10;undefined;undefined;1920 x 1080;1920 x 1080
H034;54;Vrouwelijk;Rechts;5;59;right;yes;300;undefined;null;true;focus;yes;1073284;Firefox;112.0;Windows;10;undefined;undefined;1920 x 1080;1920 x 1080
H034;54;Vrouwelijk;Rechts;5;60;left;no;350;leftarrow;530;true;focus;yes;1074581;Firefox;112.0;Windows;10;undefined;undefined;1920 x 1080;1920 x 1080
H034;54;Vrouwelijk;Rechts;5;61;left;yes;350;leftarrow;539;false;focus;yes;1075885;Firefox;112.0;Windows;10;undefined;undefined;1920 x 1080;1920 x 1080
H034;54;Vrouwelijk;Rechts;5;62;left;no;300;leftarrow;663;true;focus;yes;1077309;Firefox;112.0;Windows;10;undefined;undefined;1920 x 1080;1920 x 1080
H034;54;Vrouwelijk;Rechts;5;63;right;no;300;rightarrow;580;true;focus;yes;1078661;Firefox;112.0;Windows;10;undefined;undefined;1920 x 1080;1920 x 1080
H034;54;Vrouwelijk;Rechts;5;64;right;no;300;rightarrow;559;true;focus;yes;1079981;Firefox;112.0;Windows;10;undefined;undefined;1920 x 1080;1920 x 1080
H034;54;Vrouwelijk;Rechts;5;65;right;no;300;rightarrow;599;true;focus;yes;1081341;Firefox;112.0;Windows;10;undefined;undefined;1920 x 1080;1920 x 1080
H034;54;Vrouwelijk;Rechts;5;66;right;yes;300;undefined;null;true;focus;yes;1083358;Firefox;112.0;Windows;10;undefined;undefined;1920 x 1080;1920 x 1080
H034;54;Vrouwelijk;Rechts;5;67;right;no;350;rightarrow;663;true;focus;yes;1084781;Firefox;112.0;Windows;10;undefined;undefined;1920 x 1080;1920 x 1080
H034;54;Vrouwelijk;Rechts;5;68;left;no;350;leftarrow;615;true;focus;yes;1086157;Firefox;112.0;Windows;10;undefined;undefined;1920 x 1080;1920 x 1080
H034;54;Vrouwelijk;Rechts;5;69;right;no;350;rightarrow;581;true;focus;yes;1087502;Firefox;112.0;Windows;10;undefined;undefined;1920 x 1080;1920 x 1080
H034;54;Vrouwelijk;Rechts;5;70;left;no;350;leftarrow;646;true;focus;yes;1088908;Firefox;112.0;Windows;10;undefined;undefined;1920 x 1080;1920 x 1080
H034;54;Vrouwelijk;Rechts;5;71;left;yes;350;leftarrow;569;false;focus;yes;1090237;Firefox;112.0;Windows;10;undefined;undefined;1920 x 1080;1920 x 1080
H034;54;Vrouwelijk;Rechts;5;72;left;no;300;leftarrow;531;true;focus;yes;1091533;Firefox;112.0;Windows;10;undefined;undefined;1920 x 1080;1920 x 1080
H034;54;Vrouwelijk;Rechts;5;73;left;no;300;leftarrow;588;true;focus;yes;1092886;Firefox;112.0;Windows;10;undefined;undefined;1920 x 1080;1920 x 1080
H034;54;Vrouwelijk;Rechts;5;74;left;yes;300;undefined;null;true;focus;yes;1094900;Firefox;112.0;Windows;10;undefined;undefined;1920 x 1080;1920 x 1080
H034;54;Vrouwelijk;Rechts;5;75;left;no;350;leftarrow;584;true;focus;yes;1096245;Firefox;112.0;Windows;10;undefined;undefined;1920 x 1080;1920 x 1080
H034;54;Vrouwelijk;Rechts;5;76;right;yes;350;rightarrow;593;false;focus;yes;1097597;Firefox;112.0;Windows;10;undefined;undefined;1920 x 1080;1920 x 1080
H034;54;Vrouwelijk;Rechts;5;77;left;no;300;leftarrow;550;true;focus;yes;1098909;Firefox;112.0;Windows;10;undefined;undefined;1920 x 1080;1920 x 1080
H034;54;Vrouwelijk;Rechts;5;78;right;no;300;rightarrow;469;true;focus;yes;1100141;Firefox;112.0;Windows;10;undefined;undefined;1920 x 1080;1920 x 1080
H034;54;Vrouwelijk;Rechts;5;79;right;no;300;rightarrow;580;true;focus;yes;1101484;Firefox;112.0;Windows;10;undefined;undefined;1920 x 1080;1920 x 1080
H034;54;Vrouwelijk;Rechts;5;80;right;no;300;rightarrow;629;true;focus;yes;1102877;Firefox;112.0;Windows;10;undefined;undefined;1920 x 1080;1920 x 1080
H034;54;Vrouwelijk;Rechts;5;81;left;no;300;leftarrow;471;true;focus;yes;1104109;Firefox;112.0;Windows;10;undefined;undefined;1920 x 1080;1920 x 1080
H034;54;Vrouwelijk;Rechts;5;82;right;no;300;rightarrow;542;true;focus;yes;1105414;Firefox;112.0;Windows;10;undefined;undefined;1920 x 1080;1920 x 1080
H034;54;Vrouwelijk;Rechts;5;83;right;yes;300;rightarrow;509;false;focus;yes;1106685;Firefox;112.0;Windows;10;undefined;undefined;1920 x 1080;1920 x 1080
H034;54;Vrouwelijk;Rechts;5;84;left;no;250;leftarrow;626;true;focus;yes;1108078;Firefox;112.0;Windows;10;undefined;undefined;1920 x 1080;1920 x 1080
H034;54;Vrouwelijk;Rechts;5;85;right;no;250;rightarrow;460;true;focus;yes;1109299;Firefox;112.0;Windows;10;undefined;undefined;1920 x 1080;1920 x 1080
H034;54;Vrouwelijk;Rechts;5;86;left;yes;250;leftarrow;491;false;focus;yes;1110549;Firefox;112.0;Windows;10;undefined;undefined;1920 x 1080;1920 x 1080
H034;54;Vrouwelijk;Rechts;5;87;right;no;200;rightarrow;487;true;focus;yes;1111797;Firefox;112.0;Windows;10;undefined;undefined;1920 x 1080;1920 x 1080
H034;54;Vrouwelijk;Rechts;5;88;left;no;200;leftarrow;501;true;focus;yes;1113062;Firefox;112.0;Windows;10;undefined;undefined;1920 x 1080;1920 x 1080
H034;54;Vrouwelijk;Rechts;5;89;left;no;200;leftarrow;567;true;focus;yes;1114389;Firefox;112.0;Windows;10;undefined;undefined;1920 x 1080;1920 x 1080
H034;54;Vrouwelijk;Rechts;5;90;right;yes;200;rightarrow;518;false;focus;yes;1115669;Firefox;112.0;Windows;10;undefined;undefined;1920 x 1080;1920 x 1080
H034;54;Vrouwelijk;Rechts;5;91;left;no;150;leftarrow;441;true;focus;yes;1116870;Firefox;112.0;Windows;10;undefined;undefined;1920 x 1080;1920 x 1080
H034;54;Vrouwelijk;Rechts;5;92;left;no;150;leftarrow;614;true;focus;yes;1118245;Firefox;112.0;Windows;10;undefined;undefined;1920 x 1080;1920 x 1080
H034;54;Vrouwelijk;Rechts;5;93;right;no;150;rightarrow;511;true;focus;yes;1119517;Firefox;112.0;Windows;10;undefined;undefined;1920 x 1080;1920 x 1080
H034;54;Vrouwelijk;Rechts;5;94;right;no;150;rightarrow;511;true;focus;yes;1120789;Firefox;112.0;Windows;10;undefined;undefined;1920 x 1080;1920 x 1080
H034;54;Vrouwelijk;Rechts;5;95;left;yes;150;undefined;null;true;focus;yes;1122803;Firefox;112.0;Windows;10;undefined;undefined;1920 x 1080;1920 x 1080
H034;54;Vrouwelijk;Rechts;5;96;right;no;200;rightarrow;488;true;focus;yes;1124053;Firefox;112.0;Windows;10;undefined;undefined;1920 x 1080;1920 x 1080
H034;54;Vrouwelijk;Rechts;5;97;left;yes;200;undefined;null;true;focus;yes;1126068;Firefox;112.0;Windows;10;undefined;undefined;1920 x 1080;1920 x 1080
H034;54;Vrouwelijk;Rechts;5;98;right;no;250;rightarrow;473;true;focus;yes;1127301;Firefox;112.0;Windows;10;undefined;undefined;1920 x 1080;1920 x 1080
H034;54;Vrouwelijk;Rechts;5;99;right;yes;250;undefined;null;true;focus;yes;1129316;Firefox;112.0;Windows;10;undefined;undefined;1920 x 1080;1920 x 1080
H034;54;Vrouwelijk;Rechts;5;100;right;no;300;rightarrow;596;true;focus;yes;1130677;Firefox;112.0;Windows;10;undefined;undefined;1920 x 1080;1920 x 1080
H034;54;Vrouwelijk;Rechts;5;101;left;no;300;leftarrow;497;true;focus;yes;1131941;Firefox;112.0;Windows;10;undefined;undefined;1920 x 1080;1920 x 1080
H034;54;Vrouwelijk;Rechts;5;102;right;no;300;rightarrow;582;true;focus;yes;1133285;Firefox;112.0;Windows;10;undefined;undefined;1920 x 1080;1920 x 1080
H034;54;Vrouwelijk;Rechts;5;103;left;no;300;leftarrow;523;true;focus;yes;1134574;Firefox;112.0;Windows;10;undefined;undefined;1920 x 1080;1920 x 1080
H034;54;Vrouwelijk;Rechts;5;104;left;no;300;leftarrow;551;true;focus;yes;1135886;Firefox;112.0;Windows;10;undefined;undefined;1920 x 1080;1920 x 1080
H034;54;Vrouwelijk;Rechts;5;105;right;no;300;rightarrow;486;true;focus;yes;1137132;Firefox;112.0;Windows;10;undefined;undefined;1920 x 1080;1920 x 1080
H034;54;Vrouwelijk;Rechts;5;106;left;no;300;leftarrow;487;true;focus;yes;1138381;Firefox;112.0;Windows;10;undefined;undefined;1920 x 1080;1920 x 1080
H034;54;Vrouwelijk;Rechts;5;107;left;no;300;leftarrow;525;true;focus;yes;1139670;Firefox;112.0;Windows;10;undefined;undefined;1920 x 1080;1920 x 1080
H034;54;Vrouwelijk;Rechts;5;108;left;no;300;leftarrow;519;true;focus;yes;1140949;Firefox;112.0;Windows;10;undefined;undefined;1920 x 1080;1920 x 1080
H034;54;Vrouwelijk;Rechts;5;109;right;no;300;rightarrow;526;true;focus;yes;1142237;Firefox;112.0;Windows;10;undefined;undefined;1920 x 1080;1920 x 1080
H034;54;Vrouwelijk;Rechts;5;110;left;yes;300;leftarrow;477;false;focus;yes;1143478;Firefox;112.0;Windows;10;undefined;undefined;1920 x 1080;1920 x 1080
H034;54;Vrouwelijk;Rechts;5;111;right;no;250;rightarrow;469;true;focus;yes;1144709;Firefox;112.0;Windows;10;undefined;undefined;1920 x 1080;1920 x 1080
H034;54;Vrouwelijk;Rechts;5;112;right;yes;250;rightarrow;534;false;focus;yes;1146005;Firefox;112.0;Windows;10;undefined;undefined;1920 x 1080;1920 x 1080
H034;54;Vrouwelijk;Rechts;5;113;right;yes;200;undefined;null;true;focus;yes;1148014;Firefox;112.0;Windows;10;undefined;undefined;1920 x 1080;1920 x 1080
H034;54;Vrouwelijk;Rechts;5;114;right;no;250;rightarrow;550;true;focus;yes;1149324;Firefox;112.0;Windows;10;undefined;undefined;1920 x 1080;1920 x 1080
H034;54;Vrouwelijk;Rechts;5;115;left;yes;250;undefined;null;true;focus;yes;1151332;Firefox;112.0;Windows;10;undefined;undefined;1920 x 1080;1920 x 1080
H034;54;Vrouwelijk;Rechts;5;116;left;no;300;leftarrow;750;true;focus;yes;1152845;Firefox;112.0;Windows;10;undefined;undefined;1920 x 1080;1920 x 1080
H034;54;Vrouwelijk;Rechts;5;117;left;no;300;leftarrow;502;true;focus;yes;1154110;Firefox;112.0;Windows;10;undefined;undefined;1920 x 1080;1920 x 1080
H034;54;Vrouwelijk;Rechts;5;118;right;no;300;rightarrow;565;true;focus;yes;1155437;Firefox;112.0;Windows;10;undefined;undefined;1920 x 1080;1920 x 1080
H034;54;Vrouwelijk;Rechts;5;119;right;no;300;rightarrow;553;true;focus;yes;1156749;Firefox;112.0;Windows;10;undefined;undefined;1920 x 1080;1920 x 1080
H034;54;Vrouwelijk;Rechts;5;120;left;no;300;leftarrow;582;true;focus;yes;1158093;Firefox;112.0;Windows;10;undefined;undefined;1920 x 1080;1920 x 1080
H034;54;Vrouwelijk;Rechts;5;121;right;no;300;rightarrow;582;true;focus;yes;1159437;Firefox;112.0;Windows;10;undefined;undefined;1920 x 1080;1920 x 1080
H034;54;Vrouwelijk;Rechts;5;122;left;yes;300;undefined;null;true;focus;yes;1161450;Firefox;112.0;Windows;10;undefined;undefined;1920 x 1080;1920 x 1080
H034;54;Vrouwelijk;Rechts;5;123;left;no;350;leftarrow;565;true;focus;yes;1162773;Firefox;112.0;Windows;10;undefined;undefined;1920 x 1080;1920 x 1080
H034;54;Vrouwelijk;Rechts;5;124;left;no;350;leftarrow;487;true;focus;yes;1164021;Firefox;112.0;Windows;10;undefined;undefined;1920 x 1080;1920 x 1080
H034;54;Vrouwelijk;Rechts;5;125;left;no;350;leftarrow;511;true;focus;yes;1165293;Firefox;112.0;Windows;10;undefined;undefined;1920 x 1080;1920 x 1080
H034;54;Vrouwelijk;Rechts;5;126;right;yes;350;rightarrow;566;false;focus;yes;1166621;Firefox;112.0;Windows;10;undefined;undefined;1920 x 1080;1920 x 1080
H034;54;Vrouwelijk;Rechts;5;127;right;no;300;rightarrow;685;true;focus;yes;1168069;Firefox;112.0;Windows;10;undefined;undefined;1920 x 1080;1920 x 1080
H034;54;Vrouwelijk;Rechts;5;128;right;no;300;rightarrow;542;true;focus;yes;1169373;Firefox;112.0;Windows;10;undefined;undefined;1920 x 1080;1920 x 1080
H034;54;Vrouwelijk;Rechts;6;1;left;yes;300;undefined;null;true;focus;yes;1189188;Firefox;112.0;Windows;10;undefined;undefined;1920 x 1080;1920 x 1080
H034;54;Vrouwelijk;Rechts;6;2;right;yes;350;rightarrow;493;false;focus;yes;1190446;Firefox;112.0;Windows;10;undefined;undefined;1920 x 1080;1920 x 1080
H034;54;Vrouwelijk;Rechts;6;4;right;no;300;rightarrow;520;true;focus;yes;1193085;Firefox;112.0;Windows;10;undefined;undefined;1920 x 1080;1920 x 1080
H034;54;Vrouwelijk;Rechts;6;3;left;no;300;leftarrow;591;true;focus;yes;1191804;Firefox;112.0;Windows;10;undefined;undefined;1920 x 1080;1920 x 1080
H034;54;Vrouwelijk;Rechts;6;5;left;no;300;leftarrow;427;true;focus;yes;1194277;Firefox;112.0;Windows;10;undefined;undefined;1920 x 1080;1920 x 1080
H034;54;Vrouwelijk;Rechts;6;6;right;no;300;rightarrow;519;true;focus;yes;1195558;Firefox;112.0;Windows;10;undefined;undefined;1920 x 1080;1920 x 1080
H034;54;Vrouwelijk;Rechts;6;7;right;no;300;rightarrow;495;true;focus;yes;1196814;Firefox;112.0;Windows;10;undefined;undefined;1920 x 1080;1920 x 1080
H034;54;Vrouwelijk;Rechts;6;9;right;yes;300;rightarrow;491;false;focus;yes;1199309;Firefox;112.0;Windows;10;undefined;undefined;1920 x 1080;1920 x 1080
H034;54;Vrouwelijk;Rechts;6;10;left;no;250;leftarrow;490;true;focus;yes;1200566;Firefox;112.0;Windows;10;undefined;undefined;1920 x 1080;1920 x 1080
H034;54;Vrouwelijk;Rechts;6;8;left;no;300;leftarrow;477;true;focus;yes;1198053;Firefox;112.0;Windows;10;undefined;undefined;1920 x 1080;1920 x 1080
H034;54;Vrouwelijk;Rechts;6;11;left;no;250;leftarrow;645;true;focus;yes;1201973;Firefox;112.0;Windows;10;undefined;undefined;1920 x 1080;1920 x 1080
H034;54;Vrouwelijk;Rechts;6;12;right;no;250;rightarrow;418;true;focus;yes;1203157;Firefox;112.0;Windows;10;undefined;undefined;1920 x 1080;1920 x 1080
H034;54;Vrouwelijk;Rechts;6;13;left;yes;250;undefined;null;true;focus;yes;1205174;Firefox;112.0;Windows;10;undefined;undefined;1920 x 1080;1920 x 1080
