participantID,age,gender,handedness,block_i,trial_i,stim,signal,SSD,response,rt,correct,focus,Fullscreen,time_elapsed,browser_name,browser_version,os_name,os_version,tablet,mobile,screen_resolution,window_resolution
S010,21,Vrouwelijk,Links,0,1,right,yes,200,rightarrow,473,false,focus,yes,96321,Chrome,111.0,Windows,10,undefined,undefined,1536 x 864,1536 x 864
S010,21,Vrouwelijk,Links,0,2,left,no,150,leftarrow,231,true,focus,yes,98100,Chrome,111.0,Windows,10,undefined,undefined,1536 x 864,1536 x 864
S010,21,Vrouwelijk,Links,0,3,right,no,150,rightarrow,275,true,focus,yes,99903,Chrome,111.0,Windows,10,undefined,undefined,1536 x 864,1536 x 864
S010,21,Vrouwelijk,Links,0,4,left,no,150,leftarrow,233,true,focus,yes,101669,Chrome,111.0,Windows,10,undefined,undefined,1536 x 864,1536 x 864
S010,21,Vrouwelijk,Links,0,5,left,yes,150,leftarrow,443,false,focus,yes,103637,Chrome,111.0,Windows,10,undefined,undefined,1536 x 864,1536 x 864
S010,21,Vrouwelijk,Links,0,6,left,no,100,leftarrow,406,true,focus,yes,105575,Chrome,111.0,Windows,10,undefined,undefined,1536 x 864,1536 x 864
S010,21,Vrouwelijk,Links,0,7,right,no,100,rightarrow,294,true,focus,yes,107391,Chrome,111.0,Windows,10,undefined,undefined,1536 x 864,1536 x 864
S010,21,Vrouwelijk,Links,0,8,right,no,100,leftarrow,97,false,focus,yes,109014,Chrome,111.0,Windows,10,undefined,undefined,1536 x 864,1536 x 864
S010,21,Vrouwelijk,Links,1,1,left,no,100,leftarrow,390,true,focus,yes,129160,Chrome,111.0,Windows,10,undefined,undefined,1536 x 864,1536 x 864
S010,21,Vrouwelijk,Links,1,2,right,yes,100,rightarrow,242,false,focus,yes,130185,Chrome,111.0,Windows,10,undefined,undefined,1536 x 864,1536 x 864
S010,21,Vrouwelijk,Links,1,3,right,no,50,leftarrow,270,false,focus,yes,131228,Chrome,111.0,Windows,10,undefined,undefined,1536 x 864,1536 x 864
S010,21,Vrouwelijk,Links,1,4,right,no,50,rightarrow,414,true,focus,yes,132411,Chrome,111.0,Windows,10,undefined,undefined,1536 x 864,1536 x 864
S010,21,Vrouwelijk,Links,1,5,left,no,50,rightarrow,70,false,focus,yes,133264,Chrome,111.0,Windows,10,undefined,undefined,1536 x 864,1536 x 864
S010,21,Vrouwelijk,Links,1,6,right,no,50,rightarrow,279,true,focus,yes,134315,Chrome,111.0,Windows,10,undefined,undefined,1536 x 864,1536 x 864
S010,21,Vrouwelijk,Links,1,7,left,yes,50,undefined,null,true,focus,yes,136346,Chrome,111.0,Windows,10,undefined,undefined,1536 x 864,1536 x 864
S010,21,Vrouwelijk,Links,1,8,left,no,100,leftarrow,367,true,focus,yes,137492,Chrome,111.0,Windows,10,undefined,undefined,1536 x 864,1536 x 864
S010,21,Vrouwelijk,Links,1,9,left,no,100,leftarrow,410,true,focus,yes,138687,Chrome,111.0,Windows,10,undefined,undefined,1536 x 864,1536 x 864
S010,21,Vrouwelijk,Links,1,10,right,no,100,rightarrow,278,true,focus,yes,139736,Chrome,111.0,Windows,10,undefined,undefined,1536 x 864,1536 x 864
S010,21,Vrouwelijk,Links,1,11,right,yes,100,rightarrow,422,false,focus,yes,140942,Chrome,111.0,Windows,10,undefined,undefined,1536 x 864,1536 x 864
S010,21,Vrouwelijk,Links,1,12,left,no,50,leftarrow,328,true,focus,yes,142048,Chrome,111.0,Windows,10,undefined,undefined,1536 x 864,1536 x 864
S010,21,Vrouwelijk,Links,1,13,left,yes,50,undefined,null,true,focus,yes,144082,Chrome,111.0,Windows,10,undefined,undefined,1536 x 864,1536 x 864
S010,21,Vrouwelijk,Links,1,14,right,no,100,rightarrow,242,true,focus,yes,145104,Chrome,111.0,Windows,10,undefined,undefined,1536 x 864,1536 x 864
S010,21,Vrouwelijk,Links,1,15,right,no,100,rightarrow,320,true,focus,yes,146193,Chrome,111.0,Windows,10,undefined,undefined,1536 x 864,1536 x 864
S010,21,Vrouwelijk,Links,1,16,left,no,100,leftarrow,352,true,focus,yes,147329,Chrome,111.0,Windows,10,undefined,undefined,1536 x 864,1536 x 864
S010,21,Vrouwelijk,Links,1,17,left,yes,100,undefined,null,true,focus,yes,149368,Chrome,111.0,Windows,10,undefined,undefined,1536 x 864,1536 x 864
S010,21,Vrouwelijk,Links,1,18,right,no,150,rightarrow,337,true,focus,yes,150474,Chrome,111.0,Windows,10,undefined,undefined,1536 x 864,1536 x 864
S010,21,Vrouwelijk,Links,1,19,left,no,150,leftarrow,294,true,focus,yes,151546,Chrome,111.0,Windows,10,undefined,undefined,1536 x 864,1536 x 864
S010,21,Vrouwelijk,Links,1,20,left,no,150,leftarrow,405,true,focus,yes,152730,Chrome,111.0,Windows,10,undefined,undefined,1536 x 864,1536 x 864
S010,21,Vrouwelijk,Links,1,21,right,no,150,rightarrow,340,true,focus,yes,153839,Chrome,111.0,Windows,10,undefined,undefined,1536 x 864,1536 x 864
S010,21,Vrouwelijk,Links,1,22,left,no,150,leftarrow,497,true,focus,yes,155116,Chrome,111.0,Windows,10,undefined,undefined,1536 x 864,1536 x 864
S010,21,Vrouwelijk,Links,1,23,right,no,150,rightarrow,285,true,focus,yes,156181,Chrome,111.0,Windows,10,undefined,undefined,1536 x 864,1536 x 864
S010,21,Vrouwelijk,Links,1,24,right,yes,150,undefined,null,true,focus,yes,158215,Chrome,111.0,Windows,10,undefined,undefined,1536 x 864,1536 x 864
S010,21,Vrouwelijk,Links,1,25,left,no,200,leftarrow,386,true,focus,yes,159369,Chrome,111.0,Windows,10,undefined,undefined,1536 x 864,1536 x 864
S010,21,Vrouwelijk,Links,1,26,right,no,200,rightarrow,289,true,focus,yes,160432,Chrome,111.0,Windows,10,undefined,undefined,1536 x 864,1536 x 864
S010,21,Vrouwelijk,Links,1,27,right,no,200,rightarrow,373,true,focus,yes,161577,Chrome,111.0,Windows,10,undefined,undefined,1536 x 864,1536 x 864
S010,21,Vrouwelijk,Links,1,28,left,yes,200,leftarrow,387,false,focus,yes,162746,Chrome,111.0,Windows,10,undefined,undefined,1536 x 864,1536 x 864
S010,21,Vrouwelijk,Links,1,29,right,no,150,rightarrow,291,true,focus,yes,163817,Chrome,111.0,Windows,10,undefined,undefined,1536 x 864,1536 x 864
S010,21,Vrouwelijk,Links,1,30,right,yes,150,rightarrow,376,false,focus,yes,164973,Chrome,111.0,Windows,10,undefined,undefined,1536 x 864,1536 x 864
S010,21,Vrouwelijk,Links,1,31,left,no,100,leftarrow,402,true,focus,yes,166149,Chrome,111.0,Windows,10,undefined,undefined,1536 x 864,1536 x 864
S010,21,Vrouwelijk,Links,1,32,left,no,100,leftarrow,418,true,focus,yes,167349,Chrome,111.0,Windows,10,undefined,undefined,1536 x 864,1536 x 864
S010,21,Vrouwelijk,Links,1,33,left,no,100,leftarrow,382,true,focus,yes,168511,Chrome,111.0,Windows,10,undefined,undefined,1536 x 864,1536 x 864
S010,21,Vrouwelijk,Links,1,34,left,yes,100,undefined,null,true,focus,yes,170556,Chrome,111.0,Windows,10,undefined,undefined,1536 x 864,1536 x 864
S010,21,Vrouwelijk,Links,1,35,right,yes,150,rightarrow,336,false,focus,yes,171674,Chrome,111.0,Windows,10,undefined,undefined,1536 x 864,1536 x 864
S010,21,Vrouwelijk,Links,1,36,right,no,100,rightarrow,337,true,focus,yes,172793,Chrome,111.0,Windows,10,undefined,undefined,1536 x 864,1536 x 864
S010,21,Vrouwelijk,Links,1,37,left,no,100,leftarrow,397,true,focus,yes,173973,Chrome,111.0,Windows,10,undefined,undefined,1536 x 864,1536 x 864
S010,21,Vrouwelijk,Links,1,38,right,no,100,rightarrow,331,true,focus,yes,175087,Chrome,111.0,Windows,10,undefined,undefined,1536 x 864,1536 x 864
S010,21,Vrouwelijk,Links,1,39,left,no,100,leftarrow,290,true,focus,yes,176149,Chrome,111.0,Windows,10,undefined,undefined,1536 x 864,1536 x 864
S010,21,Vrouwelijk,Links,1,40,right,no,100,rightarrow,225,true,focus,yes,177152,Chrome,111.0,Windows,10,undefined,undefined,1536 x 864,1536 x 864
S010,21,Vrouwelijk,Links,1,41,right,no,100,rightarrow,431,true,focus,yes,178368,Chrome,111.0,Windows,10,undefined,undefined,1536 x 864,1536 x 864
S010,21,Vrouwelijk,Links,1,42,left,yes,100,undefined,null,true,focus,yes,180405,Chrome,111.0,Windows,10,undefined,undefined,1536 x 864,1536 x 864
S010,21,Vrouwelijk,Links,1,43,right,no,150,rightarrow,256,true,focus,yes,181441,Chrome,111.0,Windows,10,undefined,undefined,1536 x 864,1536 x 864
S010,21,Vrouwelijk,Links,1,44,left,no,150,leftarrow,411,true,focus,yes,182622,Chrome,111.0,Windows,10,undefined,undefined,1536 x 864,1536 x 864
S010,21,Vrouwelijk,Links,1,45,left,no,150,leftarrow,530,true,focus,yes,183927,Chrome,111.0,Windows,10,undefined,undefined,1536 x 864,1536 x 864
S010,21,Vrouwelijk,Links,1,46,right,no,150,rightarrow,459,true,focus,yes,185161,Chrome,111.0,Windows,10,undefined,undefined,1536 x 864,1536 x 864
S010,21,Vrouwelijk,Links,1,47,left,no,150,leftarrow,269,true,focus,yes,186212,Chrome,111.0,Windows,10,undefined,undefined,1536 x 864,1536 x 864
S010,21,Vrouwelijk,Links,1,48,right,yes,150,undefined,null,true,focus,yes,188238,Chrome,111.0,Windows,10,undefined,undefined,1536 x 864,1536 x 864
S010,21,Vrouwelijk,Links,1,49,right,no,200,rightarrow,289,true,focus,yes,189296,Chrome,111.0,Windows,10,undefined,undefined,1536 x 864,1536 x 864
S010,21,Vrouwelijk,Links,1,50,left,no,200,leftarrow,384,true,focus,yes,190461,Chrome,111.0,Windows,10,undefined,undefined,1536 x 864,1536 x 864
S010,21,Vrouwelijk,Links,1,51,left,no,200,leftarrow,510,true,focus,yes,191758,Chrome,111.0,Windows,10,undefined,undefined,1536 x 864,1536 x 864
S010,21,Vrouwelijk,Links,1,52,left,yes,200,undefined,null,true,focus,yes,193797,Chrome,111.0,Windows,10,undefined,undefined,1536 x 864,1536 x 864
S010,21,Vrouwelijk,Links,1,53,right,yes,250,rightarrow,287,false,focus,yes,194853,Chrome,111.0,Windows,10,undefined,undefined,1536 x 864,1536 x 864
S010,21,Vrouwelijk,Links,1,54,right,no,200,rightarrow,312,true,focus,yes,195948,Chrome,111.0,Windows,10,undefined,undefined,1536 x 864,1536 x 864
S010,21,Vrouwelijk,Links,1,55,left,no,200,leftarrow,271,true,focus,yes,196999,Chrome,111.0,Windows,10,undefined,undefined,1536 x 864,1536 x 864
S010,21,Vrouwelijk,Links,1,56,right,no,200,rightarrow,316,true,focus,yes,198084,Chrome,111.0,Windows,10,undefined,undefined,1536 x 864,1536 x 864
S010,21,Vrouwelijk,Links,1,57,right,no,200,rightarrow,494,true,focus,yes,199349,Chrome,111.0,Windows,10,undefined,undefined,1536 x 864,1536 x 864
S010,21,Vrouwelijk,Links,1,58,right,no,200,leftarrow,258,false,focus,yes,200386,Chrome,111.0,Windows,10,undefined,undefined,1536 x 864,1536 x 864
S010,21,Vrouwelijk,Links,1,59,left,no,200,rightarrow,256,false,focus,yes,201426,Chrome,111.0,Windows,10,undefined,undefined,1536 x 864,1536 x 864
S010,21,Vrouwelijk,Links,1,60,left,yes,200,undefined,null,true,focus,yes,203465,Chrome,111.0,Windows,10,undefined,undefined,1536 x 864,1536 x 864
S010,21,Vrouwelijk,Links,1,61,right,no,250,rightarrow,270,true,focus,yes,204502,Chrome,111.0,Windows,10,undefined,undefined,1536 x 864,1536 x 864
S010,21,Vrouwelijk,Links,1,62,right,yes,250,rightarrow,400,false,focus,yes,205688,Chrome,111.0,Windows,10,undefined,undefined,1536 x 864,1536 x 864
S010,21,Vrouwelijk,Links,1,63,left,no,200,leftarrow,413,true,focus,yes,206886,Chrome,111.0,Windows,10,undefined,undefined,1536 x 864,1536 x 864
S010,21,Vrouwelijk,Links,1,64,left,no,200,leftarrow,366,true,focus,yes,208038,Chrome,111.0,Windows,10,undefined,undefined,1536 x 864,1536 x 864
S010,21,Vrouwelijk,Links,1,65,left,no,200,leftarrow,388,true,focus,yes,209212,Chrome,111.0,Windows,10,undefined,undefined,1536 x 864,1536 x 864
S010,21,Vrouwelijk,Links,1,66,left,no,200,leftarrow,374,true,focus,yes,210369,Chrome,111.0,Windows,10,undefined,undefined,1536 x 864,1536 x 864
S010,21,Vrouwelijk,Links,1,67,left,no,200,leftarrow,425,true,focus,yes,211566,Chrome,111.0,Windows,10,undefined,undefined,1536 x 864,1536 x 864
S010,21,Vrouwelijk,Links,1,68,left,yes,200,undefined,null,true,focus,yes,213594,Chrome,111.0,Windows,10,undefined,undefined,1536 x 864,1536 x 864
S010,21,Vrouwelijk,Links,1,69,right,no,250,rightarrow,333,true,focus,yes,214695,Chrome,111.0,Windows,10,undefined,undefined,1536 x 864,1536 x 864
S010,21,Vrouwelijk,Links,1,70,right,yes,250,rightarrow,410,false,focus,yes,215876,Chrome,111.0,Windows,10,undefined,undefined,1536 x 864,1536 x 864
S010,21,Vrouwelijk,Links,1,71,right,no,200,rightarrow,605,true,focus,yes,217254,Chrome,111.0,Windows,10,undefined,undefined,1536 x 864,1536 x 864
S010,21,Vrouwelijk,Links,1,72,right,no,200,rightarrow,378,true,focus,yes,218408,Chrome,111.0,Windows,10,undefined,undefined,1536 x 864,1536 x 864
S010,21,Vrouwelijk,Links,1,73,right,no,200,rightarrow,321,true,focus,yes,219505,Chrome,111.0,Windows,10,undefined,undefined,1536 x 864,1536 x 864
S010,21,Vrouwelijk,Links,1,74,left,yes,200,undefined,null,true,focus,yes,221545,Chrome,111.0,Windows,10,undefined,undefined,1536 x 864,1536 x 864
S010,21,Vrouwelijk,Links,1,75,right,no,250,rightarrow,348,true,focus,yes,222661,Chrome,111.0,Windows,10,undefined,undefined,1536 x 864,1536 x 864
S010,21,Vrouwelijk,Links,1,76,right,no,250,rightarrow,383,true,focus,yes,223813,Chrome,111.0,Windows,10,undefined,undefined,1536 x 864,1536 x 864
S010,21,Vrouwelijk,Links,1,77,left,no,250,leftarrow,618,true,focus,yes,225213,Chrome,111.0,Windows,10,undefined,undefined,1536 x 864,1536 x 864
S010,21,Vrouwelijk,Links,1,78,left,no,250,leftarrow,570,true,focus,yes,226561,Chrome,111.0,Windows,10,undefined,undefined,1536 x 864,1536 x 864
S010,21,Vrouwelijk,Links,1,79,left,no,250,leftarrow,525,true,focus,yes,227872,Chrome,111.0,Windows,10,undefined,undefined,1536 x 864,1536 x 864
S010,21,Vrouwelijk,Links,1,80,right,yes,250,undefined,null,true,focus,yes,229907,Chrome,111.0,Windows,10,undefined,undefined,1536 x 864,1536 x 864
S010,21,Vrouwelijk,Links,1,81,left,no,300,leftarrow,647,true,focus,yes,231323,Chrome,111.0,Windows,10,undefined,undefined,1536 x 864,1536 x 864
S010,21,Vrouwelijk,Links,1,82,left,no,300,leftarrow,438,true,focus,yes,232543,Chrome,111.0,Windows,10,undefined,undefined,1536 x 864,1536 x 864
S010,21,Vrouwelijk,Links,1,83,right,no,300,rightarrow,526,true,focus,yes,233848,Chrome,111.0,Windows,10,undefined,undefined,1536 x 864,1536 x 864
S010,21,Vrouwelijk,Links,1,84,right,yes,300,rightarrow,484,false,focus,yes,235117,Chrome,111.0,Windows,10,undefined,undefined,1536 x 864,1536 x 864
S010,21,Vrouwelijk,Links,1,85,left,yes,250,leftarrow,299,false,focus,yes,236192,Chrome,111.0,Windows,10,undefined,undefined,1536 x 864,1536 x 864
S010,21,Vrouwelijk,Links,1,86,right,no,200,rightarrow,387,true,focus,yes,237352,Chrome,111.0,Windows,10,undefined,undefined,1536 x 864,1536 x 864
S010,21,Vrouwelijk,Links,1,87,right,no,200,rightarrow,530,true,focus,yes,238656,Chrome,111.0,Windows,10,undefined,undefined,1536 x 864,1536 x 864
S010,21,Vrouwelijk,Links,1,88,left,no,200,leftarrow,630,true,focus,yes,240063,Chrome,111.0,Windows,10,undefined,undefined,1536 x 864,1536 x 864
S010,21,Vrouwelijk,Links,1,89,left,no,200,leftarrow,757,true,focus,yes,241602,Chrome,111.0,Windows,10,undefined,undefined,1536 x 864,1536 x 864
S010,21,Vrouwelijk,Links,1,90,right,no,200,rightarrow,669,true,focus,yes,243056,Chrome,111.0,Windows,10,undefined,undefined,1536 x 864,1536 x 864
S010,21,Vrouwelijk,Links,1,91,right,yes,200,undefined,null,true,focus,yes,245091,Chrome,111.0,Windows,10,undefined,undefined,1536 x 864,1536 x 864
S010,21,Vrouwelijk,Links,1,92,right,no,250,rightarrow,497,true,focus,yes,246356,Chrome,111.0,Windows,10,undefined,undefined,1536 x 864,1536 x 864
S010,21,Vrouwelijk,Links,1,93,left,yes,250,undefined,null,true,focus,yes,248389,Chrome,111.0,Windows,10,undefined,undefined,1536 x 864,1536 x 864
S010,21,Vrouwelijk,Links,1,94,left,no,300,leftarrow,624,true,focus,yes,249781,Chrome,111.0,Windows,10,undefined,undefined,1536 x 864,1536 x 864
S010,21,Vrouwelijk,Links,1,95,right,no,300,rightarrow,291,true,focus,yes,250846,Chrome,111.0,Windows,10,undefined,undefined,1536 x 864,1536 x 864
S010,21,Vrouwelijk,Links,1,96,left,no,300,leftarrow,269,true,focus,yes,251887,Chrome,111.0,Windows,10,undefined,undefined,1536 x 864,1536 x 864
S010,21,Vrouwelijk,Links,1,97,right,no,300,rightarrow,499,true,focus,yes,253162,Chrome,111.0,Windows,10,undefined,undefined,1536 x 864,1536 x 864
S010,21,Vrouwelijk,Links,1,98,left,no,300,leftarrow,372,true,focus,yes,254310,Chrome,111.0,Windows,10,undefined,undefined,1536 x 864,1536 x 864
S010,21,Vrouwelijk,Links,1,99,left,no,300,leftarrow,480,true,focus,yes,255566,Chrome,111.0,Windows,10,undefined,undefined,1536 x 864,1536 x 864
S010,21,Vrouwelijk,Links,1,100,right,yes,300,rightarrow,470,false,focus,yes,256818,Chrome,111.0,Windows,10,undefined,undefined,1536 x 864,1536 x 864
S010,21,Vrouwelijk,Links,1,101,right,no,250,rightarrow,537,true,focus,yes,258129,Chrome,111.0,Windows,10,undefined,undefined,1536 x 864,1536 x 864
S010,21,Vrouwelijk,Links,1,102,right,no,250,rightarrow,404,true,focus,yes,259305,Chrome,111.0,Windows,10,undefined,undefined,1536 x 864,1536 x 864
S010,21,Vrouwelijk,Links,1,103,left,no,250,leftarrow,653,true,focus,yes,260734,Chrome,111.0,Windows,10,undefined,undefined,1536 x 864,1536 x 864
S010,21,Vrouwelijk,Links,1,104,left,yes,250,leftarrow,501,false,focus,yes,262015,Chrome,111.0,Windows,10,undefined,undefined,1536 x 864,1536 x 864
S010,21,Vrouwelijk,Links,1,105,left,no,200,leftarrow,537,true,focus,yes,263327,Chrome,111.0,Windows,10,undefined,undefined,1536 x 864,1536 x 864
S010,21,Vrouwelijk,Links,1,106,right,yes,200,rightarrow,401,false,focus,yes,264499,Chrome,111.0,Windows,10,undefined,undefined,1536 x 864,1536 x 864
S010,21,Vrouwelijk,Links,1,107,right,no,150,rightarrow,572,true,focus,yes,265850,Chrome,111.0,Windows,10,undefined,undefined,1536 x 864,1536 x 864
S010,21,Vrouwelijk,Links,1,108,right,no,150,rightarrow,482,true,focus,yes,267111,Chrome,111.0,Windows,10,undefined,undefined,1536 x 864,1536 x 864
S010,21,Vrouwelijk,Links,1,109,left,no,150,leftarrow,561,true,focus,yes,268455,Chrome,111.0,Windows,10,undefined,undefined,1536 x 864,1536 x 864
S010,21,Vrouwelijk,Links,1,110,right,no,150,rightarrow,470,true,focus,yes,269699,Chrome,111.0,Windows,10,undefined,undefined,1536 x 864,1536 x 864
S010,21,Vrouwelijk,Links,1,111,left,yes,150,undefined,null,true,focus,yes,271737,Chrome,111.0,Windows,10,undefined,undefined,1536 x 864,1536 x 864
S010,21,Vrouwelijk,Links,1,112,left,no,200,leftarrow,537,true,focus,yes,273042,Chrome,111.0,Windows,10,undefined,undefined,1536 x 864,1536 x 864
S010,21,Vrouwelijk,Links,1,113,right,no,200,rightarrow,446,true,focus,yes,274270,Chrome,111.0,Windows,10,undefined,undefined,1536 x 864,1536 x 864
S010,21,Vrouwelijk,Links,1,114,left,no,200,leftarrow,449,true,focus,yes,275497,Chrome,111.0,Windows,10,undefined,undefined,1536 x 864,1536 x 864
S010,21,Vrouwelijk,Links,1,115,right,no,200,rightarrow,364,true,focus,yes,276638,Chrome,111.0,Windows,10,undefined,undefined,1536 x 864,1536 x 864
S010,21,Vrouwelijk,Links,1,116,left,yes,200,leftarrow,351,false,focus,yes,277760,Chrome,111.0,Windows,10,undefined,undefined,1536 x 864,1536 x 864
S010,21,Vrouwelijk,Links,1,117,left,no,150,rightarrow,259,false,focus,yes,278804,Chrome,111.0,Windows,10,undefined,undefined,1536 x 864,1536 x 864
S010,21,Vrouwelijk,Links,1,118,right,yes,150,rightarrow,349,false,focus,yes,280205,Chrome,111.0,Windows,10,undefined,undefined,1536 x 864,1536 x 864
S010,21,Vrouwelijk,Links,1,119,left,no,100,leftarrow,649,true,focus,yes,281637,Chrome,111.0,Windows,10,undefined,undefined,1536 x 864,1536 x 864
S010,21,Vrouwelijk,Links,1,120,right,no,100,rightarrow,446,true,focus,yes,282867,Chrome,111.0,Windows,10,undefined,undefined,1536 x 864,1536 x 864
S010,21,Vrouwelijk,Links,1,121,left,no,100,leftarrow,413,true,focus,yes,284064,Chrome,111.0,Windows,10,undefined,undefined,1536 x 864,1536 x 864
S010,21,Vrouwelijk,Links,1,122,left,no,100,leftarrow,478,true,focus,yes,285324,Chrome,111.0,Windows,10,undefined,undefined,1536 x 864,1536 x 864
S010,21,Vrouwelijk,Links,1,123,left,no,100,leftarrow,456,true,focus,yes,286563,Chrome,111.0,Windows,10,undefined,undefined,1536 x 864,1536 x 864
S010,21,Vrouwelijk,Links,1,124,right,yes,100,undefined,null,true,focus,yes,288592,Chrome,111.0,Windows,10,undefined,undefined,1536 x 864,1536 x 864
S010,21,Vrouwelijk,Links,1,125,right,no,150,rightarrow,479,true,focus,yes,289855,Chrome,111.0,Windows,10,undefined,undefined,1536 x 864,1536 x 864
S010,21,Vrouwelijk,Links,1,126,right,no,150,rightarrow,468,true,focus,yes,291103,Chrome,111.0,Windows,10,undefined,undefined,1536 x 864,1536 x 864
S010,21,Vrouwelijk,Links,1,127,right,no,150,rightarrow,843,true,focus,yes,292710,Chrome,111.0,Windows,10,undefined,undefined,1536 x 864,1536 x 864
S010,21,Vrouwelijk,Links,1,128,left,yes,150,undefined,null,true,focus,yes,294739,Chrome,111.0,Windows,10,undefined,undefined,1536 x 864,1536 x 864
S010,21,Vrouwelijk,Links,2,1,left,no,200,leftarrow,485,true,focus,yes,314309,Chrome,111.0,Windows,10,undefined,undefined,1536 x 864,1536 x 864
S010,21,Vrouwelijk,Links,2,2,right,no,200,rightarrow,434,true,focus,yes,315517,Chrome,111.0,Windows,10,undefined,undefined,1536 x 864,1536 x 864
S010,21,Vrouwelijk,Links,2,3,right,yes,200,rightarrow,304,false,focus,yes,316601,Chrome,111.0,Windows,10,undefined,undefined,1536 x 864,1536 x 864
S010,21,Vrouwelijk,Links,2,4,left,no,150,leftarrow,316,true,focus,yes,317691,Chrome,111.0,Windows,10,undefined,undefined,1536 x 864,1536 x 864
S010,21,Vrouwelijk,Links,2,5,left,no,150,leftarrow,346,true,focus,yes,318821,Chrome,111.0,Windows,10,undefined,undefined,1536 x 864,1536 x 864
S010,21,Vrouwelijk,Links,2,6,right,no,150,rightarrow,425,true,focus,yes,320020,Chrome,111.0,Windows,10,undefined,undefined,1536 x 864,1536 x 864
S010,21,Vrouwelijk,Links,2,7,left,yes,150,undefined,null,true,focus,yes,322050,Chrome,111.0,Windows,10,undefined,undefined,1536 x 864,1536 x 864
S010,21,Vrouwelijk,Links,2,8,right,no,200,rightarrow,291,true,focus,yes,323111,Chrome,111.0,Windows,10,undefined,undefined,1536 x 864,1536 x 864
S010,21,Vrouwelijk,Links,2,9,left,no,200,leftarrow,447,true,focus,yes,324345,Chrome,111.0,Windows,10,undefined,undefined,1536 x 864,1536 x 864
S010,21,Vrouwelijk,Links,2,10,left,no,200,leftarrow,438,true,focus,yes,325566,Chrome,111.0,Windows,10,undefined,undefined,1536 x 864,1536 x 864
S010,21,Vrouwelijk,Links,2,11,left,no,200,leftarrow,299,true,focus,yes,326639,Chrome,111.0,Windows,10,undefined,undefined,1536 x 864,1536 x 864
S010,21,Vrouwelijk,Links,2,12,right,yes,200,rightarrow,294,false,focus,yes,327706,Chrome,111.0,Windows,10,undefined,undefined,1536 x 864,1536 x 864
S010,21,Vrouwelijk,Links,2,13,right,no,150,leftarrow,269,false,focus,yes,328761,Chrome,111.0,Windows,10,undefined,undefined,1536 x 864,1536 x 864
S010,21,Vrouwelijk,Links,2,14,left,yes,150,undefined,null,true,focus,yes,331052,Chrome,111.0,Windows,10,undefined,undefined,1536 x 864,1536 x 864
S010,21,Vrouwelijk,Links,2,15,right,no,200,rightarrow,350,true,focus,yes,332168,Chrome,111.0,Windows,10,undefined,undefined,1536 x 864,1536 x 864
S010,21,Vrouwelijk,Links,2,16,right,no,200,rightarrow,395,true,focus,yes,333346,Chrome,111.0,Windows,10,undefined,undefined,1536 x 864,1536 x 864
S010,21,Vrouwelijk,Links,2,17,left,no,200,leftarrow,545,true,focus,yes,334665,Chrome,111.0,Windows,10,undefined,undefined,1536 x 864,1536 x 864
S010,21,Vrouwelijk,Links,2,18,right,yes,200,rightarrow,385,false,focus,yes,335826,Chrome,111.0,Windows,10,undefined,undefined,1536 x 864,1536 x 864
S010,21,Vrouwelijk,Links,2,19,left,no,150,leftarrow,363,true,focus,yes,336971,Chrome,111.0,Windows,10,undefined,undefined,1536 x 864,1536 x 864
S010,21,Vrouwelijk,Links,2,20,right,no,150,rightarrow,397,true,focus,yes,338141,Chrome,111.0,Windows,10,undefined,undefined,1536 x 864,1536 x 864
S010,21,Vrouwelijk,Links,2,21,left,yes,150,undefined,null,true,focus,yes,340183,Chrome,111.0,Windows,10,undefined,undefined,1536 x 864,1536 x 864
S010,21,Vrouwelijk,Links,2,22,right,no,200,rightarrow,381,true,focus,yes,341345,Chrome,111.0,Windows,10,undefined,undefined,1536 x 864,1536 x 864
S010,21,Vrouwelijk,Links,2,23,right,no,200,rightarrow,369,true,focus,yes,342487,Chrome,111.0,Windows,10,undefined,undefined,1536 x 864,1536 x 864
S010,21,Vrouwelijk,Links,2,24,left,no,200,leftarrow,458,true,focus,yes,343728,Chrome,111.0,Windows,10,undefined,undefined,1536 x 864,1536 x 864
S010,21,Vrouwelijk,Links,2,25,right,yes,200,rightarrow,271,false,focus,yes,344784,Chrome,111.0,Windows,10,undefined,undefined,1536 x 864,1536 x 864
S010,21,Vrouwelijk,Links,2,26,left,yes,150,leftarrow,302,false,focus,yes,345870,Chrome,111.0,Windows,10,undefined,undefined,1536 x 864,1536 x 864
S010,21,Vrouwelijk,Links,2,27,left,no,100,leftarrow,393,true,focus,yes,347047,Chrome,111.0,Windows,10,undefined,undefined,1536 x 864,1536 x 864
S010,21,Vrouwelijk,Links,2,28,right,no,100,rightarrow,447,true,focus,yes,348266,Chrome,111.0,Windows,10,undefined,undefined,1536 x 864,1536 x 864
S010,21,Vrouwelijk,Links,2,29,left,no,100,leftarrow,570,true,focus,yes,349619,Chrome,111.0,Windows,10,undefined,undefined,1536 x 864,1536 x 864
S010,21,Vrouwelijk,Links,2,30,left,no,100,leftarrow,495,true,focus,yes,350900,Chrome,111.0,Windows,10,undefined,undefined,1536 x 864,1536 x 864
S010,21,Vrouwelijk,Links,2,31,right,no,100,rightarrow,501,true,focus,yes,352183,Chrome,111.0,Windows,10,undefined,undefined,1536 x 864,1536 x 864
S010,21,Vrouwelijk,Links,2,32,right,no,100,rightarrow,417,true,focus,yes,353370,Chrome,111.0,Windows,10,undefined,undefined,1536 x 864,1536 x 864
S010,21,Vrouwelijk,Links,2,33,left,yes,100,undefined,null,true,focus,yes,355404,Chrome,111.0,Windows,10,undefined,undefined,1536 x 864,1536 x 864
S010,21,Vrouwelijk,Links,2,34,right,no,150,rightarrow,451,true,focus,yes,356638,Chrome,111.0,Windows,10,undefined,undefined,1536 x 864,1536 x 864
S010,21,Vrouwelijk,Links,2,35,right,yes,150,undefined,null,true,focus,yes,358674,Chrome,111.0,Windows,10,undefined,undefined,1536 x 864,1536 x 864
S010,21,Vrouwelijk,Links,2,36,right,no,200,rightarrow,468,true,focus,yes,359909,Chrome,111.0,Windows,10,undefined,undefined,1536 x 864,1536 x 864
S010,21,Vrouwelijk,Links,2,37,left,no,200,leftarrow,560,true,focus,yes,361241,Chrome,111.0,Windows,10,undefined,undefined,1536 x 864,1536 x 864
S010,21,Vrouwelijk,Links,2,38,left,no,200,leftarrow,492,true,focus,yes,362514,Chrome,111.0,Windows,10,undefined,undefined,1536 x 864,1536 x 864
S010,21,Vrouwelijk,Links,2,39,left,no,200,leftarrow,403,true,focus,yes,363687,Chrome,111.0,Windows,10,undefined,undefined,1536 x 864,1536 x 864
S010,21,Vrouwelijk,Links,2,40,right,no,200,rightarrow,475,true,focus,yes,364941,Chrome,111.0,Windows,10,undefined,undefined,1536 x 864,1536 x 864
S010,21,Vrouwelijk,Links,2,41,right,no,200,rightarrow,459,true,focus,yes,366188,Chrome,111.0,Windows,10,undefined,undefined,1536 x 864,1536 x 864
S010,21,Vrouwelijk,Links,2,42,right,no,200,rightarrow,378,true,focus,yes,367352,Chrome,111.0,Windows,10,undefined,undefined,1536 x 864,1536 x 864
S010,21,Vrouwelijk,Links,2,43,right,no,200,rightarrow,401,true,focus,yes,368526,Chrome,111.0,Windows,10,undefined,undefined,1536 x 864,1536 x 864
S010,21,Vrouwelijk,Links,2,44,left,no,200,leftarrow,618,true,focus,yes,369919,Chrome,111.0,Windows,10,undefined,undefined,1536 x 864,1536 x 864
S010,21,Vrouwelijk,Links,2,45,left,yes,200,undefined,null,true,focus,yes,371945,Chrome,111.0,Windows,10,undefined,undefined,1536 x 864,1536 x 864
S010,21,Vrouwelijk,Links,2,46,left,no,250,leftarrow,476,true,focus,yes,373191,Chrome,111.0,Windows,10,undefined,undefined,1536 x 864,1536 x 864
S010,21,Vrouwelijk,Links,2,47,right,yes,250,rightarrow,462,false,focus,yes,374435,Chrome,111.0,Windows,10,undefined,undefined,1536 x 864,1536 x 864
S010,21,Vrouwelijk,Links,2,48,left,no,200,leftarrow,392,true,focus,yes,375605,Chrome,111.0,Windows,10,undefined,undefined,1536 x 864,1536 x 864
S010,21,Vrouwelijk,Links,2,49,right,no,200,rightarrow,413,true,focus,yes,376791,Chrome,111.0,Windows,10,undefined,undefined,1536 x 864,1536 x 864
S010,21,Vrouwelijk,Links,2,50,left,yes,200,leftarrow,350,false,focus,yes,377924,Chrome,111.0,Windows,10,undefined,undefined,1536 x 864,1536 x 864
S010,21,Vrouwelijk,Links,2,51,right,no,150,rightarrow,611,true,focus,yes,379307,Chrome,111.0,Windows,10,undefined,undefined,1536 x 864,1536 x 864
S010,21,Vrouwelijk,Links,2,52,left,no,150,leftarrow,691,true,focus,yes,380770,Chrome,111.0,Windows,10,undefined,undefined,1536 x 864,1536 x 864
S010,21,Vrouwelijk,Links,2,53,left,no,150,leftarrow,515,true,focus,yes,382068,Chrome,111.0,Windows,10,undefined,undefined,1536 x 864,1536 x 864
S010,21,Vrouwelijk,Links,2,54,right,no,150,rightarrow,557,true,focus,yes,383405,Chrome,111.0,Windows,10,undefined,undefined,1536 x 864,1536 x 864
S010,21,Vrouwelijk,Links,2,55,left,no,150,leftarrow,412,true,focus,yes,384599,Chrome,111.0,Windows,10,undefined,undefined,1536 x 864,1536 x 864
S010,21,Vrouwelijk,Links,2,56,right,yes,150,undefined,null,true,focus,yes,386626,Chrome,111.0,Windows,10,undefined,undefined,1536 x 864,1536 x 864
S010,21,Vrouwelijk,Links,2,57,left,no,200,leftarrow,406,true,focus,yes,387802,Chrome,111.0,Windows,10,undefined,undefined,1536 x 864,1536 x 864
S010,21,Vrouwelijk,Links,2,58,left,no,200,leftarrow,645,true,focus,yes,389219,Chrome,111.0,Windows,10,undefined,undefined,1536 x 864,1536 x 864
S010,21,Vrouwelijk,Links,2,59,left,yes,200,leftarrow,479,false,focus,yes,390472,Chrome,111.0,Windows,10,undefined,undefined,1536 x 864,1536 x 864
S010,21,Vrouwelijk,Links,2,60,right,no,150,rightarrow,363,true,focus,yes,391613,Chrome,111.0,Windows,10,undefined,undefined,1536 x 864,1536 x 864
S010,21,Vrouwelijk,Links,2,61,right,no,150,rightarrow,469,true,focus,yes,392855,Chrome,111.0,Windows,10,undefined,undefined,1536 x 864,1536 x 864
S010,21,Vrouwelijk,Links,2,62,left,no,150,leftarrow,651,true,focus,yes,394284,Chrome,111.0,Windows,10,undefined,undefined,1536 x 864,1536 x 864
S010,21,Vrouwelijk,Links,2,63,right,yes,150,undefined,null,true,focus,yes,396327,Chrome,111.0,Windows,10,undefined,undefined,1536 x 864,1536 x 864
S010,21,Vrouwelijk,Links,2,64,right,no,200,rightarrow,502,true,focus,yes,397609,Chrome,111.0,Windows,10,undefined,undefined,1536 x 864,1536 x 864
S010,21,Vrouwelijk,Links,2,65,right,no,200,rightarrow,459,true,focus,yes,398843,Chrome,111.0,Windows,10,undefined,undefined,1536 x 864,1536 x 864
S010,21,Vrouwelijk,Links,2,66,right,yes,200,rightarrow,376,false,focus,yes,400004,Chrome,111.0,Windows,10,undefined,undefined,1536 x 864,1536 x 864
S010,21,Vrouwelijk,Links,2,67,left,no,150,leftarrow,399,true,focus,yes,401174,Chrome,111.0,Windows,10,undefined,undefined,1536 x 864,1536 x 864
S010,21,Vrouwelijk,Links,2,68,right,no,150,rightarrow,622,true,focus,yes,402582,Chrome,111.0,Windows,10,undefined,undefined,1536 x 864,1536 x 864
S010,21,Vrouwelijk,Links,2,69,left,no,150,leftarrow,418,true,focus,yes,403780,Chrome,111.0,Windows,10,undefined,undefined,1536 x 864,1536 x 864
S010,21,Vrouwelijk,Links,2,70,right,no,150,rightarrow,301,true,focus,yes,404858,Chrome,111.0,Windows,10,undefined,undefined,1536 x 864,1536 x 864
S010,21,Vrouwelijk,Links,2,71,left,no,150,leftarrow,345,true,focus,yes,405974,Chrome,111.0,Windows,10,undefined,undefined,1536 x 864,1536 x 864
S010,21,Vrouwelijk,Links,2,72,left,yes,150,undefined,null,true,focus,yes,408004,Chrome,111.0,Windows,10,undefined,undefined,1536 x 864,1536 x 864
S010,21,Vrouwelijk,Links,2,73,right,no,200,rightarrow,433,true,focus,yes,409218,Chrome,111.0,Windows,10,undefined,undefined,1536 x 864,1536 x 864
S010,21,Vrouwelijk,Links,2,74,left,no,200,leftarrow,598,true,focus,yes,410594,Chrome,111.0,Windows,10,undefined,undefined,1536 x 864,1536 x 864
S010,21,Vrouwelijk,Links,2,75,left,no,200,leftarrow,491,true,focus,yes,411872,Chrome,111.0,Windows,10,undefined,undefined,1536 x 864,1536 x 864
S010,21,Vrouwelijk,Links,2,76,left,yes,200,undefined,null,true,focus,yes,413913,Chrome,111.0,Windows,10,undefined,undefined,1536 x 864,1536 x 864
S010,21,Vrouwelijk,Links,2,77,right,yes,250,undefined,null,true,focus,yes,415938,Chrome,111.0,Windows,10,undefined,undefined,1536 x 864,1536 x 864
S010,21,Vrouwelijk,Links,2,78,right,no,300,rightarrow,580,true,focus,yes,417297,Chrome,111.0,Windows,10,undefined,undefined,1536 x 864,1536 x 864
S010,21,Vrouwelijk,Links,2,79,left,no,300,leftarrow,710,true,focus,yes,418781,Chrome,111.0,Windows,10,undefined,undefined,1536 x 864,1536 x 864
S010,21,Vrouwelijk,Links,2,80,right,no,300,rightarrow,734,true,focus,yes,420296,Chrome,111.0,Windows,10,undefined,undefined,1536 x 864,1536 x 864
S010,21,Vrouwelijk,Links,2,81,right,no,300,rightarrow,590,true,focus,yes,421661,Chrome,111.0,Windows,10,undefined,undefined,1536 x 864,1536 x 864
S010,21,Vrouwelijk,Links,2,82,right,yes,300,undefined,null,true,focus,yes,423701,Chrome,111.0,Windows,10,undefined,undefined,1536 x 864,1536 x 864
S010,21,Vrouwelijk,Links,2,83,left,no,350,leftarrow,653,true,focus,yes,425123,Chrome,111.0,Windows,10,undefined,undefined,1536 x 864,1536 x 864
S010,21,Vrouwelijk,Links,2,84,left,no,350,leftarrow,500,true,focus,yes,426402,Chrome,111.0,Windows,10,undefined,undefined,1536 x 864,1536 x 864
S010,21,Vrouwelijk,Links,2,85,left,yes,350,undefined,null,true,focus,yes,428435,Chrome,111.0,Windows,10,undefined,undefined,1536 x 864,1536 x 864
S010,21,Vrouwelijk,Links,2,86,right,no,400,rightarrow,467,true,focus,yes,429670,Chrome,111.0,Windows,10,undefined,undefined,1536 x 864,1536 x 864
S010,21,Vrouwelijk,Links,2,87,left,no,400,leftarrow,578,true,focus,yes,431027,Chrome,111.0,Windows,10,undefined,undefined,1536 x 864,1536 x 864
S010,21,Vrouwelijk,Links,2,88,right,no,400,rightarrow,522,true,focus,yes,432328,Chrome,111.0,Windows,10,undefined,undefined,1536 x 864,1536 x 864
S010,21,Vrouwelijk,Links,2,89,right,no,400,rightarrow,723,true,focus,yes,433835,Chrome,111.0,Windows,10,undefined,undefined,1536 x 864,1536 x 864
S010,21,Vrouwelijk,Links,2,90,right,no,400,rightarrow,543,true,focus,yes,435148,Chrome,111.0,Windows,10,undefined,undefined,1536 x 864,1536 x 864
S010,21,Vrouwelijk,Links,2,91,left,no,400,leftarrow,579,true,focus,yes,436504,Chrome,111.0,Windows,10,undefined,undefined,1536 x 864,1536 x 864
S010,21,Vrouwelijk,Links,2,92,left,no,400,leftarrow,471,true,focus,yes,437760,Chrome,111.0,Windows,10,undefined,undefined,1536 x 864,1536 x 864
S010,21,Vrouwelijk,Links,2,93,left,no,400,leftarrow,642,true,focus,yes,439179,Chrome,111.0,Windows,10,undefined,undefined,1536 x 864,1536 x 864
S010,21,Vrouwelijk,Links,2,94,right,yes,400,rightarrow,611,false,focus,yes,440563,Chrome,111.0,Windows,10,undefined,undefined,1536 x 864,1536 x 864
S010,21,Vrouwelijk,Links,2,95,right,no,350,rightarrow,502,true,focus,yes,441839,Chrome,111.0,Windows,10,undefined,undefined,1536 x 864,1536 x 864
S010,21,Vrouwelijk,Links,2,96,left,yes,350,undefined,null,true,focus,yes,443865,Chrome,111.0,Windows,10,undefined,undefined,1536 x 864,1536 x 864
S010,21,Vrouwelijk,Links,2,97,right,no,400,rightarrow,410,true,focus,yes,445044,Chrome,111.0,Windows,10,undefined,undefined,1536 x 864,1536 x 864
S010,21,Vrouwelijk,Links,2,98,right,no,400,rightarrow,384,true,focus,yes,446212,Chrome,111.0,Windows,10,undefined,undefined,1536 x 864,1536 x 864
S010,21,Vrouwelijk,Links,2,99,left,no,400,leftarrow,579,true,focus,yes,447573,Chrome,111.0,Windows,10,undefined,undefined,1536 x 864,1536 x 864
S010,21,Vrouwelijk,Links,2,100,right,no,400,rightarrow,705,true,focus,yes,449051,Chrome,111.0,Windows,10,undefined,undefined,1536 x 864,1536 x 864
S010,21,Vrouwelijk,Links,2,101,left,no,400,leftarrow,900,true,focus,yes,450737,Chrome,111.0,Windows,10,undefined,undefined,1536 x 864,1536 x 864
S010,21,Vrouwelijk,Links,2,102,left,yes,400,undefined,null,true,focus,yes,452768,Chrome,111.0,Windows,10,undefined,undefined,1536 x 864,1536 x 864
S010,21,Vrouwelijk,Links,2,103,right,yes,450,rightarrow,436,false,focus,yes,453985,Chrome,111.0,Windows,10,undefined,undefined,1536 x 864,1536 x 864
S010,21,Vrouwelijk,Links,2,104,left,no,400,leftarrow,513,true,focus,yes,455275,Chrome,111.0,Windows,10,undefined,undefined,1536 x 864,1536 x 864
S010,21,Vrouwelijk,Links,2,105,left,no,400,leftarrow,558,true,focus,yes,456612,Chrome,111.0,Windows,10,undefined,undefined,1536 x 864,1536 x 864
S010,21,Vrouwelijk,Links,2,106,right,no,400,rightarrow,476,true,focus,yes,457867,Chrome,111.0,Windows,10,undefined,undefined,1536 x 864,1536 x 864
S010,21,Vrouwelijk,Links,2,107,right,no,400,rightarrow,524,true,focus,yes,459169,Chrome,111.0,Windows,10,undefined,undefined,1536 x 864,1536 x 864
S010,21,Vrouwelijk,Links,2,108,left,yes,400,leftarrow,472,false,focus,yes,460425,Chrome,111.0,Windows,10,undefined,undefined,1536 x 864,1536 x 864
S010,21,Vrouwelijk,Links,2,109,left,no,350,leftarrow,497,true,focus,yes,461709,Chrome,111.0,Windows,10,undefined,undefined,1536 x 864,1536 x 864
S010,21,Vrouwelijk,Links,2,110,right,no,350,rightarrow,463,true,focus,yes,462955,Chrome,111.0,Windows,10,undefined,undefined,1536 x 864,1536 x 864
S010,21,Vrouwelijk,Links,2,111,right,yes,350,rightarrow,487,false,focus,yes,464223,Chrome,111.0,Windows,10,undefined,undefined,1536 x 864,1536 x 864
S010,21,Vrouwelijk,Links,2,112,left,no,300,leftarrow,729,true,focus,yes,465727,Chrome,111.0,Windows,10,undefined,undefined,1536 x 864,1536 x 864
S010,21,Vrouwelijk,Links,2,113,right,no,300,rightarrow,256,true,focus,yes,466766,Chrome,111.0,Windows,10,undefined,undefined,1536 x 864,1536 x 864
S010,21,Vrouwelijk,Links,2,114,right,yes,300,rightarrow,425,false,focus,yes,467974,Chrome,111.0,Windows,10,undefined,undefined,1536 x 864,1536 x 864
S010,21,Vrouwelijk,Links,2,115,left,no,250,leftarrow,416,true,focus,yes,469176,Chrome,111.0,Windows,10,undefined,undefined,1536 x 864,1536 x 864
S010,21,Vrouwelijk,Links,2,116,right,no,250,rightarrow,390,true,focus,yes,470349,Chrome,111.0,Windows,10,undefined,undefined,1536 x 864,1536 x 864
S010,21,Vrouwelijk,Links,2,117,right,no,250,rightarrow,482,true,focus,yes,471607,Chrome,111.0,Windows,10,undefined,undefined,1536 x 864,1536 x 864
S010,21,Vrouwelijk,Links,2,118,left,no,250,leftarrow,626,true,focus,yes,473005,Chrome,111.0,Windows,10,undefined,undefined,1536 x 864,1536 x 864
S010,21,Vrouwelijk,Links,2,119,left,yes,250,undefined,null,true,focus,yes,475043,Chrome,111.0,Windows,10,undefined,undefined,1536 x 864,1536 x 864
S010,21,Vrouwelijk,Links,2,120,left,no,300,leftarrow,556,true,focus,yes,476368,Chrome,111.0,Windows,10,undefined,undefined,1536 x 864,1536 x 864
S010,21,Vrouwelijk,Links,2,121,right,no,300,rightarrow,421,true,focus,yes,477572,Chrome,111.0,Windows,10,undefined,undefined,1536 x 864,1536 x 864
S010,21,Vrouwelijk,Links,2,122,right,no,300,rightarrow,462,true,focus,yes,478811,Chrome,111.0,Windows,10,undefined,undefined,1536 x 864,1536 x 864
S010,21,Vrouwelijk,Links,2,123,right,yes,300,rightarrow,443,false,focus,yes,480035,Chrome,111.0,Windows,10,undefined,undefined,1536 x 864,1536 x 864
S010,21,Vrouwelijk,Links,2,124,left,no,250,leftarrow,300,true,focus,yes,481109,Chrome,111.0,Windows,10,undefined,undefined,1536 x 864,1536 x 864
S010,21,Vrouwelijk,Links,2,125,right,no,250,rightarrow,855,true,focus,yes,482741,Chrome,111.0,Windows,10,undefined,undefined,1536 x 864,1536 x 864
S010,21,Vrouwelijk,Links,2,126,left,no,250,leftarrow,574,true,focus,yes,484092,Chrome,111.0,Windows,10,undefined,undefined,1536 x 864,1536 x 864
S010,21,Vrouwelijk,Links,2,127,left,no,250,leftarrow,449,true,focus,yes,485321,Chrome,111.0,Windows,10,undefined,undefined,1536 x 864,1536 x 864
S010,21,Vrouwelijk,Links,2,128,left,yes,250,leftarrow,372,false,focus,yes,486471,Chrome,111.0,Windows,10,undefined,undefined,1536 x 864,1536 x 864
S010,21,Vrouwelijk,Links,3,1,left,yes,200,undefined,null,true,focus,yes,506357,Chrome,111.0,Windows,10,undefined,undefined,1536 x 864,1536 x 864
S010,21,Vrouwelijk,Links,3,2,right,no,250,rightarrow,613,true,focus,yes,507751,Chrome,111.0,Windows,10,undefined,undefined,1536 x 864,1536 x 864
S010,21,Vrouwelijk,Links,3,3,left,no,250,leftarrow,460,true,focus,yes,508982,Chrome,111.0,Windows,10,undefined,undefined,1536 x 864,1536 x 864
S010,21,Vrouwelijk,Links,3,4,left,no,250,leftarrow,575,true,focus,yes,510341,Chrome,111.0,Windows,10,undefined,undefined,1536 x 864,1536 x 864
S010,21,Vrouwelijk,Links,3,5,right,no,250,rightarrow,570,true,focus,yes,511691,Chrome,111.0,Windows,10,undefined,undefined,1536 x 864,1536 x 864
S010,21,Vrouwelijk,Links,3,6,right,yes,250,undefined,null,true,focus,yes,513729,Chrome,111.0,Windows,10,undefined,undefined,1536 x 864,1536 x 864
S010,21,Vrouwelijk,Links,3,7,left,no,300,leftarrow,592,true,focus,yes,515089,Chrome,111.0,Windows,10,undefined,undefined,1536 x 864,1536 x 864
S010,21,Vrouwelijk,Links,3,8,right,no,300,rightarrow,613,true,focus,yes,516479,Chrome,111.0,Windows,10,undefined,undefined,1536 x 864,1536 x 864
S010,21,Vrouwelijk,Links,3,9,right,yes,300,rightarrow,498,false,focus,yes,517762,Chrome,111.0,Windows,10,undefined,undefined,1536 x 864,1536 x 864
S010,21,Vrouwelijk,Links,3,10,left,no,250,leftarrow,566,true,focus,yes,519106,Chrome,111.0,Windows,10,undefined,undefined,1536 x 864,1536 x 864
S010,21,Vrouwelijk,Links,3,11,right,no,250,rightarrow,480,true,focus,yes,520357,Chrome,111.0,Windows,10,undefined,undefined,1536 x 864,1536 x 864
S010,21,Vrouwelijk,Links,3,12,right,no,250,rightarrow,418,true,focus,yes,521554,Chrome,111.0,Windows,10,undefined,undefined,1536 x 864,1536 x 864
S010,21,Vrouwelijk,Links,3,13,left,yes,250,undefined,null,true,focus,yes,523588,Chrome,111.0,Windows,10,undefined,undefined,1536 x 864,1536 x 864
S010,21,Vrouwelijk,Links,3,14,right,no,300,rightarrow,416,true,focus,yes,524785,Chrome,111.0,Windows,10,undefined,undefined,1536 x 864,1536 x 864
S010,21,Vrouwelijk,Links,3,15,left,no,300,leftarrow,454,true,focus,yes,526023,Chrome,111.0,Windows,10,undefined,undefined,1536 x 864,1536 x 864
S010,21,Vrouwelijk,Links,3,16,left,no,300,leftarrow,562,true,focus,yes,527366,Chrome,111.0,Windows,10,undefined,undefined,1536 x 864,1536 x 864
S010,21,Vrouwelijk,Links,3,17,left,no,300,leftarrow,453,true,focus,yes,528594,Chrome,111.0,Windows,10,undefined,undefined,1536 x 864,1536 x 864
S010,21,Vrouwelijk,Links,3,18,right,no,300,rightarrow,553,true,focus,yes,529920,Chrome,111.0,Windows,10,undefined,undefined,1536 x 864,1536 x 864
S010,21,Vrouwelijk,Links,3,19,right,no,300,rightarrow,546,true,focus,yes,531240,Chrome,111.0,Windows,10,undefined,undefined,1536 x 864,1536 x 864
S010,21,Vrouwelijk,Links,3,20,left,no,300,leftarrow,439,true,focus,yes,532457,Chrome,111.0,Windows,10,undefined,undefined,1536 x 864,1536 x 864
S010,21,Vrouwelijk,Links,3,21,right,yes,300,undefined,null,true,focus,yes,534484,Chrome,111.0,Windows,10,undefined,undefined,1536 x 864,1536 x 864
S010,21,Vrouwelijk,Links,3,22,left,yes,350,leftarrow,410,false,focus,yes,535677,Chrome,111.0,Windows,10,undefined,undefined,1536 x 864,1536 x 864
S010,21,Vrouwelijk,Links,3,23,left,no,300,leftarrow,528,true,focus,yes,536978,Chrome,111.0,Windows,10,undefined,undefined,1536 x 864,1536 x 864
S010,21,Vrouwelijk,Links,3,24,right,no,300,rightarrow,580,true,focus,yes,538339,Chrome,111.0,Windows,10,undefined,undefined,1536 x 864,1536 x 864
S010,21,Vrouwelijk,Links,3,25,right,no,300,rightarrow,469,true,focus,yes,539594,Chrome,111.0,Windows,10,undefined,undefined,1536 x 864,1536 x 864
S010,21,Vrouwelijk,Links,3,26,left,no,300,leftarrow,505,true,focus,yes,540876,Chrome,111.0,Windows,10,undefined,undefined,1536 x 864,1536 x 864
S010,21,Vrouwelijk,Links,3,27,left,no,300,leftarrow,436,true,focus,yes,542095,Chrome,111.0,Windows,10,undefined,undefined,1536 x 864,1536 x 864
S010,21,Vrouwelijk,Links,3,28,left,no,300,leftarrow,564,true,focus,yes,543436,Chrome,111.0,Windows,10,undefined,undefined,1536 x 864,1536 x 864
S010,21,Vrouwelijk,Links,3,29,right,no,300,rightarrow,558,true,focus,yes,544768,Chrome,111.0,Windows,10,undefined,undefined,1536 x 864,1536 x 864
S010,21,Vrouwelijk,Links,3,30,right,yes,300,rightarrow,425,false,focus,yes,545974,Chrome,111.0,Windows,10,undefined,undefined,1536 x 864,1536 x 864
S010,21,Vrouwelijk,Links,3,31,right,no,250,rightarrow,598,true,focus,yes,547346,Chrome,111.0,Windows,10,undefined,undefined,1536 x 864,1536 x 864
S010,21,Vrouwelijk,Links,3,32,left,yes,250,undefined,null,true,focus,yes,549388,Chrome,111.0,Windows,10,undefined,undefined,1536 x 864,1536 x 864
S010,21,Vrouwelijk,Links,3,33,left,no,300,leftarrow,734,true,focus,yes,550893,Chrome,111.0,Windows,10,undefined,undefined,1536 x 864,1536 x 864
S010,21,Vrouwelijk,Links,3,34,left,no,300,leftarrow,734,true,focus,yes,552412,Chrome,111.0,Windows,10,undefined,undefined,1536 x 864,1536 x 864
S010,21,Vrouwelijk,Links,3,35,left,no,300,leftarrow,545,true,focus,yes,553732,Chrome,111.0,Windows,10,undefined,undefined,1536 x 864,1536 x 864
S010,21,Vrouwelijk,Links,3,36,right,no,300,rightarrow,707,true,focus,yes,555218,Chrome,111.0,Windows,10,undefined,undefined,1536 x 864,1536 x 864
S010,21,Vrouwelijk,Links,3,37,right,no,300,rightarrow,428,true,focus,yes,556433,Chrome,111.0,Windows,10,undefined,undefined,1536 x 864,1536 x 864
S010,21,Vrouwelijk,Links,3,38,left,yes,300,leftarrow,379,false,focus,yes,557596,Chrome,111.0,Windows,10,undefined,undefined,1536 x 864,1536 x 864
S010,21,Vrouwelijk,Links,3,39,right,yes,250,rightarrow,391,false,focus,yes,558762,Chrome,111.0,Windows,10,undefined,undefined,1536 x 864,1536 x 864
S010,21,Vrouwelijk,Links,3,40,right,no,200,rightarrow,479,true,focus,yes,560012,Chrome,111.0,Windows,10,undefined,undefined,1536 x 864,1536 x 864
S010,21,Vrouwelijk,Links,3,41,left,no,200,leftarrow,495,true,focus,yes,561289,Chrome,111.0,Windows,10,undefined,undefined,1536 x 864,1536 x 864
S010,21,Vrouwelijk,Links,3,42,right,yes,200,undefined,null,true,focus,yes,563329,Chrome,111.0,Windows,10,undefined,undefined,1536 x 864,1536 x 864
S010,21,Vrouwelijk,Links,3,43,left,no,250,leftarrow,572,true,focus,yes,564685,Chrome,111.0,Windows,10,undefined,undefined,1536 x 864,1536 x 864
S010,21,Vrouwelijk,Links,3,44,right,no,250,rightarrow,382,true,focus,yes,565847,Chrome,111.0,Windows,10,undefined,undefined,1536 x 864,1536 x 864
S010,21,Vrouwelijk,Links,3,45,right,no,250,rightarrow,439,true,focus,yes,567073,Chrome,111.0,Windows,10,undefined,undefined,1536 x 864,1536 x 864
S010,21,Vrouwelijk,Links,3,46,left,no,250,leftarrow,521,true,focus,yes,568371,Chrome,111.0,Windows,10,undefined,undefined,1536 x 864,1536 x 864
S010,21,Vrouwelijk,Links,3,47,left,yes,250,leftarrow,462,false,focus,yes,569604,Chrome,111.0,Windows,10,undefined,undefined,1536 x 864,1536 x 864
S010,21,Vrouwelijk,Links,3,48,right,no,200,rightarrow,528,true,focus,yes,571711,Chrome,111.0,Windows,10,undefined,undefined,1536 x 864,1536 x 864
S010,21,Vrouwelijk,Links,3,49,left,no,200,leftarrow,437,true,focus,yes,572925,Chrome,111.0,Windows,10,undefined,undefined,1536 x 864,1536 x 864
S010,21,Vrouwelijk,Links,3,50,left,no,200,leftarrow,532,true,focus,yes,574231,Chrome,111.0,Windows,10,undefined,undefined,1536 x 864,1536 x 864
S010,21,Vrouwelijk,Links,3,51,right,no,200,rightarrow,467,true,focus,yes,575475,Chrome,111.0,Windows,10,undefined,undefined,1536 x 864,1536 x 864
S010,21,Vrouwelijk,Links,3,52,left,no,200,leftarrow,314,true,focus,yes,576565,Chrome,111.0,Windows,10,undefined,undefined,1536 x 864,1536 x 864
S010,21,Vrouwelijk,Links,3,53,right,no,200,leftarrow,351,false,focus,yes,577691,Chrome,111.0,Windows,10,undefined,undefined,1536 x 864,1536 x 864
S010,21,Vrouwelijk,Links,3,54,right,yes,200,undefined,null,true,focus,yes,579727,Chrome,111.0,Windows,10,undefined,undefined,1536 x 864,1536 x 864
S010,21,Vrouwelijk,Links,3,55,left,yes,250,leftarrow,438,false,focus,yes,580947,Chrome,111.0,Windows,10,undefined,undefined,1536 x 864,1536 x 864
S010,21,Vrouwelijk,Links,3,56,right,no,200,rightarrow,506,true,focus,yes,582479,Chrome,111.0,Windows,10,undefined,undefined,1536 x 864,1536 x 864
S010,21,Vrouwelijk,Links,3,57,left,no,200,leftarrow,447,true,focus,yes,583705,Chrome,111.0,Windows,10,undefined,undefined,1536 x 864,1536 x 864
S010,21,Vrouwelijk,Links,3,58,right,yes,200,undefined,null,true,focus,yes,585740,Chrome,111.0,Windows,10,undefined,undefined,1536 x 864,1536 x 864
S010,21,Vrouwelijk,Links,3,59,left,yes,250,leftarrow,488,false,focus,yes,586997,Chrome,111.0,Windows,10,undefined,undefined,1536 x 864,1536 x 864
S010,21,Vrouwelijk,Links,3,60,left,no,200,leftarrow,663,true,focus,yes,588444,Chrome,111.0,Windows,10,undefined,undefined,1536 x 864,1536 x 864
S010,21,Vrouwelijk,Links,3,61,left,no,200,leftarrow,539,true,focus,yes,589764,Chrome,111.0,Windows,10,undefined,undefined,1536 x 864,1536 x 864
S010,21,Vrouwelijk,Links,3,62,right,no,200,rightarrow,628,true,focus,yes,591177,Chrome,111.0,Windows,10,undefined,undefined,1536 x 864,1536 x 864
S010,21,Vrouwelijk,Links,3,63,right,no,200,rightarrow,679,true,focus,yes,592629,Chrome,111.0,Windows,10,undefined,undefined,1536 x 864,1536 x 864
S010,21,Vrouwelijk,Links,3,64,right,no,200,rightarrow,497,true,focus,yes,593906,Chrome,111.0,Windows,10,undefined,undefined,1536 x 864,1536 x 864
S010,21,Vrouwelijk,Links,3,65,left,yes,200,undefined,null,true,focus,yes,595942,Chrome,111.0,Windows,10,undefined,undefined,1536 x 864,1536 x 864
S010,21,Vrouwelijk,Links,3,66,left,no,250,leftarrow,590,true,focus,yes,597311,Chrome,111.0,Windows,10,undefined,undefined,1536 x 864,1536 x 864
S010,21,Vrouwelijk,Links,3,67,right,no,250,rightarrow,628,true,focus,yes,598715,Chrome,111.0,Windows,10,undefined,undefined,1536 x 864,1536 x 864
S010,21,Vrouwelijk,Links,3,68,right,no,250,rightarrow,819,true,focus,yes,600307,Chrome,111.0,Windows,10,undefined,undefined,1536 x 864,1536 x 864
S010,21,Vrouwelijk,Links,3,69,right,yes,250,undefined,null,true,focus,yes,602348,Chrome,111.0,Windows,10,undefined,undefined,1536 x 864,1536 x 864
S010,21,Vrouwelijk,Links,3,70,left,no,300,leftarrow,556,true,focus,yes,603683,Chrome,111.0,Windows,10,undefined,undefined,1536 x 864,1536 x 864
S010,21,Vrouwelijk,Links,3,71,right,no,300,rightarrow,562,true,focus,yes,605027,Chrome,111.0,Windows,10,undefined,undefined,1536 x 864,1536 x 864
S010,21,Vrouwelijk,Links,3,72,left,no,300,leftarrow,476,true,focus,yes,606276,Chrome,111.0,Windows,10,undefined,undefined,1536 x 864,1536 x 864
S010,21,Vrouwelijk,Links,3,73,right,no,300,rightarrow,702,true,focus,yes,607752,Chrome,111.0,Windows,10,undefined,undefined,1536 x 864,1536 x 864
S010,21,Vrouwelijk,Links,3,74,right,no,300,rightarrow,854,true,focus,yes,609383,Chrome,111.0,Windows,10,undefined,undefined,1536 x 864,1536 x 864
S010,21,Vrouwelijk,Links,3,75,left,no,300,leftarrow,481,true,focus,yes,610644,Chrome,111.0,Windows,10,undefined,undefined,1536 x 864,1536 x 864
S010,21,Vrouwelijk,Links,3,76,left,no,300,leftarrow,604,true,focus,yes,612024,Chrome,111.0,Windows,10,undefined,undefined,1536 x 864,1536 x 864
S010,21,Vrouwelijk,Links,3,77,left,yes,300,undefined,null,true,focus,yes,614059,Chrome,111.0,Windows,10,undefined,undefined,1536 x 864,1536 x 864
S010,21,Vrouwelijk,Links,3,78,left,no,350,leftarrow,583,true,focus,yes,615412,Chrome,111.0,Windows,10,undefined,undefined,1536 x 864,1536 x 864
S010,21,Vrouwelijk,Links,3,79,right,yes,350,undefined,null,true,focus,yes,617450,Chrome,111.0,Windows,10,undefined,undefined,1536 x 864,1536 x 864
S010,21,Vrouwelijk,Links,3,80,right,no,400,rightarrow,709,true,focus,yes,618937,Chrome,111.0,Windows,10,undefined,undefined,1536 x 864,1536 x 864
S010,21,Vrouwelijk,Links,3,81,right,yes,400,rightarrow,476,false,focus,yes,620197,Chrome,111.0,Windows,10,undefined,undefined,1536 x 864,1536 x 864
S010,21,Vrouwelijk,Links,3,82,left,no,350,leftarrow,320,true,focus,yes,621303,Chrome,111.0,Windows,10,undefined,undefined,1536 x 864,1536 x 864
S010,21,Vrouwelijk,Links,3,83,right,no,350,rightarrow,688,true,focus,yes,622777,Chrome,111.0,Windows,10,undefined,undefined,1536 x 864,1536 x 864
S010,21,Vrouwelijk,Links,3,84,left,no,350,leftarrow,727,true,focus,yes,624282,Chrome,111.0,Windows,10,undefined,undefined,1536 x 864,1536 x 864
S010,21,Vrouwelijk,Links,3,85,right,no,350,rightarrow,533,true,focus,yes,625599,Chrome,111.0,Windows,10,undefined,undefined,1536 x 864,1536 x 864
S010,21,Vrouwelijk,Links,3,86,left,no,350,leftarrow,467,true,focus,yes,626842,Chrome,111.0,Windows,10,undefined,undefined,1536 x 864,1536 x 864
S010,21,Vrouwelijk,Links,3,87,left,yes,350,undefined,null,true,focus,yes,628877,Chrome,111.0,Windows,10,undefined,undefined,1536 x 864,1536 x 864
S010,21,Vrouwelijk,Links,3,88,right,no,400,rightarrow,491,true,focus,yes,630138,Chrome,111.0,Windows,10,undefined,undefined,1536 x 864,1536 x 864
S010,21,Vrouwelijk,Links,3,89,right,no,400,rightarrow,423,true,focus,yes,631338,Chrome,111.0,Windows,10,undefined,undefined,1536 x 864,1536 x 864
S010,21,Vrouwelijk,Links,3,90,left,no,400,leftarrow,560,true,focus,yes,632670,Chrome,111.0,Windows,10,undefined,undefined,1536 x 864,1536 x 864
S010,21,Vrouwelijk,Links,3,91,left,no,400,leftarrow,619,true,focus,yes,634062,Chrome,111.0,Windows,10,undefined,undefined,1536 x 864,1536 x 864
S010,21,Vrouwelijk,Links,3,92,right,no,400,rightarrow,475,true,focus,yes,635321,Chrome,111.0,Windows,10,undefined,undefined,1536 x 864,1536 x 864
S010,21,Vrouwelijk,Links,3,93,left,yes,400,leftarrow,437,false,focus,yes,636540,Chrome,111.0,Windows,10,undefined,undefined,1536 x 864,1536 x 864
S010,21,Vrouwelijk,Links,3,94,right,yes,350,rightarrow,439,false,focus,yes,637742,Chrome,111.0,Windows,10,undefined,undefined,1536 x 864,1536 x 864
S010,21,Vrouwelijk,Links,3,95,left,no,300,leftarrow,417,true,focus,yes,638929,Chrome,111.0,Windows,10,undefined,undefined,1536 x 864,1536 x 864
S010,21,Vrouwelijk,Links,3,96,right,no,300,rightarrow,387,true,focus,yes,640078,Chrome,111.0,Windows,10,undefined,undefined,1536 x 864,1536 x 864
S010,21,Vrouwelijk,Links,3,97,left,no,300,leftarrow,446,true,focus,yes,641297,Chrome,111.0,Windows,10,undefined,undefined,1536 x 864,1536 x 864
S010,21,Vrouwelijk,Links,3,98,right,no,300,rightarrow,314,true,focus,yes,642394,Chrome,111.0,Windows,10,undefined,undefined,1536 x 864,1536 x 864
S010,21,Vrouwelijk,Links,3,99,left,no,300,leftarrow,447,true,focus,yes,643618,Chrome,111.0,Windows,10,undefined,undefined,1536 x 864,1536 x 864
S010,21,Vrouwelijk,Links,3,100,right,no,300,rightarrow,598,true,focus,yes,644999,Chrome,111.0,Windows,10,undefined,undefined,1536 x 864,1536 x 864
S010,21,Vrouwelijk,Links,3,101,right,yes,300,undefined,null,true,focus,yes,647029,Chrome,111.0,Windows,10,undefined,undefined,1536 x 864,1536 x 864
S010,21,Vrouwelijk,Links,3,102,right,no,350,rightarrow,640,true,focus,yes,648448,Chrome,111.0,Windows,10,undefined,undefined,1536 x 864,1536 x 864
S010,21,Vrouwelijk,Links,3,103,left,no,350,leftarrow,510,true,focus,yes,649738,Chrome,111.0,Windows,10,undefined,undefined,1536 x 864,1536 x 864
S010,21,Vrouwelijk,Links,3,104,left,yes,350,leftarrow,571,false,focus,yes,651092,Chrome,111.0,Windows,10,undefined,undefined,1536 x 864,1536 x 864
S010,21,Vrouwelijk,Links,3,105,right,yes,300,undefined,null,true,focus,yes,653135,Chrome,111.0,Windows,10,undefined,undefined,1536 x 864,1536 x 864
S010,21,Vrouwelijk,Links,3,106,left,no,350,leftarrow,462,true,focus,yes,654382,Chrome,111.0,Windows,10,undefined,undefined,1536 x 864,1536 x 864
S010,21,Vrouwelijk,Links,3,107,right,no,350,rightarrow,428,true,focus,yes,655594,Chrome,111.0,Windows,10,undefined,undefined,1536 x 864,1536 x 864
S010,21,Vrouwelijk,Links,3,108,left,no,350,leftarrow,627,true,focus,yes,657009,Chrome,111.0,Windows,10,undefined,undefined,1536 x 864,1536 x 864
S010,21,Vrouwelijk,Links,3,109,right,no,350,rightarrow,573,true,focus,yes,658360,Chrome,111.0,Windows,10,undefined,undefined,1536 x 864,1536 x 864
S010,21,Vrouwelijk,Links,3,110,left,no,350,leftarrow,485,true,focus,yes,659627,Chrome,111.0,Windows,10,undefined,undefined,1536 x 864,1536 x 864
S010,21,Vrouwelijk,Links,3,111,right,no,350,rightarrow,440,true,focus,yes,660846,Chrome,111.0,Windows,10,undefined,undefined,1536 x 864,1536 x 864
S010,21,Vrouwelijk,Links,3,112,left,yes,350,leftarrow,338,false,focus,yes,661961,Chrome,111.0,Windows,10,undefined,undefined,1536 x 864,1536 x 864
S010,21,Vrouwelijk,Links,3,113,right,no,300,rightarrow,516,true,focus,yes,663258,Chrome,111.0,Windows,10,undefined,undefined,1536 x 864,1536 x 864
S010,21,Vrouwelijk,Links,3,114,right,yes,300,undefined,null,true,focus,yes,665292,Chrome,111.0,Windows,10,undefined,undefined,1536 x 864,1536 x 864
S010,21,Vrouwelijk,Links,3,115,right,no,350,rightarrow,270,true,focus,yes,666346,Chrome,111.0,Windows,10,undefined,undefined,1536 x 864,1536 x 864
S010,21,Vrouwelijk,Links,3,116,right,no,350,rightarrow,312,true,focus,yes,667442,Chrome,111.0,Windows,10,undefined,undefined,1536 x 864,1536 x 864
S010,21,Vrouwelijk,Links,3,117,left,yes,350,rightarrow,186,false,focus,yes,668408,Chrome,111.0,Windows,10,undefined,undefined,1536 x 864,1536 x 864
S010,21,Vrouwelijk,Links,3,118,left,no,300,leftarrow,425,true,focus,yes,670129,Chrome,111.0,Windows,10,undefined,undefined,1536 x 864,1536 x 864
S010,21,Vrouwelijk,Links,3,119,left,no,300,leftarrow,581,true,focus,yes,671493,Chrome,111.0,Windows,10,undefined,undefined,1536 x 864,1536 x 864
S010,21,Vrouwelijk,Links,3,120,left,no,300,leftarrow,443,true,focus,yes,672723,Chrome,111.0,Windows,10,undefined,undefined,1536 x 864,1536 x 864
S010,21,Vrouwelijk,Links,3,121,right,no,300,rightarrow,483,true,focus,yes,673992,Chrome,111.0,Windows,10,undefined,undefined,1536 x 864,1536 x 864
S010,21,Vrouwelijk,Links,3,122,left,no,300,leftarrow,547,true,focus,yes,675315,Chrome,111.0,Windows,10,undefined,undefined,1536 x 864,1536 x 864
S010,21,Vrouwelijk,Links,3,123,left,no,300,leftarrow,474,true,focus,yes,676565,Chrome,111.0,Windows,10,undefined,undefined,1536 x 864,1536 x 864
S010,21,Vrouwelijk,Links,3,124,right,no,300,leftarrow,584,false,focus,yes,677935,Chrome,111.0,Windows,10,undefined,undefined,1536 x 864,1536 x 864
S010,21,Vrouwelijk,Links,3,125,right,no,300,rightarrow,476,true,focus,yes,679460,Chrome,111.0,Windows,10,undefined,undefined,1536 x 864,1536 x 864
S010,21,Vrouwelijk,Links,3,126,left,no,300,leftarrow,454,true,focus,yes,680699,Chrome,111.0,Windows,10,undefined,undefined,1536 x 864,1536 x 864
S010,21,Vrouwelijk,Links,3,127,right,yes,300,rightarrow,457,false,focus,yes,681933,Chrome,111.0,Windows,10,undefined,undefined,1536 x 864,1536 x 864
S010,21,Vrouwelijk,Links,3,128,left,yes,250,undefined,null,true,focus,yes,683973,Chrome,111.0,Windows,10,undefined,undefined,1536 x 864,1536 x 864
S010,21,Vrouwelijk,Links,4,1,left,yes,300,leftarrow,454,false,focus,yes,703166,Chrome,111.0,Windows,10,undefined,undefined,1536 x 864,1536 x 864
S010,21,Vrouwelijk,Links,4,2,left,no,250,leftarrow,481,true,focus,yes,704422,Chrome,111.0,Windows,10,undefined,undefined,1536 x 864,1536 x 864
S010,21,Vrouwelijk,Links,4,3,right,no,250,rightarrow,409,true,focus,yes,705608,Chrome,111.0,Windows,10,undefined,undefined,1536 x 864,1536 x 864
S010,21,Vrouwelijk,Links,4,4,right,no,250,rightarrow,497,true,focus,yes,706882,Chrome,111.0,Windows,10,undefined,undefined,1536 x 864,1536 x 864
S010,21,Vrouwelijk,Links,4,5,left,no,250,leftarrow,516,true,focus,yes,708177,Chrome,111.0,Windows,10,undefined,undefined,1536 x 864,1536 x 864
S010,21,Vrouwelijk,Links,4,6,right,yes,250,undefined,null,true,focus,yes,710213,Chrome,111.0,Windows,10,undefined,undefined,1536 x 864,1536 x 864
S010,21,Vrouwelijk,Links,4,7,left,no,300,leftarrow,531,true,focus,yes,711512,Chrome,111.0,Windows,10,undefined,undefined,1536 x 864,1536 x 864
S010,21,Vrouwelijk,Links,4,8,right,no,300,rightarrow,609,true,focus,yes,712895,Chrome,111.0,Windows,10,undefined,undefined,1536 x 864,1536 x 864
S010,21,Vrouwelijk,Links,4,9,left,no,300,leftarrow,517,true,focus,yes,714184,Chrome,111.0,Windows,10,undefined,undefined,1536 x 864,1536 x 864
S010,21,Vrouwelijk,Links,4,10,right,no,300,rightarrow,352,true,focus,yes,715310,Chrome,111.0,Windows,10,undefined,undefined,1536 x 864,1536 x 864
S010,21,Vrouwelijk,Links,4,11,left,no,300,leftarrow,409,true,focus,yes,716507,Chrome,111.0,Windows,10,undefined,undefined,1536 x 864,1536 x 864
S010,21,Vrouwelijk,Links,4,12,right,no,300,rightarrow,392,true,focus,yes,717674,Chrome,111.0,Windows,10,undefined,undefined,1536 x 864,1536 x 864
S010,21,Vrouwelijk,Links,4,13,right,yes,300,rightarrow,440,false,focus,yes,718888,Chrome,111.0,Windows,10,undefined,undefined,1536 x 864,1536 x 864
S010,21,Vrouwelijk,Links,4,14,left,yes,250,leftarrow,329,false,focus,yes,719990,Chrome,111.0,Windows,10,undefined,undefined,1536 x 864,1536 x 864
S010,21,Vrouwelijk,Links,4,15,right,no,200,rightarrow,351,true,focus,yes,721114,Chrome,111.0,Windows,10,undefined,undefined,1536 x 864,1536 x 864
S010,21,Vrouwelijk,Links,4,16,left,no,200,leftarrow,430,true,focus,yes,722330,Chrome,111.0,Windows,10,undefined,undefined,1536 x 864,1536 x 864
S010,21,Vrouwelijk,Links,4,17,right,no,200,leftarrow,653,false,focus,yes,723765,Chrome,111.0,Windows,10,undefined,undefined,1536 x 864,1536 x 864
S010,21,Vrouwelijk,Links,4,18,right,yes,200,rightarrow,560,false,focus,yes,725100,Chrome,111.0,Windows,10,undefined,undefined,1536 x 864,1536 x 864
S010,21,Vrouwelijk,Links,4,19,right,no,150,rightarrow,636,true,focus,yes,726516,Chrome,111.0,Windows,10,undefined,undefined,1536 x 864,1536 x 864
S010,21,Vrouwelijk,Links,4,20,left,no,150,leftarrow,640,true,focus,yes,727935,Chrome,111.0,Windows,10,undefined,undefined,1536 x 864,1536 x 864
S010,21,Vrouwelijk,Links,4,21,left,yes,150,undefined,null,true,focus,yes,729970,Chrome,111.0,Windows,10,undefined,undefined,1536 x 864,1536 x 864
S010,21,Vrouwelijk,Links,4,22,right,no,200,rightarrow,710,true,focus,yes,731450,Chrome,111.0,Windows,10,undefined,undefined,1536 x 864,1536 x 864
S010,21,Vrouwelijk,Links,4,23,left,no,200,leftarrow,554,true,focus,yes,732786,Chrome,111.0,Windows,10,undefined,undefined,1536 x 864,1536 x 864
S010,21,Vrouwelijk,Links,4,24,left,no,200,leftarrow,500,true,focus,yes,734072,Chrome,111.0,Windows,10,undefined,undefined,1536 x 864,1536 x 864
S010,21,Vrouwelijk,Links,4,25,right,no,200,rightarrow,697,true,focus,yes,735546,Chrome,111.0,Windows,10,undefined,undefined,1536 x 864,1536 x 864
S010,21,Vrouwelijk,Links,4,26,left,yes,200,undefined,null,true,focus,yes,737577,Chrome,111.0,Windows,10,undefined,undefined,1536 x 864,1536 x 864
S010,21,Vrouwelijk,Links,4,27,right,no,250,rightarrow,537,true,focus,yes,738895,Chrome,111.0,Windows,10,undefined,undefined,1536 x 864,1536 x 864
S010,21,Vrouwelijk,Links,4,28,right,yes,250,undefined,null,true,focus,yes,740935,Chrome,111.0,Windows,10,undefined,undefined,1536 x 864,1536 x 864
S010,21,Vrouwelijk,Links,4,29,left,no,300,leftarrow,645,true,focus,yes,742363,Chrome,111.0,Windows,10,undefined,undefined,1536 x 864,1536 x 864
S010,21,Vrouwelijk,Links,4,30,left,no,300,leftarrow,688,true,focus,yes,743839,Chrome,111.0,Windows,10,undefined,undefined,1536 x 864,1536 x 864
S010,21,Vrouwelijk,Links,4,31,left,no,300,leftarrow,927,true,focus,yes,745543,Chrome,111.0,Windows,10,undefined,undefined,1536 x 864,1536 x 864
S010,21,Vrouwelijk,Links,4,32,right,no,300,rightarrow,962,true,focus,yes,747291,Chrome,111.0,Windows,10,undefined,undefined,1536 x 864,1536 x 864
S010,21,Vrouwelijk,Links,4,33,right,no,300,rightarrow,640,true,focus,yes,748709,Chrome,111.0,Windows,10,undefined,undefined,1536 x 864,1536 x 864
S010,21,Vrouwelijk,Links,4,34,left,no,300,leftarrow,734,true,focus,yes,750220,Chrome,111.0,Windows,10,undefined,undefined,1536 x 864,1536 x 864
S010,21,Vrouwelijk,Links,4,35,right,yes,300,undefined,null,true,focus,yes,752257,Chrome,111.0,Windows,10,undefined,undefined,1536 x 864,1536 x 864
S010,21,Vrouwelijk,Links,4,36,right,no,350,rightarrow,740,true,focus,yes,753766,Chrome,111.0,Windows,10,undefined,undefined,1536 x 864,1536 x 864
S010,21,Vrouwelijk,Links,4,37,left,no,350,leftarrow,606,true,focus,yes,755157,Chrome,111.0,Windows,10,undefined,undefined,1536 x 864,1536 x 864
S010,21,Vrouwelijk,Links,4,38,right,no,350,rightarrow,780,true,focus,yes,756714,Chrome,111.0,Windows,10,undefined,undefined,1536 x 864,1536 x 864
S010,21,Vrouwelijk,Links,4,39,left,yes,350,undefined,null,true,focus,yes,758746,Chrome,111.0,Windows,10,undefined,undefined,1536 x 864,1536 x 864
S010,21,Vrouwelijk,Links,4,40,left,no,400,leftarrow,530,true,focus,yes,760047,Chrome,111.0,Windows,10,undefined,undefined,1536 x 864,1536 x 864
S010,21,Vrouwelijk,Links,4,41,right,no,400,rightarrow,583,true,focus,yes,761416,Chrome,111.0,Windows,10,undefined,undefined,1536 x 864,1536 x 864
S010,21,Vrouwelijk,Links,4,42,left,no,400,leftarrow,561,true,focus,yes,762759,Chrome,111.0,Windows,10,undefined,undefined,1536 x 864,1536 x 864
S010,21,Vrouwelijk,Links,4,43,left,no,400,leftarrow,928,true,focus,yes,764466,Chrome,111.0,Windows,10,undefined,undefined,1536 x 864,1536 x 864
S010,21,Vrouwelijk,Links,4,44,right,yes,400,undefined,null,true,focus,yes,766505,Chrome,111.0,Windows,10,undefined,undefined,1536 x 864,1536 x 864
S010,21,Vrouwelijk,Links,4,45,left,no,450,leftarrow,754,true,focus,yes,768044,Chrome,111.0,Windows,10,undefined,undefined,1536 x 864,1536 x 864
S010,21,Vrouwelijk,Links,4,46,right,no,450,rightarrow,736,true,focus,yes,769569,Chrome,111.0,Windows,10,undefined,undefined,1536 x 864,1536 x 864
S010,21,Vrouwelijk,Links,4,47,left,yes,450,undefined,null,true,focus,yes,771598,Chrome,111.0,Windows,10,undefined,undefined,1536 x 864,1536 x 864
S010,21,Vrouwelijk,Links,4,48,right,no,500,rightarrow,561,true,focus,yes,772931,Chrome,111.0,Windows,10,undefined,undefined,1536 x 864,1536 x 864
S010,21,Vrouwelijk,Links,4,49,left,no,500,leftarrow,598,true,focus,yes,774303,Chrome,111.0,Windows,10,undefined,undefined,1536 x 864,1536 x 864
S010,21,Vrouwelijk,Links,4,50,left,yes,500,undefined,null,true,focus,yes,776332,Chrome,111.0,Windows,10,undefined,undefined,1536 x 864,1536 x 864
S010,21,Vrouwelijk,Links,4,51,right,no,550,rightarrow,742,true,focus,yes,777857,Chrome,111.0,Windows,10,undefined,undefined,1536 x 864,1536 x 864
S010,21,Vrouwelijk,Links,4,52,right,no,550,rightarrow,436,true,focus,yes,779081,Chrome,111.0,Windows,10,undefined,undefined,1536 x 864,1536 x 864
S010,21,Vrouwelijk,Links,4,53,left,no,550,leftarrow,815,true,focus,yes,780673,Chrome,111.0,Windows,10,undefined,undefined,1536 x 864,1536 x 864
S010,21,Vrouwelijk,Links,4,54,right,yes,550,undefined,null,true,focus,yes,782713,Chrome,111.0,Windows,10,undefined,undefined,1536 x 864,1536 x 864
S010,21,Vrouwelijk,Links,4,55,right,no,600,rightarrow,989,true,focus,yes,784486,Chrome,111.0,Windows,10,undefined,undefined,1536 x 864,1536 x 864
S010,21,Vrouwelijk,Links,4,56,left,no,600,leftarrow,1034,true,focus,yes,786303,Chrome,111.0,Windows,10,undefined,undefined,1536 x 864,1536 x 864
S010,21,Vrouwelijk,Links,4,57,right,no,600,rightarrow,693,true,focus,yes,787782,Chrome,111.0,Windows,10,undefined,undefined,1536 x 864,1536 x 864
S010,21,Vrouwelijk,Links,4,58,right,no,600,rightarrow,749,true,focus,yes,789315,Chrome,111.0,Windows,10,undefined,undefined,1536 x 864,1536 x 864
S010,21,Vrouwelijk,Links,4,59,right,yes,600,rightarrow,691,false,focus,yes,790777,Chrome,111.0,Windows,10,undefined,undefined,1536 x 864,1536 x 864
S010,21,Vrouwelijk,Links,4,60,right,no,550,rightarrow,872,true,focus,yes,792424,Chrome,111.0,Windows,10,undefined,undefined,1536 x 864,1536 x 864
S010,21,Vrouwelijk,Links,4,61,left,no,550,leftarrow,1155,true,focus,yes,794354,Chrome,111.0,Windows,10,undefined,undefined,1536 x 864,1536 x 864
S010,21,Vrouwelijk,Links,4,62,left,no,550,leftarrow,538,true,focus,yes,795667,Chrome,111.0,Windows,10,undefined,undefined,1536 x 864,1536 x 864
S010,21,Vrouwelijk,Links,4,63,left,no,550,leftarrow,534,true,focus,yes,796984,Chrome,111.0,Windows,10,undefined,undefined,1536 x 864,1536 x 864
S010,21,Vrouwelijk,Links,4,64,left,yes,550,leftarrow,564,false,focus,yes,798322,Chrome,111.0,Windows,10,undefined,undefined,1536 x 864,1536 x 864
S010,21,Vrouwelijk,Links,4,65,left,yes,500,leftarrow,498,false,focus,yes,799592,Chrome,111.0,Windows,10,undefined,undefined,1536 x 864,1536 x 864
S010,21,Vrouwelijk,Links,4,66,left,no,450,leftarrow,836,true,focus,yes,801205,Chrome,111.0,Windows,10,undefined,undefined,1536 x 864,1536 x 864
S010,21,Vrouwelijk,Links,4,67,left,no,450,leftarrow,620,true,focus,yes,802607,Chrome,111.0,Windows,10,undefined,undefined,1536 x 864,1536 x 864
S010,21,Vrouwelijk,Links,4,68,left,no,450,leftarrow,769,true,focus,yes,804158,Chrome,111.0,Windows,10,undefined,undefined,1536 x 864,1536 x 864
S010,21,Vrouwelijk,Links,4,69,right,no,450,rightarrow,870,true,focus,yes,805798,Chrome,111.0,Windows,10,undefined,undefined,1536 x 864,1536 x 864
S010,21,Vrouwelijk,Links,4,70,right,yes,450,undefined,null,true,focus,yes,807837,Chrome,111.0,Windows,10,undefined,undefined,1536 x 864,1536 x 864
S010,21,Vrouwelijk,Links,4,71,right,no,500,rightarrow,656,true,focus,yes,809276,Chrome,111.0,Windows,10,undefined,undefined,1536 x 864,1536 x 864
S010,21,Vrouwelijk,Links,4,72,right,no,500,rightarrow,753,true,focus,yes,810804,Chrome,111.0,Windows,10,undefined,undefined,1536 x 864,1536 x 864
S010,21,Vrouwelijk,Links,4,73,left,no,500,leftarrow,693,true,focus,yes,812271,Chrome,111.0,Windows,10,undefined,undefined,1536 x 864,1536 x 864
S010,21,Vrouwelijk,Links,4,74,left,yes,500,leftarrow,515,false,focus,yes,813572,Chrome,111.0,Windows,10,undefined,undefined,1536 x 864,1536 x 864
S010,21,Vrouwelijk,Links,4,75,left,no,450,leftarrow,488,true,focus,yes,814835,Chrome,111.0,Windows,10,undefined,undefined,1536 x 864,1536 x 864
S010,21,Vrouwelijk,Links,4,76,right,no,450,rightarrow,423,true,focus,yes,816033,Chrome,111.0,Windows,10,undefined,undefined,1536 x 864,1536 x 864
S010,21,Vrouwelijk,Links,4,77,right,no,450,rightarrow,503,true,focus,yes,817311,Chrome,111.0,Windows,10,undefined,undefined,1536 x 864,1536 x 864
S010,21,Vrouwelijk,Links,4,78,left,no,450,leftarrow,437,true,focus,yes,818535,Chrome,111.0,Windows,10,undefined,undefined,1536 x 864,1536 x 864
S010,21,Vrouwelijk,Links,4,79,right,no,450,rightarrow,442,true,focus,yes,819754,Chrome,111.0,Windows,10,undefined,undefined,1536 x 864,1536 x 864
S010,21,Vrouwelijk,Links,4,80,right,yes,450,rightarrow,566,false,focus,yes,821096,Chrome,111.0,Windows,10,undefined,undefined,1536 x 864,1536 x 864
S010,21,Vrouwelijk,Links,4,81,left,yes,400,leftarrow,328,false,focus,yes,822197,Chrome,111.0,Windows,10,undefined,undefined,1536 x 864,1536 x 864
S010,21,Vrouwelijk,Links,4,82,right,yes,350,rightarrow,254,false,focus,yes,823226,Chrome,111.0,Windows,10,undefined,undefined,1536 x 864,1536 x 864
S010,21,Vrouwelijk,Links,4,83,left,no,300,leftarrow,313,true,focus,yes,824325,Chrome,111.0,Windows,10,undefined,undefined,1536 x 864,1536 x 864
S010,21,Vrouwelijk,Links,4,84,right,no,300,rightarrow,352,true,focus,yes,825455,Chrome,111.0,Windows,10,undefined,undefined,1536 x 864,1536 x 864
S010,21,Vrouwelijk,Links,4,85,left,no,300,leftarrow,341,true,focus,yes,826576,Chrome,111.0,Windows,10,undefined,undefined,1536 x 864,1536 x 864
S010,21,Vrouwelijk,Links,4,86,right,no,300,rightarrow,311,true,focus,yes,827666,Chrome,111.0,Windows,10,undefined,undefined,1536 x 864,1536 x 864
S010,21,Vrouwelijk,Links,4,87,left,no,300,leftarrow,613,true,focus,yes,829068,Chrome,111.0,Windows,10,undefined,undefined,1536 x 864,1536 x 864
S010,21,Vrouwelijk,Links,4,88,right,no,300,rightarrow,335,true,focus,yes,830191,Chrome,111.0,Windows,10,undefined,undefined,1536 x 864,1536 x 864
S010,21,Vrouwelijk,Links,4,89,left,yes,300,leftarrow,324,false,focus,yes,831286,Chrome,111.0,Windows,10,undefined,undefined,1536 x 864,1536 x 864
S010,21,Vrouwelijk,Links,4,90,right,no,250,rightarrow,363,true,focus,yes,832428,Chrome,111.0,Windows,10,undefined,undefined,1536 x 864,1536 x 864
S010,21,Vrouwelijk,Links,4,91,left,no,250,leftarrow,994,true,focus,yes,834198,Chrome,111.0,Windows,10,undefined,undefined,1536 x 864,1536 x 864
S010,21,Vrouwelijk,Links,4,92,left,no,250,leftarrow,430,true,focus,yes,835407,Chrome,111.0,Windows,10,undefined,undefined,1536 x 864,1536 x 864
S010,21,Vrouwelijk,Links,4,93,right,no,250,rightarrow,450,true,focus,yes,836638,Chrome,111.0,Windows,10,undefined,undefined,1536 x 864,1536 x 864
S010,21,Vrouwelijk,Links,4,94,right,no,250,rightarrow,445,true,focus,yes,837860,Chrome,111.0,Windows,10,undefined,undefined,1536 x 864,1536 x 864
S010,21,Vrouwelijk,Links,4,95,right,yes,250,undefined,null,true,focus,yes,839900,Chrome,111.0,Windows,10,undefined,undefined,1536 x 864,1536 x 864
S010,21,Vrouwelijk,Links,4,96,left,no,300,leftarrow,380,true,focus,yes,841061,Chrome,111.0,Windows,10,undefined,undefined,1536 x 864,1536 x 864
S010,21,Vrouwelijk,Links,4,97,right,no,300,rightarrow,448,true,focus,yes,842296,Chrome,111.0,Windows,10,undefined,undefined,1536 x 864,1536 x 864
S010,21,Vrouwelijk,Links,4,98,left,no,300,leftarrow,594,true,focus,yes,843670,Chrome,111.0,Windows,10,undefined,undefined,1536 x 864,1536 x 864
S010,21,Vrouwelijk,Links,4,99,left,no,300,leftarrow,575,true,focus,yes,845020,Chrome,111.0,Windows,10,undefined,undefined,1536 x 864,1536 x 864
S010,21,Vrouwelijk,Links,4,100,right,no,300,rightarrow,683,true,focus,yes,846478,Chrome,111.0,Windows,10,undefined,undefined,1536 x 864,1536 x 864
S010,21,Vrouwelijk,Links,4,101,left,yes,300,undefined,null,true,focus,yes,848517,Chrome,111.0,Windows,10,undefined,undefined,1536 x 864,1536 x 864
S010,21,Vrouwelijk,Links,4,102,right,no,350,rightarrow,427,true,focus,yes,849726,Chrome,111.0,Windows,10,undefined,undefined,1536 x 864,1536 x 864
S010,21,Vrouwelijk,Links,4,103,left,no,350,leftarrow,621,true,focus,yes,851134,Chrome,111.0,Windows,10,undefined,undefined,1536 x 864,1536 x 864
S010,21,Vrouwelijk,Links,4,104,right,yes,350,rightarrow,461,false,focus,yes,852371,Chrome,111.0,Windows,10,undefined,undefined,1536 x 864,1536 x 864
S010,21,Vrouwelijk,Links,4,105,left,yes,300,leftarrow,354,false,focus,yes,853508,Chrome,111.0,Windows,10,undefined,undefined,1536 x 864,1536 x 864
S010,21,Vrouwelijk,Links,4,106,left,no,250,leftarrow,479,true,focus,yes,854764,Chrome,111.0,Windows,10,undefined,undefined,1536 x 864,1536 x 864
S010,21,Vrouwelijk,Links,4,107,right,no,250,rightarrow,852,true,focus,yes,856396,Chrome,111.0,Windows,10,undefined,undefined,1536 x 864,1536 x 864
S010,21,Vrouwelijk,Links,4,108,right,yes,250,undefined,null,true,focus,yes,858435,Chrome,111.0,Windows,10,undefined,undefined,1536 x 864,1536 x 864
S010,21,Vrouwelijk,Links,4,109,right,no,300,rightarrow,490,true,focus,yes,859705,Chrome,111.0,Windows,10,undefined,undefined,1536 x 864,1536 x 864
S010,21,Vrouwelijk,Links,4,110,left,no,300,leftarrow,545,true,focus,yes,861036,Chrome,111.0,Windows,10,undefined,undefined,1536 x 864,1536 x 864
S010,21,Vrouwelijk,Links,4,111,right,no,300,rightarrow,721,true,focus,yes,862533,Chrome,111.0,Windows,10,undefined,undefined,1536 x 864,1536 x 864
S010,21,Vrouwelijk,Links,4,112,left,no,300,leftarrow,941,true,focus,yes,864249,Chrome,111.0,Windows,10,undefined,undefined,1536 x 864,1536 x 864
S010,21,Vrouwelijk,Links,4,113,left,no,300,leftarrow,536,true,focus,yes,865569,Chrome,111.0,Windows,10,undefined,undefined,1536 x 864,1536 x 864
S010,21,Vrouwelijk,Links,4,114,right,no,300,rightarrow,626,true,focus,yes,866976,Chrome,111.0,Windows,10,undefined,undefined,1536 x 864,1536 x 864
S010,21,Vrouwelijk,Links,4,115,left,no,300,leftarrow,712,true,focus,yes,868464,Chrome,111.0,Windows,10,undefined,undefined,1536 x 864,1536 x 864
S010,21,Vrouwelijk,Links,4,116,left,yes,300,undefined,null,true,focus,yes,870502,Chrome,111.0,Windows,10,undefined,undefined,1536 x 864,1536 x 864
S010,21,Vrouwelijk,Links,4,117,right,no,350,rightarrow,424,true,focus,yes,871710,Chrome,111.0,Windows,10,undefined,undefined,1536 x 864,1536 x 864
S010,21,Vrouwelijk,Links,4,118,right,no,350,rightarrow,373,true,focus,yes,872871,Chrome,111.0,Windows,10,undefined,undefined,1536 x 864,1536 x 864
S010,21,Vrouwelijk,Links,4,119,right,yes,350,rightarrow,383,false,focus,yes,874032,Chrome,111.0,Windows,10,undefined,undefined,1536 x 864,1536 x 864
S010,21,Vrouwelijk,Links,4,120,left,no,300,leftarrow,429,true,focus,yes,875244,Chrome,111.0,Windows,10,undefined,undefined,1536 x 864,1536 x 864
S010,21,Vrouwelijk,Links,4,121,right,yes,300,rightarrow,424,false,focus,yes,876452,Chrome,111.0,Windows,10,undefined,undefined,1536 x 864,1536 x 864
S010,21,Vrouwelijk,Links,4,122,left,no,250,leftarrow,329,true,focus,yes,877553,Chrome,111.0,Windows,10,undefined,undefined,1536 x 864,1536 x 864
S010,21,Vrouwelijk,Links,4,123,left,no,250,leftarrow,521,true,focus,yes,878848,Chrome,111.0,Windows,10,undefined,undefined,1536 x 864,1536 x 864
S010,21,Vrouwelijk,Links,4,124,left,no,250,leftarrow,422,true,focus,yes,880042,Chrome,111.0,Windows,10,undefined,undefined,1536 x 864,1536 x 864
S010,21,Vrouwelijk,Links,4,125,right,no,250,rightarrow,413,true,focus,yes,881230,Chrome,111.0,Windows,10,undefined,undefined,1536 x 864,1536 x 864
S010,21,Vrouwelijk,Links,4,126,left,yes,250,leftarrow,437,false,focus,yes,882452,Chrome,111.0,Windows,10,undefined,undefined,1536 x 864,1536 x 864
S010,21,Vrouwelijk,Links,4,127,right,no,200,rightarrow,351,true,focus,yes,883581,Chrome,111.0,Windows,10,undefined,undefined,1536 x 864,1536 x 864
S010,21,Vrouwelijk,Links,4,128,right,no,200,rightarrow,415,true,focus,yes,884780,Chrome,111.0,Windows,10,undefined,undefined,1536 x 864,1536 x 864
S010,21,Vrouwelijk,Links,5,1,left,no,200,leftarrow,573,true,focus,yes,904729,Chrome,111.0,Windows,10,undefined,undefined,1536 x 864,1536 x 864
S010,21,Vrouwelijk,Links,5,2,right,no,200,rightarrow,326,true,focus,yes,905833,Chrome,111.0,Windows,10,undefined,undefined,1536 x 864,1536 x 864
S010,21,Vrouwelijk,Links,5,3,right,yes,200,rightarrow,330,false,focus,yes,906940,Chrome,111.0,Windows,10,undefined,undefined,1536 x 864,1536 x 864
S010,21,Vrouwelijk,Links,5,4,left,no,150,leftarrow,454,true,focus,yes,908168,Chrome,111.0,Windows,10,undefined,undefined,1536 x 864,1536 x 864
S010,21,Vrouwelijk,Links,5,5,right,no,150,rightarrow,578,true,focus,yes,909519,Chrome,111.0,Windows,10,undefined,undefined,1536 x 864,1536 x 864
S010,21,Vrouwelijk,Links,5,6,left,yes,150,undefined,null,true,focus,yes,911557,Chrome,111.0,Windows,10,undefined,undefined,1536 x 864,1536 x 864
S010,21,Vrouwelijk,Links,5,7,right,no,200,rightarrow,290,true,focus,yes,912628,Chrome,111.0,Windows,10,undefined,undefined,1536 x 864,1536 x 864
S010,21,Vrouwelijk,Links,5,8,left,no,200,leftarrow,272,true,focus,yes,913679,Chrome,111.0,Windows,10,undefined,undefined,1536 x 864,1536 x 864
S010,21,Vrouwelijk,Links,5,9,right,no,200,rightarrow,255,true,focus,yes,914722,Chrome,111.0,Windows,10,undefined,undefined,1536 x 864,1536 x 864
S010,21,Vrouwelijk,Links,5,10,left,no,200,leftarrow,399,true,focus,yes,915905,Chrome,111.0,Windows,10,undefined,undefined,1536 x 864,1536 x 864
S010,21,Vrouwelijk,Links,5,11,left,no,200,leftarrow,657,true,focus,yes,917344,Chrome,111.0,Windows,10,undefined,undefined,1536 x 864,1536 x 864
S010,21,Vrouwelijk,Links,5,12,right,yes,200,undefined,null,true,focus,yes,919373,Chrome,111.0,Windows,10,undefined,undefined,1536 x 864,1536 x 864
S010,21,Vrouwelijk,Links,5,13,left,no,250,undefined,null,false,focus,yes,921409,Chrome,111.0,Windows,10,undefined,undefined,1536 x 864,1536 x 864
S010,21,Vrouwelijk,Links,5,14,left,yes,250,leftarrow,464,false,focus,yes,922644,Chrome,111.0,Windows,10,undefined,undefined,1536 x 864,1536 x 864
S010,21,Vrouwelijk,Links,5,15,right,no,200,rightarrow,435,true,focus,yes,923851,Chrome,111.0,Windows,10,undefined,undefined,1536 x 864,1536 x 864
S010,21,Vrouwelijk,Links,5,16,right,no,200,rightarrow,694,true,focus,yes,925321,Chrome,111.0,Windows,10,undefined,undefined,1536 x 864,1536 x 864
S010,21,Vrouwelijk,Links,5,17,right,no,200,rightarrow,461,true,focus,yes,926565,Chrome,111.0,Windows,10,undefined,undefined,1536 x 864,1536 x 864
S010,21,Vrouwelijk,Links,5,18,right,no,200,rightarrow,450,true,focus,yes,927799,Chrome,111.0,Windows,10,undefined,undefined,1536 x 864,1536 x 864
S010,21,Vrouwelijk,Links,5,19,right,yes,200,undefined,null,true,focus,yes,929836,Chrome,111.0,Windows,10,undefined,undefined,1536 x 864,1536 x 864
S010,21,Vrouwelijk,Links,5,20,right,no,250,rightarrow,477,true,focus,yes,931093,Chrome,111.0,Windows,10,undefined,undefined,1536 x 864,1536 x 864
S010,21,Vrouwelijk,Links,5,21,left,yes,250,undefined,null,true,focus,yes,933136,Chrome,111.0,Windows,10,undefined,undefined,1536 x 864,1536 x 864
S010,21,Vrouwelijk,Links,5,22,left,no,300,leftarrow,416,true,focus,yes,934333,Chrome,111.0,Windows,10,undefined,undefined,1536 x 864,1536 x 864
S010,21,Vrouwelijk,Links,5,23,left,no,300,leftarrow,731,true,focus,yes,935843,Chrome,111.0,Windows,10,undefined,undefined,1536 x 864,1536 x 864
S010,21,Vrouwelijk,Links,5,24,left,no,300,leftarrow,439,true,focus,yes,937059,Chrome,111.0,Windows,10,undefined,undefined,1536 x 864,1536 x 864
S010,21,Vrouwelijk,Links,5,25,left,no,300,leftarrow,374,true,focus,yes,938211,Chrome,111.0,Windows,10,undefined,undefined,1536 x 864,1536 x 864
S010,21,Vrouwelijk,Links,5,26,right,no,300,rightarrow,621,true,focus,yes,939608,Chrome,111.0,Windows,10,undefined,undefined,1536 x 864,1536 x 864
S010,21,Vrouwelijk,Links,5,27,right,yes,300,rightarrow,428,false,focus,yes,940818,Chrome,111.0,Windows,10,undefined,undefined,1536 x 864,1536 x 864
S010,21,Vrouwelijk,Links,5,28,left,no,250,leftarrow,418,true,focus,yes,942022,Chrome,111.0,Windows,10,undefined,undefined,1536 x 864,1536 x 864
S010,21,Vrouwelijk,Links,5,29,left,no,250,leftarrow,898,true,focus,yes,943698,Chrome,111.0,Windows,10,undefined,undefined,1536 x 864,1536 x 864
S010,21,Vrouwelijk,Links,5,30,right,no,250,rightarrow,679,true,focus,yes,945161,Chrome,111.0,Windows,10,undefined,undefined,1536 x 864,1536 x 864
S010,21,Vrouwelijk,Links,5,31,right,no,250,rightarrow,577,true,focus,yes,946525,Chrome,111.0,Windows,10,undefined,undefined,1536 x 864,1536 x 864
S010,21,Vrouwelijk,Links,5,32,left,yes,250,undefined,null,true,focus,yes,948561,Chrome,111.0,Windows,10,undefined,undefined,1536 x 864,1536 x 864
S010,21,Vrouwelijk,Links,5,33,right,no,300,rightarrow,440,true,focus,yes,949783,Chrome,111.0,Windows,10,undefined,undefined,1536 x 864,1536 x 864
S010,21,Vrouwelijk,Links,5,34,left,no,300,leftarrow,494,true,focus,yes,951050,Chrome,111.0,Windows,10,undefined,undefined,1536 x 864,1536 x 864
S010,21,Vrouwelijk,Links,5,35,right,yes,300,rightarrow,325,false,focus,yes,952159,Chrome,111.0,Windows,10,undefined,undefined,1536 x 864,1536 x 864
S010,21,Vrouwelijk,Links,5,36,left,yes,250,undefined,null,true,focus,yes,954189,Chrome,111.0,Windows,10,undefined,undefined,1536 x 864,1536 x 864
S010,21,Vrouwelijk,Links,5,37,left,no,300,leftarrow,468,true,focus,yes,955426,Chrome,111.0,Windows,10,undefined,undefined,1536 x 864,1536 x 864
S010,21,Vrouwelijk,Links,5,38,left,no,300,leftarrow,436,true,focus,yes,956651,Chrome,111.0,Windows,10,undefined,undefined,1536 x 864,1536 x 864
S010,21,Vrouwelijk,Links,5,39,right,no,300,rightarrow,598,true,focus,yes,958025,Chrome,111.0,Windows,10,undefined,undefined,1536 x 864,1536 x 864
S010,21,Vrouwelijk,Links,5,40,right,no,300,rightarrow,715,true,focus,yes,959503,Chrome,111.0,Windows,10,undefined,undefined,1536 x 864,1536 x 864
S010,21,Vrouwelijk,Links,5,41,right,no,300,rightarrow,535,true,focus,yes,960815,Chrome,111.0,Windows,10,undefined,undefined,1536 x 864,1536 x 864
S010,21,Vrouwelijk,Links,5,42,left,no,300,leftarrow,713,true,focus,yes,962302,Chrome,111.0,Windows,10,undefined,undefined,1536 x 864,1536 x 864
S010,21,Vrouwelijk,Links,5,43,left,no,300,leftarrow,541,true,focus,yes,963621,Chrome,111.0,Windows,10,undefined,undefined,1536 x 864,1536 x 864
S010,21,Vrouwelijk,Links,5,44,right,yes,300,rightarrow,390,false,focus,yes,964789,Chrome,111.0,Windows,10,undefined,undefined,1536 x 864,1536 x 864
S010,21,Vrouwelijk,Links,5,45,right,no,250,rightarrow,433,true,focus,yes,965996,Chrome,111.0,Windows,10,undefined,undefined,1536 x 864,1536 x 864
S010,21,Vrouwelijk,Links,5,46,right,no,250,rightarrow,478,true,focus,yes,967256,Chrome,111.0,Windows,10,undefined,undefined,1536 x 864,1536 x 864
S010,21,Vrouwelijk,Links,5,47,left,yes,250,undefined,null,true,focus,yes,969277,Chrome,111.0,Windows,10,undefined,undefined,1536 x 864,1536 x 864
S010,21,Vrouwelijk,Links,5,48,left,no,300,leftarrow,849,true,focus,yes,970896,Chrome,111.0,Windows,10,undefined,undefined,1536 x 864,1536 x 864
S010,21,Vrouwelijk,Links,5,49,right,no,300,rightarrow,556,true,focus,yes,972234,Chrome,111.0,Windows,10,undefined,undefined,1536 x 864,1536 x 864
S010,21,Vrouwelijk,Links,5,50,right,no,300,rightarrow,355,true,focus,yes,973377,Chrome,111.0,Windows,10,undefined,undefined,1536 x 864,1536 x 864
S010,21,Vrouwelijk,Links,5,51,right,no,300,rightarrow,291,true,focus,yes,974444,Chrome,111.0,Windows,10,undefined,undefined,1536 x 864,1536 x 864
S010,21,Vrouwelijk,Links,5,52,left,no,300,leftarrow,433,true,focus,yes,975657,Chrome,111.0,Windows,10,undefined,undefined,1536 x 864,1536 x 864
S010,21,Vrouwelijk,Links,5,53,left,yes,300,undefined,null,true,focus,yes,977694,Chrome,111.0,Windows,10,undefined,undefined,1536 x 864,1536 x 864
S010,21,Vrouwelijk,Links,5,54,left,no,350,leftarrow,528,true,focus,yes,979002,Chrome,111.0,Windows,10,undefined,undefined,1536 x 864,1536 x 864
S010,21,Vrouwelijk,Links,5,55,right,yes,350,rightarrow,567,false,focus,yes,980348,Chrome,111.0,Windows,10,undefined,undefined,1536 x 864,1536 x 864
S010,21,Vrouwelijk,Links,5,56,left,no,300,leftarrow,737,true,focus,yes,981855,Chrome,111.0,Windows,10,undefined,undefined,1536 x 864,1536 x 864
S010,21,Vrouwelijk,Links,5,57,left,no,300,leftarrow,628,true,focus,yes,983257,Chrome,111.0,Windows,10,undefined,undefined,1536 x 864,1536 x 864
S010,21,Vrouwelijk,Links,5,58,left,yes,300,undefined,null,true,focus,yes,985293,Chrome,111.0,Windows,10,undefined,undefined,1536 x 864,1536 x 864
S010,21,Vrouwelijk,Links,5,59,left,no,350,leftarrow,573,true,focus,yes,986644,Chrome,111.0,Windows,10,undefined,undefined,1536 x 864,1536 x 864
S010,21,Vrouwelijk,Links,5,60,right,no,350,rightarrow,1093,true,focus,yes,988520,Chrome,111.0,Windows,10,undefined,undefined,1536 x 864,1536 x 864
S010,21,Vrouwelijk,Links,5,61,right,yes,350,rightarrow,416,false,focus,yes,989704,Chrome,111.0,Windows,10,undefined,undefined,1536 x 864,1536 x 864
S010,21,Vrouwelijk,Links,5,62,left,no,300,leftarrow,299,true,focus,yes,990779,Chrome,111.0,Windows,10,undefined,undefined,1536 x 864,1536 x 864
S010,21,Vrouwelijk,Links,5,63,right,no,300,rightarrow,358,true,focus,yes,991912,Chrome,111.0,Windows,10,undefined,undefined,1536 x 864,1536 x 864
S010,21,Vrouwelijk,Links,5,64,right,no,300,rightarrow,421,true,focus,yes,993116,Chrome,111.0,Windows,10,undefined,undefined,1536 x 864,1536 x 864
S010,21,Vrouwelijk,Links,5,65,right,no,300,rightarrow,343,true,focus,yes,994237,Chrome,111.0,Windows,10,undefined,undefined,1536 x 864,1536 x 864
S010,21,Vrouwelijk,Links,5,66,left,yes,300,leftarrow,444,false,focus,yes,995456,Chrome,111.0,Windows,10,undefined,undefined,1536 x 864,1536 x 864
S010,21,Vrouwelijk,Links,5,67,left,no,250,rightarrow,248,false,focus,yes,996480,Chrome,111.0,Windows,10,undefined,undefined,1536 x 864,1536 x 864
S010,21,Vrouwelijk,Links,5,68,left,no,250,rightarrow,599,false,focus,yes,997850,Chrome,111.0,Windows,10,undefined,undefined,1536 x 864,1536 x 864
S010,21,Vrouwelijk,Links,5,69,right,no,250,rightarrow,592,true,focus,yes,999223,Chrome,111.0,Windows,10,undefined,undefined,1536 x 864,1536 x 864
S010,21,Vrouwelijk,Links,5,70,right,yes,250,rightarrow,401,false,focus,yes,1000405,Chrome,111.0,Windows,10,undefined,undefined,1536 x 864,1536 x 864
S010,21,Vrouwelijk,Links,5,71,right,no,200,rightarrow,443,true,focus,yes,1001625,Chrome,111.0,Windows,10,undefined,undefined,1536 x 864,1536 x 864
S010,21,Vrouwelijk,Links,5,72,left,no,200,leftarrow,522,true,focus,yes,1002926,Chrome,111.0,Windows,10,undefined,undefined,1536 x 864,1536 x 864
S010,21,Vrouwelijk,Links,5,73,left,yes,200,undefined,null,true,focus,yes,1004976,Chrome,111.0,Windows,10,undefined,undefined,1536 x 864,1536 x 864
S010,21,Vrouwelijk,Links,5,74,left,no,250,leftarrow,662,true,focus,yes,1006417,Chrome,111.0,Windows,10,undefined,undefined,1536 x 864,1536 x 864
S010,21,Vrouwelijk,Links,5,75,right,yes,250,undefined,null,true,focus,yes,1008454,Chrome,111.0,Windows,10,undefined,undefined,1536 x 864,1536 x 864
S010,21,Vrouwelijk,Links,5,76,right,no,300,rightarrow,536,true,focus,yes,1009760,Chrome,111.0,Windows,10,undefined,undefined,1536 x 864,1536 x 864
S010,21,Vrouwelijk,Links,5,77,left,no,300,leftarrow,669,true,focus,yes,1011211,Chrome,111.0,Windows,10,undefined,undefined,1536 x 864,1536 x 864
S010,21,Vrouwelijk,Links,5,78,right,no,300,rightarrow,484,true,focus,yes,1012475,Chrome,111.0,Windows,10,undefined,undefined,1536 x 864,1536 x 864
S010,21,Vrouwelijk,Links,5,79,left,no,300,leftarrow,686,true,focus,yes,1013936,Chrome,111.0,Windows,10,undefined,undefined,1536 x 864,1536 x 864
S010,21,Vrouwelijk,Links,5,80,right,no,300,rightarrow,532,true,focus,yes,1015246,Chrome,111.0,Windows,10,undefined,undefined,1536 x 864,1536 x 864
S010,21,Vrouwelijk,Links,5,81,right,yes,300,rightarrow,389,false,focus,yes,1016409,Chrome,111.0,Windows,10,undefined,undefined,1536 x 864,1536 x 864
S010,21,Vrouwelijk,Links,5,82,right,no,250,rightarrow,426,true,focus,yes,1017613,Chrome,111.0,Windows,10,undefined,undefined,1536 x 864,1536 x 864
S010,21,Vrouwelijk,Links,5,83,left,no,250,leftarrow,808,true,focus,yes,1019209,Chrome,111.0,Windows,10,undefined,undefined,1536 x 864,1536 x 864
S010,21,Vrouwelijk,Links,5,84,left,no,250,leftarrow,620,true,focus,yes,1020609,Chrome,111.0,Windows,10,undefined,undefined,1536 x 864,1536 x 864
S010,21,Vrouwelijk,Links,5,85,right,no,250,rightarrow,540,true,focus,yes,1021926,Chrome,111.0,Windows,10,undefined,undefined,1536 x 864,1536 x 864
S010,21,Vrouwelijk,Links,5,86,left,yes,250,undefined,null,true,focus,yes,1023963,Chrome,111.0,Windows,10,undefined,undefined,1536 x 864,1536 x 864
S010,21,Vrouwelijk,Links,5,87,left,no,300,leftarrow,539,true,focus,yes,1025271,Chrome,111.0,Windows,10,undefined,undefined,1536 x 864,1536 x 864
S010,21,Vrouwelijk,Links,5,88,right,no,300,rightarrow,710,true,focus,yes,1026768,Chrome,111.0,Windows,10,undefined,undefined,1536 x 864,1536 x 864
S010,21,Vrouwelijk,Links,5,89,left,yes,300,leftarrow,533,false,focus,yes,1028085,Chrome,111.0,Windows,10,undefined,undefined,1536 x 864,1536 x 864
S010,21,Vrouwelijk,Links,5,90,right,no,250,rightarrow,429,true,focus,yes,1029301,Chrome,111.0,Windows,10,undefined,undefined,1536 x 864,1536 x 864
S010,21,Vrouwelijk,Links,5,91,right,no,250,leftarrow,761,false,focus,yes,1030847,Chrome,111.0,Windows,10,undefined,undefined,1536 x 864,1536 x 864
S010,21,Vrouwelijk,Links,5,92,left,no,250,leftarrow,470,true,focus,yes,1032098,Chrome,111.0,Windows,10,undefined,undefined,1536 x 864,1536 x 864
S010,21,Vrouwelijk,Links,5,93,left,no,250,leftarrow,487,true,focus,yes,1033358,Chrome,111.0,Windows,10,undefined,undefined,1536 x 864,1536 x 864
S010,21,Vrouwelijk,Links,5,94,left,no,250,leftarrow,596,true,focus,yes,1034741,Chrome,111.0,Windows,10,undefined,undefined,1536 x 864,1536 x 864
S010,21,Vrouwelijk,Links,5,95,right,no,250,rightarrow,433,true,focus,yes,1035960,Chrome,111.0,Windows,10,undefined,undefined,1536 x 864,1536 x 864
S010,21,Vrouwelijk,Links,5,96,right,yes,250,rightarrow,409,false,focus,yes,1037152,Chrome,111.0,Windows,10,undefined,undefined,1536 x 864,1536 x 864
S010,21,Vrouwelijk,Links,5,97,left,no,200,leftarrow,470,true,focus,yes,1038395,Chrome,111.0,Windows,10,undefined,undefined,1536 x 864,1536 x 864
S010,21,Vrouwelijk,Links,5,98,left,no,200,leftarrow,459,true,focus,yes,1039627,Chrome,111.0,Windows,10,undefined,undefined,1536 x 864,1536 x 864
S010,21,Vrouwelijk,Links,5,99,right,no,200,rightarrow,536,true,focus,yes,1040948,Chrome,111.0,Windows,10,undefined,undefined,1536 x 864,1536 x 864
S010,21,Vrouwelijk,Links,5,100,right,no,200,rightarrow,800,true,focus,yes,1042533,Chrome,111.0,Windows,10,undefined,undefined,1536 x 864,1536 x 864
S010,21,Vrouwelijk,Links,5,101,right,no,200,rightarrow,466,true,focus,yes,1043787,Chrome,111.0,Windows,10,undefined,undefined,1536 x 864,1536 x 864
S010,21,Vrouwelijk,Links,5,102,left,no,200,leftarrow,538,true,focus,yes,1045101,Chrome,111.0,Windows,10,undefined,undefined,1536 x 864,1536 x 864
S010,21,Vrouwelijk,Links,5,103,right,yes,200,undefined,null,true,focus,yes,1047142,Chrome,111.0,Windows,10,undefined,undefined,1536 x 864,1536 x 864
S010,21,Vrouwelijk,Links,5,104,left,yes,250,undefined,null,true,focus,yes,1049180,Chrome,111.0,Windows,10,undefined,undefined,1536 x 864,1536 x 864
S010,21,Vrouwelijk,Links,5,105,left,no,300,leftarrow,612,true,focus,yes,1050575,Chrome,111.0,Windows,10,undefined,undefined,1536 x 864,1536 x 864
S010,21,Vrouwelijk,Links,5,106,right,no,300,rightarrow,499,true,focus,yes,1051862,Chrome,111.0,Windows,10,undefined,undefined,1536 x 864,1536 x 864
S010,21,Vrouwelijk,Links,5,107,right,no,300,rightarrow,437,true,focus,yes,1053073,Chrome,111.0,Windows,10,undefined,undefined,1536 x 864,1536 x 864
S010,21,Vrouwelijk,Links,5,108,left,no,300,leftarrow,528,true,focus,yes,1054380,Chrome,111.0,Windows,10,undefined,undefined,1536 x 864,1536 x 864
S010,21,Vrouwelijk,Links,5,109,left,no,300,leftarrow,492,true,focus,yes,1055653,Chrome,111.0,Windows,10,undefined,undefined,1536 x 864,1536 x 864
S010,21,Vrouwelijk,Links,5,110,left,yes,300,undefined,null,true,focus,yes,1057693,Chrome,111.0,Windows,10,undefined,undefined,1536 x 864,1536 x 864
S010,21,Vrouwelijk,Links,5,111,right,yes,350,rightarrow,514,false,focus,yes,1058989,Chrome,111.0,Windows,10,undefined,undefined,1536 x 864,1536 x 864
S010,21,Vrouwelijk,Links,5,112,right,no,300,rightarrow,641,true,focus,yes,1060407,Chrome,111.0,Windows,10,undefined,undefined,1536 x 864,1536 x 864
S010,21,Vrouwelijk,Links,5,113,right,no,300,rightarrow,488,true,focus,yes,1061677,Chrome,111.0,Windows,10,undefined,undefined,1536 x 864,1536 x 864
S010,21,Vrouwelijk,Links,5,114,left,no,300,leftarrow,512,true,focus,yes,1062972,Chrome,111.0,Windows,10,undefined,undefined,1536 x 864,1536 x 864
S010,21,Vrouwelijk,Links,5,115,left,yes,300,undefined,null,true,focus,yes,1065004,Chrome,111.0,Windows,10,undefined,undefined,1536 x 864,1536 x 864
S010,21,Vrouwelijk,Links,5,116,right,no,350,rightarrow,731,true,focus,yes,1066518,Chrome,111.0,Windows,10,undefined,undefined,1536 x 864,1536 x 864
S010,21,Vrouwelijk,Links,5,117,right,no,350,rightarrow,523,true,focus,yes,1067815,Chrome,111.0,Windows,10,undefined,undefined,1536 x 864,1536 x 864
S010,21,Vrouwelijk,Links,5,118,right,yes,350,rightarrow,424,false,focus,yes,1069018,Chrome,111.0,Windows,10,undefined,undefined,1536 x 864,1536 x 864
S010,21,Vrouwelijk,Links,5,119,left,no,300,leftarrow,361,true,focus,yes,1070155,Chrome,111.0,Windows,10,undefined,undefined,1536 x 864,1536 x 864
S010,21,Vrouwelijk,Links,5,120,left,no,300,leftarrow,384,true,focus,yes,1071316,Chrome,111.0,Windows,10,undefined,undefined,1536 x 864,1536 x 864
S010,21,Vrouwelijk,Links,5,121,right,no,300,rightarrow,431,true,focus,yes,1072529,Chrome,111.0,Windows,10,undefined,undefined,1536 x 864,1536 x 864
S010,21,Vrouwelijk,Links,5,122,left,no,300,leftarrow,448,true,focus,yes,1073754,Chrome,111.0,Windows,10,undefined,undefined,1536 x 864,1536 x 864
S010,21,Vrouwelijk,Links,5,123,left,no,300,leftarrow,526,true,focus,yes,1075057,Chrome,111.0,Windows,10,undefined,undefined,1536 x 864,1536 x 864
S010,21,Vrouwelijk,Links,5,124,right,no,300,rightarrow,572,true,focus,yes,1076410,Chrome,111.0,Windows,10,undefined,undefined,1536 x 864,1536 x 864
S010,21,Vrouwelijk,Links,5,125,left,yes,300,leftarrow,435,false,focus,yes,1077626,Chrome,111.0,Windows,10,undefined,undefined,1536 x 864,1536 x 864
S010,21,Vrouwelijk,Links,5,126,right,no,250,rightarrow,320,true,focus,yes,1078722,Chrome,111.0,Windows,10,undefined,undefined,1536 x 864,1536 x 864
S010,21,Vrouwelijk,Links,5,127,left,no,250,leftarrow,337,true,focus,yes,1079844,Chrome,111.0,Windows,10,undefined,undefined,1536 x 864,1536 x 864
S010,21,Vrouwelijk,Links,5,128,right,yes,250,rightarrow,348,false,focus,yes,1080977,Chrome,111.0,Windows,10,undefined,undefined,1536 x 864,1536 x 864
S010,21,Vrouwelijk,Links,6,1,right,no,200,rightarrow,486,true,focus,yes,1100402,Chrome,111.0,Windows,10,undefined,undefined,1536 x 864,1536 x 864
S010,21,Vrouwelijk,Links,6,2,left,no,200,leftarrow,493,true,focus,yes,1101675,Chrome,111.0,Windows,10,undefined,undefined,1536 x 864,1536 x 864
S010,21,Vrouwelijk,Links,6,3,right,no,200,rightarrow,586,true,focus,yes,1103042,Chrome,111.0,Windows,10,undefined,undefined,1536 x 864,1536 x 864
S010,21,Vrouwelijk,Links,6,4,left,yes,200,leftarrow,362,false,focus,yes,1104185,Chrome,111.0,Windows,10,undefined,undefined,1536 x 864,1536 x 864
S010,21,Vrouwelijk,Links,6,5,left,no,150,leftarrow,901,true,focus,yes,1105862,Chrome,111.0,Windows,10,undefined,undefined,1536 x 864,1536 x 864
S010,21,Vrouwelijk,Links,6,6,right,no,150,rightarrow,414,true,focus,yes,1107053,Chrome,111.0,Windows,10,undefined,undefined,1536 x 864,1536 x 864
S010,21,Vrouwelijk,Links,6,7,right,yes,150,undefined,null,true,focus,yes,1109090,Chrome,111.0,Windows,10,undefined,undefined,1536 x 864,1536 x 864
S010,21,Vrouwelijk,Links,6,8,left,no,200,leftarrow,439,true,focus,yes,1110312,Chrome,111.0,Windows,10,undefined,undefined,1536 x 864,1536 x 864
S010,21,Vrouwelijk,Links,6,9,right,no,200,rightarrow,484,true,focus,yes,1111571,Chrome,111.0,Windows,10,undefined,undefined,1536 x 864,1536 x 864
S010,21,Vrouwelijk,Links,6,10,left,no,200,leftarrow,412,true,focus,yes,1112757,Chrome,111.0,Windows,10,undefined,undefined,1536 x 864,1536 x 864
S010,21,Vrouwelijk,Links,6,11,left,no,200,leftarrow,484,true,focus,yes,1114024,Chrome,111.0,Windows,10,undefined,undefined,1536 x 864,1536 x 864
S010,21,Vrouwelijk,Links,6,12,right,no,200,rightarrow,402,true,focus,yes,1115203,Chrome,111.0,Windows,10,undefined,undefined,1536 x 864,1536 x 864
S010,21,Vrouwelijk,Links,6,13,left,no,200,leftarrow,499,true,focus,yes,1116482,Chrome,111.0,Windows,10,undefined,undefined,1536 x 864,1536 x 864
S010,21,Vrouwelijk,Links,6,14,right,yes,200,undefined,null,true,focus,yes,1118518,Chrome,111.0,Windows,10,undefined,undefined,1536 x 864,1536 x 864
S010,21,Vrouwelijk,Links,6,15,left,yes,250,leftarrow,411,false,focus,yes,1119698,Chrome,111.0,Windows,10,undefined,undefined,1536 x 864,1536 x 864
S010,21,Vrouwelijk,Links,6,16,right,no,200,rightarrow,579,true,focus,yes,1121064,Chrome,111.0,Windows,10,undefined,undefined,1536 x 864,1536 x 864
S010,21,Vrouwelijk,Links,6,17,right,no,200,rightarrow,478,true,focus,yes,1122316,Chrome,111.0,Windows,10,undefined,undefined,1536 x 864,1536 x 864
S010,21,Vrouwelijk,Links,6,18,left,no,200,leftarrow,638,true,focus,yes,1123735,Chrome,111.0,Windows,10,undefined,undefined,1536 x 864,1536 x 864
S010,21,Vrouwelijk,Links,6,19,right,no,200,rightarrow,577,true,focus,yes,1125094,Chrome,111.0,Windows,10,undefined,undefined,1536 x 864,1536 x 864
S010,21,Vrouwelijk,Links,6,20,left,yes,200,undefined,null,true,focus,yes,1127139,Chrome,111.0,Windows,10,undefined,undefined,1536 x 864,1536 x 864
S010,21,Vrouwelijk,Links,6,21,left,no,250,leftarrow,516,true,focus,yes,1128424,Chrome,111.0,Windows,10,undefined,undefined,1536 x 864,1536 x 864
S010,21,Vrouwelijk,Links,6,22,left,no,250,leftarrow,426,true,focus,yes,1129637,Chrome,111.0,Windows,10,undefined,undefined,1536 x 864,1536 x 864
S010,21,Vrouwelijk,Links,6,23,right,no,250,rightarrow,461,true,focus,yes,1130884,Chrome,111.0,Windows,10,undefined,undefined,1536 x 864,1536 x 864
S010,21,Vrouwelijk,Links,6,24,right,yes,250,undefined,null,true,focus,yes,1132923,Chrome,111.0,Windows,10,undefined,undefined,1536 x 864,1536 x 864
S010,21,Vrouwelijk,Links,6,25,left,no,300,leftarrow,616,true,focus,yes,1134308,Chrome,111.0,Windows,10,undefined,undefined,1536 x 864,1536 x 864
S010,21,Vrouwelijk,Links,6,26,right,no,300,rightarrow,423,true,focus,yes,1135509,Chrome,111.0,Windows,10,undefined,undefined,1536 x 864,1536 x 864
S010,21,Vrouwelijk,Links,6,27,left,no,300,leftarrow,387,true,focus,yes,1136671,Chrome,111.0,Windows,10,undefined,undefined,1536 x 864,1536 x 864
S010,21,Vrouwelijk,Links,6,28,right,yes,300,rightarrow,417,false,focus,yes,1137863,Chrome,111.0,Windows,10,undefined,undefined,1536 x 864,1536 x 864
S010,21,Vrouwelijk,Links,6,29,left,no,250,leftarrow,276,true,focus,yes,1138919,Chrome,111.0,Windows,10,undefined,undefined,1536 x 864,1536 x 864
S010,21,Vrouwelijk,Links,6,30,left,yes,250,undefined,null,true,focus,yes,1140952,Chrome,111.0,Windows,10,undefined,undefined,1536 x 864,1536 x 864
S010,21,Vrouwelijk,Links,6,31,right,no,300,rightarrow,421,true,focus,yes,1142154,Chrome,111.0,Windows,10,undefined,undefined,1536 x 864,1536 x 864
S010,21,Vrouwelijk,Links,6,32,right,no,300,rightarrow,371,true,focus,yes,1143299,Chrome,111.0,Windows,10,undefined,undefined,1536 x 864,1536 x 864
S010,21,Vrouwelijk,Links,6,33,left,no,300,leftarrow,525,true,focus,yes,1144605,Chrome,111.0,Windows,10,undefined,undefined,1536 x 864,1536 x 864
S010,21,Vrouwelijk,Links,6,34,right,no,300,rightarrow,458,true,focus,yes,1145846,Chrome,111.0,Windows,10,undefined,undefined,1536 x 864,1536 x 864
S010,21,Vrouwelijk,Links,6,35,right,no,300,rightarrow,555,true,focus,yes,1147189,Chrome,111.0,Windows,10,undefined,undefined,1536 x 864,1536 x 864
S010,21,Vrouwelijk,Links,6,36,left,no,300,leftarrow,421,true,focus,yes,1148397,Chrome,111.0,Windows,10,undefined,undefined,1536 x 864,1536 x 864
