participantID;age;gender;handedness;block_i;trial_i;stim;signal;SSD;response;rt;correct;focus;Fullscreen;time_elapsed;browser_name;browser_version;os_name;os_version;tablet;mobile;screen_resolution;window_resolution
H004;52;Mannelijk;Links;0;1;right;no;200;rightarrow;721;true;focus;yes;79540;Chrome;113.0;Windows;10;undefined;undefined;2560 x 1440;2560 x 1440
H004;52;Mannelijk;Links;0;2;right;no;200;rightarrow;677;true;focus;yes;81755;Chrome;113.0;Windows;10;undefined;undefined;2560 x 1440;2560 x 1440
H004;52;Mannelijk;Links;0;3;left;no;200;leftarrow;592;true;focus;yes;83883;Chrome;113.0;Windows;10;undefined;undefined;2560 x 1440;2560 x 1440
H004;52;Mannelijk;Links;0;4;right;no;200;rightarrow;453;true;focus;yes;85878;Chrome;113.0;Windows;10;undefined;undefined;2560 x 1440;2560 x 1440
H004;52;Mannelijk;Links;0;5;left;yes;200;leftarrow;395;false;focus;yes;87816;Chrome;113.0;Windows;10;undefined;undefined;2560 x 1440;2560 x 1440
H004;52;Mannelijk;Links;0;6;right;yes;150;undefined;null;true;focus;yes;90617;Chrome;113.0;Windows;10;undefined;undefined;2560 x 1440;2560 x 1440
H004;52;Mannelijk;Links;0;7;left;no;200;undefined;null;false;focus;yes;93404;Chrome;113.0;Windows;10;undefined;undefined;2560 x 1440;2560 x 1440
H004;52;Mannelijk;Links;0;8;left;no;200;leftarrow;614;true;focus;yes;95564;Chrome;113.0;Windows;10;undefined;undefined;2560 x 1440;2560 x 1440
H004;52;Mannelijk;Links;1;1;left;no;200;leftarrow;602;true;focus;yes;115916;Chrome;113.0;Windows;10;undefined;undefined;2560 x 1440;2560 x 1440
H004;52;Mannelijk;Links;1;2;right;no;200;rightarrow;503;true;focus;yes;117199;Chrome;113.0;Windows;10;undefined;undefined;2560 x 1440;2560 x 1440
H004;52;Mannelijk;Links;1;3;right;no;200;rightarrow;546;true;focus;yes;118517;Chrome;113.0;Windows;10;undefined;undefined;2560 x 1440;2560 x 1440
H004;52;Mannelijk;Links;1;4;left;no;200;leftarrow;479;true;focus;yes;119775;Chrome;113.0;Windows;10;undefined;undefined;2560 x 1440;2560 x 1440
H004;52;Mannelijk;Links;1;5;left;no;200;leftarrow;543;true;focus;yes;121099;Chrome;113.0;Windows;10;undefined;undefined;2560 x 1440;2560 x 1440
H004;52;Mannelijk;Links;1;6;left;yes;200;undefined;null;true;focus;yes;123138;Chrome;113.0;Windows;10;undefined;undefined;2560 x 1440;2560 x 1440
H004;52;Mannelijk;Links;1;7;right;no;250;rightarrow;480;true;focus;yes;124398;Chrome;113.0;Windows;10;undefined;undefined;2560 x 1440;2560 x 1440
H004;52;Mannelijk;Links;1;8;right;yes;250;undefined;null;true;focus;yes;126429;Chrome;113.0;Windows;10;undefined;undefined;2560 x 1440;2560 x 1440
H004;52;Mannelijk;Links;1;9;right;no;300;rightarrow;847;true;focus;yes;128057;Chrome;113.0;Windows;10;undefined;undefined;2560 x 1440;2560 x 1440
H004;52;Mannelijk;Links;1;10;left;yes;300;leftarrow;546;false;focus;yes;129376;Chrome;113.0;Windows;10;undefined;undefined;2560 x 1440;2560 x 1440
H004;52;Mannelijk;Links;1;11;left;no;250;leftarrow;851;true;focus;yes;131007;Chrome;113.0;Windows;10;undefined;undefined;2560 x 1440;2560 x 1440
H004;52;Mannelijk;Links;1;12;left;no;250;leftarrow;774;true;focus;yes;132550;Chrome;113.0;Windows;10;undefined;undefined;2560 x 1440;2560 x 1440
H004;52;Mannelijk;Links;1;13;right;no;250;rightarrow;791;true;focus;yes;134107;Chrome;113.0;Windows;10;undefined;undefined;2560 x 1440;2560 x 1440
H004;52;Mannelijk;Links;1;14;right;no;250;rightarrow;837;true;focus;yes;135709;Chrome;113.0;Windows;10;undefined;undefined;2560 x 1440;2560 x 1440
H004;52;Mannelijk;Links;1;15;right;yes;250;undefined;null;true;focus;yes;137728;Chrome;113.0;Windows;10;undefined;undefined;2560 x 1440;2560 x 1440
H004;52;Mannelijk;Links;1;16;left;no;300;leftarrow;625;true;focus;yes;139134;Chrome;113.0;Windows;10;undefined;undefined;2560 x 1440;2560 x 1440
H004;52;Mannelijk;Links;1;17;right;no;300;rightarrow;914;true;focus;yes;140824;Chrome;113.0;Windows;10;undefined;undefined;2560 x 1440;2560 x 1440
H004;52;Mannelijk;Links;1;18;right;yes;300;undefined;null;true;focus;yes;142859;Chrome;113.0;Windows;10;undefined;undefined;2560 x 1440;2560 x 1440
H004;52;Mannelijk;Links;1;19;left;no;350;leftarrow;573;true;focus;yes;144212;Chrome;113.0;Windows;10;undefined;undefined;2560 x 1440;2560 x 1440
H004;52;Mannelijk;Links;1;20;left;no;350;leftarrow;924;true;focus;yes;145903;Chrome;113.0;Windows;10;undefined;undefined;2560 x 1440;2560 x 1440
H004;52;Mannelijk;Links;1;21;right;no;350;rightarrow;829;true;focus;yes;147508;Chrome;113.0;Windows;10;undefined;undefined;2560 x 1440;2560 x 1440
H004;52;Mannelijk;Links;1;22;left;no;350;leftarrow;926;true;focus;yes;149198;Chrome;113.0;Windows;10;undefined;undefined;2560 x 1440;2560 x 1440
H004;52;Mannelijk;Links;1;23;right;no;350;rightarrow;1074;true;focus;yes;151044;Chrome;113.0;Windows;10;undefined;undefined;2560 x 1440;2560 x 1440
H004;52;Mannelijk;Links;1;24;left;yes;350;undefined;null;true;focus;yes;153077;Chrome;113.0;Windows;10;undefined;undefined;2560 x 1440;2560 x 1440
H004;52;Mannelijk;Links;1;25;left;no;400;leftarrow;663;true;focus;yes;154520;Chrome;113.0;Windows;10;undefined;undefined;2560 x 1440;2560 x 1440
H004;52;Mannelijk;Links;1;26;right;no;400;rightarrow;917;true;focus;yes;156193;Chrome;113.0;Windows;10;undefined;undefined;2560 x 1440;2560 x 1440
H004;52;Mannelijk;Links;1;27;right;yes;400;undefined;null;true;focus;yes;158231;Chrome;113.0;Windows;10;undefined;undefined;2560 x 1440;2560 x 1440
H004;52;Mannelijk;Links;1;28;right;no;450;rightarrow;879;true;focus;yes;159877;Chrome;113.0;Windows;10;undefined;undefined;2560 x 1440;2560 x 1440
H004;52;Mannelijk;Links;1;29;left;no;450;leftarrow;966;true;focus;yes;161617;Chrome;113.0;Windows;10;undefined;undefined;2560 x 1440;2560 x 1440
H004;52;Mannelijk;Links;1;30;left;no;450;leftarrow;1012;true;focus;yes;163412;Chrome;113.0;Windows;10;undefined;undefined;2560 x 1440;2560 x 1440
H004;52;Mannelijk;Links;1;31;right;no;450;rightarrow;872;true;focus;yes;165064;Chrome;113.0;Windows;10;undefined;undefined;2560 x 1440;2560 x 1440
H004;52;Mannelijk;Links;1;32;left;yes;450;undefined;null;true;focus;yes;167106;Chrome;113.0;Windows;10;undefined;undefined;2560 x 1440;2560 x 1440
H004;52;Mannelijk;Links;1;33;left;no;500;leftarrow;987;true;focus;yes;168859;Chrome;113.0;Windows;10;undefined;undefined;2560 x 1440;2560 x 1440
H004;52;Mannelijk;Links;1;34;left;no;500;leftarrow;903;true;focus;yes;170524;Chrome;113.0;Windows;10;undefined;undefined;2560 x 1440;2560 x 1440
H004;52;Mannelijk;Links;1;35;left;no;500;leftarrow;890;true;focus;yes;172193;Chrome;113.0;Windows;10;undefined;undefined;2560 x 1440;2560 x 1440
H004;52;Mannelijk;Links;1;36;right;yes;500;undefined;null;true;focus;yes;174211;Chrome;113.0;Windows;10;undefined;undefined;2560 x 1440;2560 x 1440
H004;52;Mannelijk;Links;1;37;right;no;550;rightarrow;965;true;focus;yes;175957;Chrome;113.0;Windows;10;undefined;undefined;2560 x 1440;2560 x 1440
H004;52;Mannelijk;Links;1;38;left;yes;550;undefined;null;true;focus;yes;177994;Chrome;113.0;Windows;10;undefined;undefined;2560 x 1440;2560 x 1440
H004;52;Mannelijk;Links;1;39;right;no;600;rightarrow;899;true;focus;yes;179672;Chrome;113.0;Windows;10;undefined;undefined;2560 x 1440;2560 x 1440
H004;52;Mannelijk;Links;1;40;right;no;600;rightarrow;978;true;focus;yes;181418;Chrome;113.0;Windows;10;undefined;undefined;2560 x 1440;2560 x 1440
H004;52;Mannelijk;Links;1;41;left;yes;600;undefined;null;true;focus;yes;183452;Chrome;113.0;Windows;10;undefined;undefined;2560 x 1440;2560 x 1440
H004;52;Mannelijk;Links;1;42;right;no;650;rightarrow;637;true;focus;yes;184852;Chrome;113.0;Windows;10;undefined;undefined;2560 x 1440;2560 x 1440
H004;52;Mannelijk;Links;1;43;left;no;650;undefined;null;false;focus;yes;186870;Chrome;113.0;Windows;10;undefined;undefined;2560 x 1440;2560 x 1440
H004;52;Mannelijk;Links;1;44;left;no;650;undefined;null;false;focus;yes;188912;Chrome;113.0;Windows;10;undefined;undefined;2560 x 1440;2560 x 1440
H004;52;Mannelijk;Links;1;45;right;no;650;rightarrow;1184;true;focus;yes;190877;Chrome;113.0;Windows;10;undefined;undefined;2560 x 1440;2560 x 1440
H004;52;Mannelijk;Links;1;46;right;yes;650;undefined;null;true;focus;yes;192922;Chrome;113.0;Windows;10;undefined;undefined;2560 x 1440;2560 x 1440
H004;52;Mannelijk;Links;1;47;left;no;700;leftarrow;992;true;focus;yes;194695;Chrome;113.0;Windows;10;undefined;undefined;2560 x 1440;2560 x 1440
H004;52;Mannelijk;Links;1;48;right;no;700;rightarrow;899;true;focus;yes;196364;Chrome;113.0;Windows;10;undefined;undefined;2560 x 1440;2560 x 1440
H004;52;Mannelijk;Links;1;49;left;no;700;leftarrow;1052;true;focus;yes;198183;Chrome;113.0;Windows;10;undefined;undefined;2560 x 1440;2560 x 1440
H004;52;Mannelijk;Links;1;50;right;no;700;rightarrow;1125;true;focus;yes;200075;Chrome;113.0;Windows;10;undefined;undefined;2560 x 1440;2560 x 1440
H004;52;Mannelijk;Links;1;51;right;no;700;rightarrow;999;true;focus;yes;201845;Chrome;113.0;Windows;10;undefined;undefined;2560 x 1440;2560 x 1440
H004;52;Mannelijk;Links;1;52;left;no;700;leftarrow;1009;true;focus;yes;203622;Chrome;113.0;Windows;10;undefined;undefined;2560 x 1440;2560 x 1440
H004;52;Mannelijk;Links;1;53;left;yes;700;undefined;null;true;focus;yes;205643;Chrome;113.0;Windows;10;undefined;undefined;2560 x 1440;2560 x 1440
H004;52;Mannelijk;Links;1;54;left;no;750;leftarrow;997;true;focus;yes;207423;Chrome;113.0;Windows;10;undefined;undefined;2560 x 1440;2560 x 1440
H004;52;Mannelijk;Links;1;55;right;yes;750;undefined;null;true;focus;yes;209450;Chrome;113.0;Windows;10;undefined;undefined;2560 x 1440;2560 x 1440
H004;52;Mannelijk;Links;1;56;right;no;800;rightarrow;958;true;focus;yes;211173;Chrome;113.0;Windows;10;undefined;undefined;2560 x 1440;2560 x 1440
H004;52;Mannelijk;Links;1;57;left;no;800;leftarrow;1062;true;focus;yes;213010;Chrome;113.0;Windows;10;undefined;undefined;2560 x 1440;2560 x 1440
H004;52;Mannelijk;Links;1;58;right;no;800;rightarrow;1092;true;focus;yes;214866;Chrome;113.0;Windows;10;undefined;undefined;2560 x 1440;2560 x 1440
H004;52;Mannelijk;Links;1;59;left;no;800;leftarrow;1011;true;focus;yes;216648;Chrome;113.0;Windows;10;undefined;undefined;2560 x 1440;2560 x 1440
H004;52;Mannelijk;Links;1;60;right;yes;800;rightarrow;1077;false;focus;yes;218507;Chrome;113.0;Windows;10;undefined;undefined;2560 x 1440;2560 x 1440
H004;52;Mannelijk;Links;1;61;right;no;750;rightarrow;980;true;focus;yes;220253;Chrome;113.0;Windows;10;undefined;undefined;2560 x 1440;2560 x 1440
H004;52;Mannelijk;Links;1;62;right;no;750;rightarrow;1213;true;focus;yes;222245;Chrome;113.0;Windows;10;undefined;undefined;2560 x 1440;2560 x 1440
H004;52;Mannelijk;Links;1;63;left;yes;750;leftarrow;939;false;focus;yes;223937;Chrome;113.0;Windows;10;undefined;undefined;2560 x 1440;2560 x 1440
H004;52;Mannelijk;Links;1;64;left;no;700;undefined;null;false;focus;yes;225973;Chrome;113.0;Windows;10;undefined;undefined;2560 x 1440;2560 x 1440
H004;52;Mannelijk;Links;1;65;left;no;700;undefined;null;false;focus;yes;227997;Chrome;113.0;Windows;10;undefined;undefined;2560 x 1440;2560 x 1440
H004;52;Mannelijk;Links;1;66;left;yes;700;undefined;null;true;focus;yes;230041;Chrome;113.0;Windows;10;undefined;undefined;2560 x 1440;2560 x 1440
H004;52;Mannelijk;Links;1;67;left;no;750;leftarrow;1154;true;focus;yes;231960;Chrome;113.0;Windows;10;undefined;undefined;2560 x 1440;2560 x 1440
H004;52;Mannelijk;Links;1;68;right;no;750;rightarrow;1222;true;focus;yes;233962;Chrome;113.0;Windows;10;undefined;undefined;2560 x 1440;2560 x 1440
H004;52;Mannelijk;Links;1;69;right;no;750;rightarrow;1159;true;focus;yes;235883;Chrome;113.0;Windows;10;undefined;undefined;2560 x 1440;2560 x 1440
H004;52;Mannelijk;Links;1;70;left;no;750;undefined;null;false;focus;yes;237917;Chrome;113.0;Windows;10;undefined;undefined;2560 x 1440;2560 x 1440
H004;52;Mannelijk;Links;1;71;right;yes;750;undefined;null;true;focus;yes;239955;Chrome;113.0;Windows;10;undefined;undefined;2560 x 1440;2560 x 1440
H004;52;Mannelijk;Links;1;72;right;no;800;rightarrow;1071;true;focus;yes;241791;Chrome;113.0;Windows;10;undefined;undefined;2560 x 1440;2560 x 1440
H004;52;Mannelijk;Links;1;73;left;no;800;leftarrow;1242;true;focus;yes;243788;Chrome;113.0;Windows;10;undefined;undefined;2560 x 1440;2560 x 1440
H004;52;Mannelijk;Links;1;74;right;no;800;rightarrow;1209;true;focus;yes;245774;Chrome;113.0;Windows;10;undefined;undefined;2560 x 1440;2560 x 1440
H004;52;Mannelijk;Links;1;75;right;yes;800;undefined;null;true;focus;yes;247789;Chrome;113.0;Windows;10;undefined;undefined;2560 x 1440;2560 x 1440
H004;52;Mannelijk;Links;1;76;left;no;850;leftarrow;1220;true;focus;yes;249774;Chrome;113.0;Windows;10;undefined;undefined;2560 x 1440;2560 x 1440
H004;52;Mannelijk;Links;1;77;left;no;850;leftarrow;1170;true;focus;yes;251708;Chrome;113.0;Windows;10;undefined;undefined;2560 x 1440;2560 x 1440
H004;52;Mannelijk;Links;1;78;left;yes;850;leftarrow;1125;false;focus;yes;253613;Chrome;113.0;Windows;10;undefined;undefined;2560 x 1440;2560 x 1440
H004;52;Mannelijk;Links;1;79;right;no;800;rightarrow;967;true;focus;yes;255356;Chrome;113.0;Windows;10;undefined;undefined;2560 x 1440;2560 x 1440
H004;52;Mannelijk;Links;1;80;right;no;800;rightarrow;1256;true;focus;yes;257366;Chrome;113.0;Windows;10;undefined;undefined;2560 x 1440;2560 x 1440
H004;52;Mannelijk;Links;1;81;right;yes;800;undefined;null;true;focus;yes;259402;Chrome;113.0;Windows;10;undefined;undefined;2560 x 1440;2560 x 1440
H004;52;Mannelijk;Links;1;82;right;no;850;rightarrow;997;true;focus;yes;261178;Chrome;113.0;Windows;10;undefined;undefined;2560 x 1440;2560 x 1440
H004;52;Mannelijk;Links;1;83;left;yes;850;leftarrow;983;false;focus;yes;262914;Chrome;113.0;Windows;10;undefined;undefined;2560 x 1440;2560 x 1440
H004;52;Mannelijk;Links;1;84;right;no;800;rightarrow;1227;true;focus;yes;264901;Chrome;113.0;Windows;10;undefined;undefined;2560 x 1440;2560 x 1440
H004;52;Mannelijk;Links;1;85;left;no;800;leftarrow;1147;true;focus;yes;266829;Chrome;113.0;Windows;10;undefined;undefined;2560 x 1440;2560 x 1440
H004;52;Mannelijk;Links;1;86;left;no;800;leftarrow;1211;true;focus;yes;268809;Chrome;113.0;Windows;10;undefined;undefined;2560 x 1440;2560 x 1440
H004;52;Mannelijk;Links;1;87;left;no;800;undefined;null;false;focus;yes;270845;Chrome;113.0;Windows;10;undefined;undefined;2560 x 1440;2560 x 1440
H004;52;Mannelijk;Links;1;88;right;no;800;rightarrow;1244;true;focus;yes;272866;Chrome;113.0;Windows;10;undefined;undefined;2560 x 1440;2560 x 1440
H004;52;Mannelijk;Links;1;89;left;yes;800;undefined;null;true;focus;yes;274891;Chrome;113.0;Windows;10;undefined;undefined;2560 x 1440;2560 x 1440
H004;52;Mannelijk;Links;1;90;left;no;850;leftarrow;1147;true;focus;yes;276816;Chrome;113.0;Windows;10;undefined;undefined;2560 x 1440;2560 x 1440
H004;52;Mannelijk;Links;1;91;left;no;850;undefined;null;false;focus;yes;278844;Chrome;113.0;Windows;10;undefined;undefined;2560 x 1440;2560 x 1440
H004;52;Mannelijk;Links;1;92;right;no;850;undefined;null;false;focus;yes;280882;Chrome;113.0;Windows;10;undefined;undefined;2560 x 1440;2560 x 1440
H004;52;Mannelijk;Links;1;93;right;no;850;undefined;null;false;focus;yes;282929;Chrome;113.0;Windows;10;undefined;undefined;2560 x 1440;2560 x 1440
H004;52;Mannelijk;Links;1;94;right;yes;850;undefined;null;true;focus;yes;284956;Chrome;113.0;Windows;10;undefined;undefined;2560 x 1440;2560 x 1440
H004;52;Mannelijk;Links;1;95;left;no;900;leftarrow;1174;true;focus;yes;286895;Chrome;113.0;Windows;10;undefined;undefined;2560 x 1440;2560 x 1440
H004;52;Mannelijk;Links;1;96;right;no;900;undefined;null;false;focus;yes;288913;Chrome;113.0;Windows;10;undefined;undefined;2560 x 1440;2560 x 1440
H004;52;Mannelijk;Links;1;97;left;no;900;undefined;null;false;focus;yes;290933;Chrome;113.0;Windows;10;undefined;undefined;2560 x 1440;2560 x 1440
H004;52;Mannelijk;Links;1;98;left;no;900;leftarrow;1211;true;focus;yes;292924;Chrome;113.0;Windows;10;undefined;undefined;2560 x 1440;2560 x 1440
H004;52;Mannelijk;Links;1;99;left;yes;900;undefined;null;true;focus;yes;294957;Chrome;113.0;Windows;10;undefined;undefined;2560 x 1440;2560 x 1440
H004;52;Mannelijk;Links;1;100;right;yes;950;rightarrow;1009;false;focus;yes;296719;Chrome;113.0;Windows;10;undefined;undefined;2560 x 1440;2560 x 1440
H004;52;Mannelijk;Links;1;101;left;no;900;undefined;null;false;focus;yes;298754;Chrome;113.0;Windows;10;undefined;undefined;2560 x 1440;2560 x 1440
H004;52;Mannelijk;Links;1;102;right;no;900;undefined;null;false;focus;yes;300784;Chrome;113.0;Windows;10;undefined;undefined;2560 x 1440;2560 x 1440
H004;52;Mannelijk;Links;1;103;right;no;900;rightarrow;1217;true;focus;yes;302769;Chrome;113.0;Windows;10;undefined;undefined;2560 x 1440;2560 x 1440
H004;52;Mannelijk;Links;1;104;right;no;900;undefined;null;false;focus;yes;304810;Chrome;113.0;Windows;10;undefined;undefined;2560 x 1440;2560 x 1440
H004;52;Mannelijk;Links;1;105;right;no;900;undefined;null;false;focus;yes;306840;Chrome;113.0;Windows;10;undefined;undefined;2560 x 1440;2560 x 1440
H004;52;Mannelijk;Links;1;106;right;yes;900;rightarrow;885;false;focus;yes;308493;Chrome;113.0;Windows;10;undefined;undefined;2560 x 1440;2560 x 1440
H004;52;Mannelijk;Links;1;107;left;no;850;leftarrow;934;true;focus;yes;310205;Chrome;113.0;Windows;10;undefined;undefined;2560 x 1440;2560 x 1440
H004;52;Mannelijk;Links;1;108;left;no;850;leftarrow;947;true;focus;yes;311921;Chrome;113.0;Windows;10;undefined;undefined;2560 x 1440;2560 x 1440
H004;52;Mannelijk;Links;1;109;right;no;850;rightarrow;958;true;focus;yes;313648;Chrome;113.0;Windows;10;undefined;undefined;2560 x 1440;2560 x 1440
H004;52;Mannelijk;Links;1;110;left;yes;850;undefined;null;true;focus;yes;315661;Chrome;113.0;Windows;10;undefined;undefined;2560 x 1440;2560 x 1440
H004;52;Mannelijk;Links;1;111;left;no;900;leftarrow;723;true;focus;yes;317149;Chrome;113.0;Windows;10;undefined;undefined;2560 x 1440;2560 x 1440
H004;52;Mannelijk;Links;1;112;right;no;900;rightarrow;1016;true;focus;yes;318923;Chrome;113.0;Windows;10;undefined;undefined;2560 x 1440;2560 x 1440
H004;52;Mannelijk;Links;1;113;left;no;900;leftarrow;1180;true;focus;yes;320866;Chrome;113.0;Windows;10;undefined;undefined;2560 x 1440;2560 x 1440
H004;52;Mannelijk;Links;1;114;left;no;900;leftarrow;1055;true;focus;yes;322690;Chrome;113.0;Windows;10;undefined;undefined;2560 x 1440;2560 x 1440
H004;52;Mannelijk;Links;1;115;right;yes;900;rightarrow;920;false;focus;yes;324382;Chrome;113.0;Windows;10;undefined;undefined;2560 x 1440;2560 x 1440
H004;52;Mannelijk;Links;1;116;left;no;850;leftarrow;730;true;focus;yes;325879;Chrome;113.0;Windows;10;undefined;undefined;2560 x 1440;2560 x 1440
H004;52;Mannelijk;Links;1;117;right;no;850;rightarrow;1126;true;focus;yes;327761;Chrome;113.0;Windows;10;undefined;undefined;2560 x 1440;2560 x 1440
H004;52;Mannelijk;Links;1;118;right;no;850;rightarrow;1167;true;focus;yes;329706;Chrome;113.0;Windows;10;undefined;undefined;2560 x 1440;2560 x 1440
H004;52;Mannelijk;Links;1;119;right;no;850;undefined;null;false;focus;yes;331740;Chrome;113.0;Windows;10;undefined;undefined;2560 x 1440;2560 x 1440
H004;52;Mannelijk;Links;1;120;left;yes;850;undefined;null;true;focus;yes;333765;Chrome;113.0;Windows;10;undefined;undefined;2560 x 1440;2560 x 1440
H004;52;Mannelijk;Links;1;121;left;no;900;leftarrow;1129;true;focus;yes;335663;Chrome;113.0;Windows;10;undefined;undefined;2560 x 1440;2560 x 1440
H004;52;Mannelijk;Links;1;122;right;no;900;undefined;null;false;focus;yes;337681;Chrome;113.0;Windows;10;undefined;undefined;2560 x 1440;2560 x 1440
H004;52;Mannelijk;Links;1;123;left;yes;900;undefined;null;true;focus;yes;339708;Chrome;113.0;Windows;10;undefined;undefined;2560 x 1440;2560 x 1440
H004;52;Mannelijk;Links;1;124;left;no;950;leftarrow;1240;true;focus;yes;341714;Chrome;113.0;Windows;10;undefined;undefined;2560 x 1440;2560 x 1440
H004;52;Mannelijk;Links;1;125;right;no;950;rightarrow;1236;true;focus;yes;343722;Chrome;113.0;Windows;10;undefined;undefined;2560 x 1440;2560 x 1440
H004;52;Mannelijk;Links;1;126;right;no;950;undefined;null;false;focus;yes;345754;Chrome;113.0;Windows;10;undefined;undefined;2560 x 1440;2560 x 1440
H004;52;Mannelijk;Links;1;127;left;no;950;leftarrow;1102;true;focus;yes;347635;Chrome;113.0;Windows;10;undefined;undefined;2560 x 1440;2560 x 1440
H004;52;Mannelijk;Links;1;128;right;yes;950;rightarrow;983;false;focus;yes;349385;Chrome;113.0;Windows;10;undefined;undefined;2560 x 1440;2560 x 1440
H004;52;Mannelijk;Links;2;1;left;yes;900;undefined;null;true;focus;yes;371782;Chrome;113.0;Windows;10;undefined;undefined;2560 x 1440;2560 x 1440
H004;52;Mannelijk;Links;2;2;right;yes;950;rightarrow;997;false;focus;yes;373545;Chrome;113.0;Windows;10;undefined;undefined;2560 x 1440;2560 x 1440
H004;52;Mannelijk;Links;2;3;right;no;900;rightarrow;921;true;focus;yes;375235;Chrome;113.0;Windows;10;undefined;undefined;2560 x 1440;2560 x 1440
H004;52;Mannelijk;Links;2;4;left;no;900;leftarrow;890;true;focus;yes;376900;Chrome;113.0;Windows;10;undefined;undefined;2560 x 1440;2560 x 1440
H004;52;Mannelijk;Links;2;5;left;no;900;leftarrow;1056;true;focus;yes;378735;Chrome;113.0;Windows;10;undefined;undefined;2560 x 1440;2560 x 1440
H004;52;Mannelijk;Links;2;6;left;no;900;leftarrow;1091;true;focus;yes;380602;Chrome;113.0;Windows;10;undefined;undefined;2560 x 1440;2560 x 1440
H004;52;Mannelijk;Links;2;7;right;no;900;undefined;null;false;focus;yes;382640;Chrome;113.0;Windows;10;undefined;undefined;2560 x 1440;2560 x 1440
H004;52;Mannelijk;Links;2;8;right;no;900;rightarrow;962;true;focus;yes;384381;Chrome;113.0;Windows;10;undefined;undefined;2560 x 1440;2560 x 1440
H004;52;Mannelijk;Links;2;9;left;no;900;leftarrow;1064;true;focus;yes;386221;Chrome;113.0;Windows;10;undefined;undefined;2560 x 1440;2560 x 1440
H004;52;Mannelijk;Links;2;10;right;no;900;rightarrow;1044;true;focus;yes;388030;Chrome;113.0;Windows;10;undefined;undefined;2560 x 1440;2560 x 1440
H004;52;Mannelijk;Links;2;11;right;no;900;rightarrow;995;true;focus;yes;389794;Chrome;113.0;Windows;10;undefined;undefined;2560 x 1440;2560 x 1440
H004;52;Mannelijk;Links;2;12;left;no;900;leftarrow;761;true;focus;yes;391320;Chrome;113.0;Windows;10;undefined;undefined;2560 x 1440;2560 x 1440
H004;52;Mannelijk;Links;2;13;left;yes;900;leftarrow;739;false;focus;yes;392813;Chrome;113.0;Windows;10;undefined;undefined;2560 x 1440;2560 x 1440
H004;52;Mannelijk;Links;2;14;right;no;850;rightarrow;905;true;focus;yes;394495;Chrome;113.0;Windows;10;undefined;undefined;2560 x 1440;2560 x 1440
H004;52;Mannelijk;Links;2;15;right;yes;850;rightarrow;663;false;focus;yes;395934;Chrome;113.0;Windows;10;undefined;undefined;2560 x 1440;2560 x 1440
H004;52;Mannelijk;Links;2;16;left;no;800;leftarrow;684;true;focus;yes;397392;Chrome;113.0;Windows;10;undefined;undefined;2560 x 1440;2560 x 1440
H004;52;Mannelijk;Links;2;17;left;no;800;leftarrow;682;true;focus;yes;398854;Chrome;113.0;Windows;10;undefined;undefined;2560 x 1440;2560 x 1440
H004;52;Mannelijk;Links;2;18;left;no;800;leftarrow;487;true;focus;yes;400112;Chrome;113.0;Windows;10;undefined;undefined;2560 x 1440;2560 x 1440
H004;52;Mannelijk;Links;2;19;right;yes;800;rightarrow;734;false;focus;yes;401621;Chrome;113.0;Windows;10;undefined;undefined;2560 x 1440;2560 x 1440
H004;52;Mannelijk;Links;2;20;right;no;750;rightarrow;625;true;focus;yes;403025;Chrome;113.0;Windows;10;undefined;undefined;2560 x 1440;2560 x 1440
H004;52;Mannelijk;Links;2;21;right;no;750;rightarrow;589;true;focus;yes;404382;Chrome;113.0;Windows;10;undefined;undefined;2560 x 1440;2560 x 1440
H004;52;Mannelijk;Links;2;22;left;yes;750;leftarrow;450;false;focus;yes;405586;Chrome;113.0;Windows;10;undefined;undefined;2560 x 1440;2560 x 1440
H004;52;Mannelijk;Links;2;23;left;no;700;leftarrow;552;true;focus;yes;406904;Chrome;113.0;Windows;10;undefined;undefined;2560 x 1440;2560 x 1440
H004;52;Mannelijk;Links;2;24;right;no;700;rightarrow;527;true;focus;yes;408205;Chrome;113.0;Windows;10;undefined;undefined;2560 x 1440;2560 x 1440
H004;52;Mannelijk;Links;2;25;left;no;700;leftarrow;513;true;focus;yes;409491;Chrome;113.0;Windows;10;undefined;undefined;2560 x 1440;2560 x 1440
H004;52;Mannelijk;Links;2;26;left;yes;700;leftarrow;513;false;focus;yes;410761;Chrome;113.0;Windows;10;undefined;undefined;2560 x 1440;2560 x 1440
H004;52;Mannelijk;Links;2;27;right;no;650;rightarrow;445;true;focus;yes;411985;Chrome;113.0;Windows;10;undefined;undefined;2560 x 1440;2560 x 1440
H004;52;Mannelijk;Links;2;28;right;no;650;rightarrow;663;true;focus;yes;413412;Chrome;113.0;Windows;10;undefined;undefined;2560 x 1440;2560 x 1440
H004;52;Mannelijk;Links;2;29;left;no;650;leftarrow;434;true;focus;yes;414606;Chrome;113.0;Windows;10;undefined;undefined;2560 x 1440;2560 x 1440
H004;52;Mannelijk;Links;2;30;right;no;650;rightarrow;396;true;focus;yes;415768;Chrome;113.0;Windows;10;undefined;undefined;2560 x 1440;2560 x 1440
H004;52;Mannelijk;Links;2;31;right;yes;650;rightarrow;592;false;focus;yes;417139;Chrome;113.0;Windows;10;undefined;undefined;2560 x 1440;2560 x 1440
H004;52;Mannelijk;Links;2;32;left;no;600;leftarrow;518;true;focus;yes;418435;Chrome;113.0;Windows;10;undefined;undefined;2560 x 1440;2560 x 1440
H004;52;Mannelijk;Links;2;33;left;no;600;leftarrow;525;true;focus;yes;419737;Chrome;113.0;Windows;10;undefined;undefined;2560 x 1440;2560 x 1440
H004;52;Mannelijk;Links;2;34;left;yes;600;leftarrow;470;false;focus;yes;420986;Chrome;113.0;Windows;10;undefined;undefined;2560 x 1440;2560 x 1440
H004;52;Mannelijk;Links;2;35;left;no;550;leftarrow;430;true;focus;yes;422192;Chrome;113.0;Windows;10;undefined;undefined;2560 x 1440;2560 x 1440
H004;52;Mannelijk;Links;2;36;left;no;550;leftarrow;448;true;focus;yes;423410;Chrome;113.0;Windows;10;undefined;undefined;2560 x 1440;2560 x 1440
H004;52;Mannelijk;Links;2;37;right;no;550;rightarrow;466;true;focus;yes;424637;Chrome;113.0;Windows;10;undefined;undefined;2560 x 1440;2560 x 1440
H004;52;Mannelijk;Links;2;38;right;no;550;rightarrow;483;true;focus;yes;425898;Chrome;113.0;Windows;10;undefined;undefined;2560 x 1440;2560 x 1440
H004;52;Mannelijk;Links;2;39;right;no;550;rightarrow;450;true;focus;yes;427126;Chrome;113.0;Windows;10;undefined;undefined;2560 x 1440;2560 x 1440
H004;52;Mannelijk;Links;2;40;right;yes;550;rightarrow;509;false;focus;yes;428402;Chrome;113.0;Windows;10;undefined;undefined;2560 x 1440;2560 x 1440
H004;52;Mannelijk;Links;2;41;left;no;500;leftarrow;560;true;focus;yes;429730;Chrome;113.0;Windows;10;undefined;undefined;2560 x 1440;2560 x 1440
H004;52;Mannelijk;Links;2;42;right;no;500;rightarrow;484;true;focus;yes;430996;Chrome;113.0;Windows;10;undefined;undefined;2560 x 1440;2560 x 1440
H004;52;Mannelijk;Links;2;43;left;no;500;leftarrow;481;true;focus;yes;432256;Chrome;113.0;Windows;10;undefined;undefined;2560 x 1440;2560 x 1440
H004;52;Mannelijk;Links;2;44;left;yes;500;leftarrow;505;false;focus;yes;433540;Chrome;113.0;Windows;10;undefined;undefined;2560 x 1440;2560 x 1440
H004;52;Mannelijk;Links;2;45;right;no;450;rightarrow;522;true;focus;yes;434833;Chrome;113.0;Windows;10;undefined;undefined;2560 x 1440;2560 x 1440
H004;52;Mannelijk;Links;2;46;left;no;450;leftarrow;422;true;focus;yes;436028;Chrome;113.0;Windows;10;undefined;undefined;2560 x 1440;2560 x 1440
H004;52;Mannelijk;Links;2;47;right;yes;450;rightarrow;422;false;focus;yes;437216;Chrome;113.0;Windows;10;undefined;undefined;2560 x 1440;2560 x 1440
H004;52;Mannelijk;Links;2;48;right;no;400;rightarrow;626;true;focus;yes;438616;Chrome;113.0;Windows;10;undefined;undefined;2560 x 1440;2560 x 1440
H004;52;Mannelijk;Links;2;49;right;no;400;rightarrow;414;true;focus;yes;439795;Chrome;113.0;Windows;10;undefined;undefined;2560 x 1440;2560 x 1440
H004;52;Mannelijk;Links;2;50;left;yes;400;leftarrow;525;false;focus;yes;441079;Chrome;113.0;Windows;10;undefined;undefined;2560 x 1440;2560 x 1440
H004;52;Mannelijk;Links;2;51;right;no;350;rightarrow;690;true;focus;yes;442524;Chrome;113.0;Windows;10;undefined;undefined;2560 x 1440;2560 x 1440
H004;52;Mannelijk;Links;2;52;left;no;350;leftarrow;414;true;focus;yes;443714;Chrome;113.0;Windows;10;undefined;undefined;2560 x 1440;2560 x 1440
H004;52;Mannelijk;Links;2;53;left;no;350;leftarrow;491;true;focus;yes;444977;Chrome;113.0;Windows;10;undefined;undefined;2560 x 1440;2560 x 1440
H004;52;Mannelijk;Links;2;54;left;no;350;leftarrow;363;true;focus;yes;446097;Chrome;113.0;Windows;10;undefined;undefined;2560 x 1440;2560 x 1440
H004;52;Mannelijk;Links;2;55;right;no;350;rightarrow;491;true;focus;yes;447362;Chrome;113.0;Windows;10;undefined;undefined;2560 x 1440;2560 x 1440
H004;52;Mannelijk;Links;2;56;right;yes;350;rightarrow;564;false;focus;yes;448699;Chrome;113.0;Windows;10;undefined;undefined;2560 x 1440;2560 x 1440
H004;52;Mannelijk;Links;2;57;right;no;300;rightarrow;487;true;focus;yes;449964;Chrome;113.0;Windows;10;undefined;undefined;2560 x 1440;2560 x 1440
H004;52;Mannelijk;Links;2;58;left;no;300;leftarrow;492;true;focus;yes;451232;Chrome;113.0;Windows;10;undefined;undefined;2560 x 1440;2560 x 1440
H004;52;Mannelijk;Links;2;59;right;no;300;rightarrow;526;true;focus;yes;452513;Chrome;113.0;Windows;10;undefined;undefined;2560 x 1440;2560 x 1440
H004;52;Mannelijk;Links;2;60;left;no;300;leftarrow;470;true;focus;yes;453740;Chrome;113.0;Windows;10;undefined;undefined;2560 x 1440;2560 x 1440
H004;52;Mannelijk;Links;2;61;right;yes;300;rightarrow;463;false;focus;yes;454979;Chrome;113.0;Windows;10;undefined;undefined;2560 x 1440;2560 x 1440
H004;52;Mannelijk;Links;2;62;left;no;250;leftarrow;617;true;focus;yes;456378;Chrome;113.0;Windows;10;undefined;undefined;2560 x 1440;2560 x 1440
H004;52;Mannelijk;Links;2;63;right;no;250;rightarrow;558;true;focus;yes;457705;Chrome;113.0;Windows;10;undefined;undefined;2560 x 1440;2560 x 1440
H004;52;Mannelijk;Links;2;64;left;yes;250;leftarrow;430;false;focus;yes;458889;Chrome;113.0;Windows;10;undefined;undefined;2560 x 1440;2560 x 1440
H004;52;Mannelijk;Links;2;65;right;no;200;rightarrow;652;true;focus;yes;460310;Chrome;113.0;Windows;10;undefined;undefined;2560 x 1440;2560 x 1440
H004;52;Mannelijk;Links;2;66;right;yes;200;undefined;null;true;focus;yes;462344;Chrome;113.0;Windows;10;undefined;undefined;2560 x 1440;2560 x 1440
H004;52;Mannelijk;Links;2;67;left;no;250;leftarrow;450;true;focus;yes;463557;Chrome;113.0;Windows;10;undefined;undefined;2560 x 1440;2560 x 1440
H004;52;Mannelijk;Links;2;68;left;yes;250;undefined;null;true;focus;yes;465588;Chrome;113.0;Windows;10;undefined;undefined;2560 x 1440;2560 x 1440
H004;52;Mannelijk;Links;2;69;right;no;300;rightarrow;686;true;focus;yes;467042;Chrome;113.0;Windows;10;undefined;undefined;2560 x 1440;2560 x 1440
H004;52;Mannelijk;Links;2;70;right;no;300;rightarrow;598;true;focus;yes;468405;Chrome;113.0;Windows;10;undefined;undefined;2560 x 1440;2560 x 1440
H004;52;Mannelijk;Links;2;71;left;no;300;leftarrow;793;true;focus;yes;469971;Chrome;113.0;Windows;10;undefined;undefined;2560 x 1440;2560 x 1440
H004;52;Mannelijk;Links;2;72;left;no;300;leftarrow;789;true;focus;yes;471514;Chrome;113.0;Windows;10;undefined;undefined;2560 x 1440;2560 x 1440
H004;52;Mannelijk;Links;2;73;left;no;300;leftarrow;850;true;focus;yes;473120;Chrome;113.0;Windows;10;undefined;undefined;2560 x 1440;2560 x 1440
H004;52;Mannelijk;Links;2;74;right;yes;300;undefined;null;true;focus;yes;475153;Chrome;113.0;Windows;10;undefined;undefined;2560 x 1440;2560 x 1440
H004;52;Mannelijk;Links;2;75;right;no;350;rightarrow;637;true;focus;yes;476570;Chrome;113.0;Windows;10;undefined;undefined;2560 x 1440;2560 x 1440
H004;52;Mannelijk;Links;2;76;left;yes;350;undefined;null;true;focus;yes;478605;Chrome;113.0;Windows;10;undefined;undefined;2560 x 1440;2560 x 1440
H004;52;Mannelijk;Links;2;77;left;no;400;leftarrow;707;true;focus;yes;480068;Chrome;113.0;Windows;10;undefined;undefined;2560 x 1440;2560 x 1440
H004;52;Mannelijk;Links;2;78;right;no;400;rightarrow;661;true;focus;yes;481489;Chrome;113.0;Windows;10;undefined;undefined;2560 x 1440;2560 x 1440
H004;52;Mannelijk;Links;2;79;left;no;400;leftarrow;560;true;focus;yes;482823;Chrome;113.0;Windows;10;undefined;undefined;2560 x 1440;2560 x 1440
H004;52;Mannelijk;Links;2;80;right;no;400;rightarrow;1155;true;focus;yes;484756;Chrome;113.0;Windows;10;undefined;undefined;2560 x 1440;2560 x 1440
H004;52;Mannelijk;Links;2;81;right;no;400;rightarrow;639;true;focus;yes;486178;Chrome;113.0;Windows;10;undefined;undefined;2560 x 1440;2560 x 1440
H004;52;Mannelijk;Links;2;82;left;yes;400;leftarrow;806;false;focus;yes;487761;Chrome;113.0;Windows;10;undefined;undefined;2560 x 1440;2560 x 1440
H004;52;Mannelijk;Links;2;83;left;no;350;leftarrow;643;true;focus;yes;489174;Chrome;113.0;Windows;10;undefined;undefined;2560 x 1440;2560 x 1440
H004;52;Mannelijk;Links;2;84;right;yes;350;undefined;null;true;focus;yes;491199;Chrome;113.0;Windows;10;undefined;undefined;2560 x 1440;2560 x 1440
H004;52;Mannelijk;Links;2;85;left;no;400;leftarrow;508;true;focus;yes;492487;Chrome;113.0;Windows;10;undefined;undefined;2560 x 1440;2560 x 1440
H004;52;Mannelijk;Links;2;86;right;no;400;rightarrow;740;true;focus;yes;493997;Chrome;113.0;Windows;10;undefined;undefined;2560 x 1440;2560 x 1440
H004;52;Mannelijk;Links;2;87;left;no;400;leftarrow;511;true;focus;yes;495280;Chrome;113.0;Windows;10;undefined;undefined;2560 x 1440;2560 x 1440
H004;52;Mannelijk;Links;2;88;right;no;400;rightarrow;623;true;focus;yes;496684;Chrome;113.0;Windows;10;undefined;undefined;2560 x 1440;2560 x 1440
H004;52;Mannelijk;Links;2;89;left;no;400;leftarrow;527;true;focus;yes;497992;Chrome;113.0;Windows;10;undefined;undefined;2560 x 1440;2560 x 1440
H004;52;Mannelijk;Links;2;90;right;no;400;rightarrow;596;true;focus;yes;499358;Chrome;113.0;Windows;10;undefined;undefined;2560 x 1440;2560 x 1440
H004;52;Mannelijk;Links;2;91;right;no;400;rightarrow;651;true;focus;yes;500784;Chrome;113.0;Windows;10;undefined;undefined;2560 x 1440;2560 x 1440
H004;52;Mannelijk;Links;2;92;left;no;400;leftarrow;573;true;focus;yes;502140;Chrome;113.0;Windows;10;undefined;undefined;2560 x 1440;2560 x 1440
H004;52;Mannelijk;Links;2;93;right;yes;400;rightarrow;460;false;focus;yes;503379;Chrome;113.0;Windows;10;undefined;undefined;2560 x 1440;2560 x 1440
H004;52;Mannelijk;Links;2;94;left;no;350;leftarrow;759;true;focus;yes;504898;Chrome;113.0;Windows;10;undefined;undefined;2560 x 1440;2560 x 1440
H004;52;Mannelijk;Links;2;95;left;yes;350;undefined;null;true;focus;yes;506933;Chrome;113.0;Windows;10;undefined;undefined;2560 x 1440;2560 x 1440
H004;52;Mannelijk;Links;2;96;right;no;400;rightarrow;473;true;focus;yes;508186;Chrome;113.0;Windows;10;undefined;undefined;2560 x 1440;2560 x 1440
H004;52;Mannelijk;Links;2;97;right;no;400;rightarrow;798;true;focus;yes;509745;Chrome;113.0;Windows;10;undefined;undefined;2560 x 1440;2560 x 1440
H004;52;Mannelijk;Links;2;98;left;no;400;leftarrow;708;true;focus;yes;511233;Chrome;113.0;Windows;10;undefined;undefined;2560 x 1440;2560 x 1440
H004;52;Mannelijk;Links;2;99;left;yes;400;leftarrow;673;false;focus;yes;512680;Chrome;113.0;Windows;10;undefined;undefined;2560 x 1440;2560 x 1440
H004;52;Mannelijk;Links;2;100;left;no;350;leftarrow;813;true;focus;yes;514256;Chrome;113.0;Windows;10;undefined;undefined;2560 x 1440;2560 x 1440
H004;52;Mannelijk;Links;2;101;right;yes;350;undefined;null;true;focus;yes;516287;Chrome;113.0;Windows;10;undefined;undefined;2560 x 1440;2560 x 1440
H004;52;Mannelijk;Links;2;102;left;no;400;leftarrow;770;true;focus;yes;517834;Chrome;113.0;Windows;10;undefined;undefined;2560 x 1440;2560 x 1440
H004;52;Mannelijk;Links;2;103;right;no;400;rightarrow;647;true;focus;yes;519259;Chrome;113.0;Windows;10;undefined;undefined;2560 x 1440;2560 x 1440
H004;52;Mannelijk;Links;2;104;right;no;400;rightarrow;765;true;focus;yes;520794;Chrome;113.0;Windows;10;undefined;undefined;2560 x 1440;2560 x 1440
H004;52;Mannelijk;Links;2;105;right;yes;400;undefined;null;true;focus;yes;522835;Chrome;113.0;Windows;10;undefined;undefined;2560 x 1440;2560 x 1440
H004;52;Mannelijk;Links;2;106;left;yes;450;undefined;null;true;focus;yes;524867;Chrome;113.0;Windows;10;undefined;undefined;2560 x 1440;2560 x 1440
H004;52;Mannelijk;Links;2;107;right;no;500;rightarrow;656;true;focus;yes;526303;Chrome;113.0;Windows;10;undefined;undefined;2560 x 1440;2560 x 1440
H004;52;Mannelijk;Links;2;108;left;no;500;leftarrow;827;true;focus;yes;527896;Chrome;113.0;Windows;10;undefined;undefined;2560 x 1440;2560 x 1440
H004;52;Mannelijk;Links;2;109;right;no;500;rightarrow;630;true;focus;yes;529288;Chrome;113.0;Windows;10;undefined;undefined;2560 x 1440;2560 x 1440
H004;52;Mannelijk;Links;2;110;left;no;500;leftarrow;631;true;focus;yes;530694;Chrome;113.0;Windows;10;undefined;undefined;2560 x 1440;2560 x 1440
H004;52;Mannelijk;Links;2;111;right;no;500;rightarrow;708;true;focus;yes;532177;Chrome;113.0;Windows;10;undefined;undefined;2560 x 1440;2560 x 1440
H004;52;Mannelijk;Links;2;112;left;no;500;leftarrow;575;true;focus;yes;533524;Chrome;113.0;Windows;10;undefined;undefined;2560 x 1440;2560 x 1440
H004;52;Mannelijk;Links;2;113;right;no;500;rightarrow;595;true;focus;yes;534889;Chrome;113.0;Windows;10;undefined;undefined;2560 x 1440;2560 x 1440
H004;52;Mannelijk;Links;2;114;left;no;500;leftarrow;647;true;focus;yes;536306;Chrome;113.0;Windows;10;undefined;undefined;2560 x 1440;2560 x 1440
H004;52;Mannelijk;Links;2;115;left;yes;500;undefined;null;true;focus;yes;538316;Chrome;113.0;Windows;10;undefined;undefined;2560 x 1440;2560 x 1440
H004;52;Mannelijk;Links;2;116;right;no;550;rightarrow;789;true;focus;yes;539884;Chrome;113.0;Windows;10;undefined;undefined;2560 x 1440;2560 x 1440
H004;52;Mannelijk;Links;2;117;left;no;550;leftarrow;629;true;focus;yes;541281;Chrome;113.0;Windows;10;undefined;undefined;2560 x 1440;2560 x 1440
H004;52;Mannelijk;Links;2;118;right;yes;550;rightarrow;706;false;focus;yes;542761;Chrome;113.0;Windows;10;undefined;undefined;2560 x 1440;2560 x 1440
H004;52;Mannelijk;Links;2;119;right;no;500;rightarrow;943;true;focus;yes;544468;Chrome;113.0;Windows;10;undefined;undefined;2560 x 1440;2560 x 1440
H004;52;Mannelijk;Links;2;120;left;no;500;leftarrow;922;true;focus;yes;546161;Chrome;113.0;Windows;10;undefined;undefined;2560 x 1440;2560 x 1440
H004;52;Mannelijk;Links;2;121;left;no;500;leftarrow;919;true;focus;yes;547854;Chrome;113.0;Windows;10;undefined;undefined;2560 x 1440;2560 x 1440
H004;52;Mannelijk;Links;2;122;right;no;500;rightarrow;879;true;focus;yes;549503;Chrome;113.0;Windows;10;undefined;undefined;2560 x 1440;2560 x 1440
H004;52;Mannelijk;Links;2;123;right;no;500;rightarrow;736;true;focus;yes;551016;Chrome;113.0;Windows;10;undefined;undefined;2560 x 1440;2560 x 1440
H004;52;Mannelijk;Links;2;124;left;yes;500;undefined;null;true;focus;yes;553060;Chrome;113.0;Windows;10;undefined;undefined;2560 x 1440;2560 x 1440
H004;52;Mannelijk;Links;2;125;right;yes;550;undefined;null;true;focus;yes;555088;Chrome;113.0;Windows;10;undefined;undefined;2560 x 1440;2560 x 1440
H004;52;Mannelijk;Links;2;126;left;no;600;leftarrow;876;true;focus;yes;556746;Chrome;113.0;Windows;10;undefined;undefined;2560 x 1440;2560 x 1440
H004;52;Mannelijk;Links;2;127;left;no;600;leftarrow;597;true;focus;yes;558117;Chrome;113.0;Windows;10;undefined;undefined;2560 x 1440;2560 x 1440
H004;52;Mannelijk;Links;2;128;right;no;600;rightarrow;1119;true;focus;yes;560004;Chrome;113.0;Windows;10;undefined;undefined;2560 x 1440;2560 x 1440
H004;52;Mannelijk;Links;3;1;right;yes;600;undefined;null;true;focus;yes;580454;Chrome;113.0;Windows;10;undefined;undefined;2560 x 1440;2560 x 1440
H004;52;Mannelijk;Links;3;2;left;no;650;undefined;null;false;focus;yes;582498;Chrome;113.0;Windows;10;undefined;undefined;2560 x 1440;2560 x 1440
H004;52;Mannelijk;Links;3;3;left;no;650;leftarrow;1004;true;focus;yes;584280;Chrome;113.0;Windows;10;undefined;undefined;2560 x 1440;2560 x 1440
H004;52;Mannelijk;Links;3;4;right;no;650;rightarrow;822;true;focus;yes;585869;Chrome;113.0;Windows;10;undefined;undefined;2560 x 1440;2560 x 1440
H004;52;Mannelijk;Links;3;5;left;yes;650;leftarrow;734;false;focus;yes;587363;Chrome;113.0;Windows;10;undefined;undefined;2560 x 1440;2560 x 1440
H004;52;Mannelijk;Links;3;6;right;no;600;rightarrow;566;true;focus;yes;588707;Chrome;113.0;Windows;10;undefined;undefined;2560 x 1440;2560 x 1440
H004;52;Mannelijk;Links;3;7;right;no;600;rightarrow;917;true;focus;yes;590394;Chrome;113.0;Windows;10;undefined;undefined;2560 x 1440;2560 x 1440
H004;52;Mannelijk;Links;3;8;left;no;600;leftarrow;830;true;focus;yes;591978;Chrome;113.0;Windows;10;undefined;undefined;2560 x 1440;2560 x 1440
H004;52;Mannelijk;Links;3;9;left;no;600;leftarrow;722;true;focus;yes;593481;Chrome;113.0;Windows;10;undefined;undefined;2560 x 1440;2560 x 1440
H004;52;Mannelijk;Links;3;10;right;no;600;rightarrow;643;true;focus;yes;594895;Chrome;113.0;Windows;10;undefined;undefined;2560 x 1440;2560 x 1440
H004;52;Mannelijk;Links;3;11;right;no;600;rightarrow;704;true;focus;yes;596377;Chrome;113.0;Windows;10;undefined;undefined;2560 x 1440;2560 x 1440
H004;52;Mannelijk;Links;3;12;left;no;600;leftarrow;545;true;focus;yes;597685;Chrome;113.0;Windows;10;undefined;undefined;2560 x 1440;2560 x 1440
H004;52;Mannelijk;Links;3;13;left;no;600;leftarrow;684;true;focus;yes;599151;Chrome;113.0;Windows;10;undefined;undefined;2560 x 1440;2560 x 1440
H004;52;Mannelijk;Links;3;14;right;no;600;rightarrow;627;true;focus;yes;600561;Chrome;113.0;Windows;10;undefined;undefined;2560 x 1440;2560 x 1440
H004;52;Mannelijk;Links;3;15;right;yes;600;rightarrow;640;false;focus;yes;601977;Chrome;113.0;Windows;10;undefined;undefined;2560 x 1440;2560 x 1440
H004;52;Mannelijk;Links;3;16;left;yes;550;leftarrow;670;false;focus;yes;603415;Chrome;113.0;Windows;10;undefined;undefined;2560 x 1440;2560 x 1440
H004;52;Mannelijk;Links;3;17;left;no;500;leftarrow;1102;true;focus;yes;605287;Chrome;113.0;Windows;10;undefined;undefined;2560 x 1440;2560 x 1440
H004;52;Mannelijk;Links;3;18;left;no;500;leftarrow;920;true;focus;yes;606985;Chrome;113.0;Windows;10;undefined;undefined;2560 x 1440;2560 x 1440
H004;52;Mannelijk;Links;3;19;right;no;500;rightarrow;900;true;focus;yes;608652;Chrome;113.0;Windows;10;undefined;undefined;2560 x 1440;2560 x 1440
H004;52;Mannelijk;Links;3;20;left;yes;500;undefined;null;true;focus;yes;610667;Chrome;113.0;Windows;10;undefined;undefined;2560 x 1440;2560 x 1440
H004;52;Mannelijk;Links;3;21;right;yes;550;rightarrow;705;false;focus;yes;612152;Chrome;113.0;Windows;10;undefined;undefined;2560 x 1440;2560 x 1440
H004;52;Mannelijk;Links;3;22;left;no;500;leftarrow;871;true;focus;yes;613787;Chrome;113.0;Windows;10;undefined;undefined;2560 x 1440;2560 x 1440
H004;52;Mannelijk;Links;3;23;right;no;500;rightarrow;936;true;focus;yes;615493;Chrome;113.0;Windows;10;undefined;undefined;2560 x 1440;2560 x 1440
H004;52;Mannelijk;Links;3;24;right;no;500;rightarrow;1048;true;focus;yes;617322;Chrome;113.0;Windows;10;undefined;undefined;2560 x 1440;2560 x 1440
H004;52;Mannelijk;Links;3;25;left;no;500;leftarrow;811;true;focus;yes;618895;Chrome;113.0;Windows;10;undefined;undefined;2560 x 1440;2560 x 1440
H004;52;Mannelijk;Links;3;26;left;no;500;leftarrow;919;true;focus;yes;620594;Chrome;113.0;Windows;10;undefined;undefined;2560 x 1440;2560 x 1440
H004;52;Mannelijk;Links;3;27;left;no;500;leftarrow;940;true;focus;yes;622316;Chrome;113.0;Windows;10;undefined;undefined;2560 x 1440;2560 x 1440
H004;52;Mannelijk;Links;3;28;right;no;500;rightarrow;926;true;focus;yes;624003;Chrome;113.0;Windows;10;undefined;undefined;2560 x 1440;2560 x 1440
H004;52;Mannelijk;Links;3;29;right;no;500;rightarrow;867;true;focus;yes;625630;Chrome;113.0;Windows;10;undefined;undefined;2560 x 1440;2560 x 1440
H004;52;Mannelijk;Links;3;30;right;yes;500;undefined;null;true;focus;yes;627642;Chrome;113.0;Windows;10;undefined;undefined;2560 x 1440;2560 x 1440
H004;52;Mannelijk;Links;3;31;right;no;550;rightarrow;774;true;focus;yes;629196;Chrome;113.0;Windows;10;undefined;undefined;2560 x 1440;2560 x 1440
H004;52;Mannelijk;Links;3;32;left;yes;550;undefined;null;true;focus;yes;631228;Chrome;113.0;Windows;10;undefined;undefined;2560 x 1440;2560 x 1440
H004;52;Mannelijk;Links;3;33;left;no;600;leftarrow;678;true;focus;yes;632689;Chrome;113.0;Windows;10;undefined;undefined;2560 x 1440;2560 x 1440
H004;52;Mannelijk;Links;3;34;right;yes;600;undefined;null;true;focus;yes;634720;Chrome;113.0;Windows;10;undefined;undefined;2560 x 1440;2560 x 1440
H004;52;Mannelijk;Links;3;35;left;no;650;leftarrow;755;true;focus;yes;636242;Chrome;113.0;Windows;10;undefined;undefined;2560 x 1440;2560 x 1440
H004;52;Mannelijk;Links;3;36;right;no;650;rightarrow;1003;true;focus;yes;637997;Chrome;113.0;Windows;10;undefined;undefined;2560 x 1440;2560 x 1440
H004;52;Mannelijk;Links;3;37;left;no;650;leftarrow;1132;true;focus;yes;639891;Chrome;113.0;Windows;10;undefined;undefined;2560 x 1440;2560 x 1440
H004;52;Mannelijk;Links;3;38;right;no;650;rightarrow;849;true;focus;yes;641516;Chrome;113.0;Windows;10;undefined;undefined;2560 x 1440;2560 x 1440
H004;52;Mannelijk;Links;3;39;left;yes;650;leftarrow;735;false;focus;yes;643024;Chrome;113.0;Windows;10;undefined;undefined;2560 x 1440;2560 x 1440
H004;52;Mannelijk;Links;3;40;right;no;600;rightarrow;639;true;focus;yes;644440;Chrome;113.0;Windows;10;undefined;undefined;2560 x 1440;2560 x 1440
H004;52;Mannelijk;Links;3;41;right;yes;600;undefined;null;true;focus;yes;646471;Chrome;113.0;Windows;10;undefined;undefined;2560 x 1440;2560 x 1440
H004;52;Mannelijk;Links;3;42;left;no;650;leftarrow;1006;true;focus;yes;648260;Chrome;113.0;Windows;10;undefined;undefined;2560 x 1440;2560 x 1440
H004;52;Mannelijk;Links;3;43;left;no;650;leftarrow;831;true;focus;yes;649866;Chrome;113.0;Windows;10;undefined;undefined;2560 x 1440;2560 x 1440
H004;52;Mannelijk;Links;3;44;left;no;650;leftarrow;975;true;focus;yes;651601;Chrome;113.0;Windows;10;undefined;undefined;2560 x 1440;2560 x 1440
H004;52;Mannelijk;Links;3;45;right;no;650;rightarrow;1119;true;focus;yes;653486;Chrome;113.0;Windows;10;undefined;undefined;2560 x 1440;2560 x 1440
H004;52;Mannelijk;Links;3;46;right;no;650;rightarrow;994;true;focus;yes;655263;Chrome;113.0;Windows;10;undefined;undefined;2560 x 1440;2560 x 1440
H004;52;Mannelijk;Links;3;47;right;no;650;rightarrow;1236;true;focus;yes;657280;Chrome;113.0;Windows;10;undefined;undefined;2560 x 1440;2560 x 1440
H004;52;Mannelijk;Links;3;48;left;yes;650;undefined;null;true;focus;yes;659313;Chrome;113.0;Windows;10;undefined;undefined;2560 x 1440;2560 x 1440
H004;52;Mannelijk;Links;3;49;left;no;700;leftarrow;750;true;focus;yes;660841;Chrome;113.0;Windows;10;undefined;undefined;2560 x 1440;2560 x 1440
H004;52;Mannelijk;Links;3;50;left;yes;700;leftarrow;815;false;focus;yes;662418;Chrome;113.0;Windows;10;undefined;undefined;2560 x 1440;2560 x 1440
H004;52;Mannelijk;Links;3;51;right;no;650;undefined;null;false;focus;yes;664440;Chrome;113.0;Windows;10;undefined;undefined;2560 x 1440;2560 x 1440
H004;52;Mannelijk;Links;3;52;right;no;650;rightarrow;829;true;focus;yes;666033;Chrome;113.0;Windows;10;undefined;undefined;2560 x 1440;2560 x 1440
H004;52;Mannelijk;Links;3;53;left;no;650;leftarrow;1127;true;focus;yes;667935;Chrome;113.0;Windows;10;undefined;undefined;2560 x 1440;2560 x 1440
H004;52;Mannelijk;Links;3;54;right;no;650;rightarrow;768;true;focus;yes;669482;Chrome;113.0;Windows;10;undefined;undefined;2560 x 1440;2560 x 1440
H004;52;Mannelijk;Links;3;55;left;no;650;leftarrow;675;true;focus;yes;670937;Chrome;113.0;Windows;10;undefined;undefined;2560 x 1440;2560 x 1440
H004;52;Mannelijk;Links;3;56;right;yes;650;rightarrow;776;false;focus;yes;672485;Chrome;113.0;Windows;10;undefined;undefined;2560 x 1440;2560 x 1440
H004;52;Mannelijk;Links;3;57;right;no;600;rightarrow;1186;true;focus;yes;674453;Chrome;113.0;Windows;10;undefined;undefined;2560 x 1440;2560 x 1440
H004;52;Mannelijk;Links;3;58;left;no;600;leftarrow;1108;true;focus;yes;676340;Chrome;113.0;Windows;10;undefined;undefined;2560 x 1440;2560 x 1440
H004;52;Mannelijk;Links;3;59;right;no;600;rightarrow;953;true;focus;yes;678072;Chrome;113.0;Windows;10;undefined;undefined;2560 x 1440;2560 x 1440
H004;52;Mannelijk;Links;3;60;left;yes;600;leftarrow;804;false;focus;yes;679654;Chrome;113.0;Windows;10;undefined;undefined;2560 x 1440;2560 x 1440
H004;52;Mannelijk;Links;3;61;right;no;550;rightarrow;983;true;focus;yes;681405;Chrome;113.0;Windows;10;undefined;undefined;2560 x 1440;2560 x 1440
H004;52;Mannelijk;Links;3;62;left;no;550;leftarrow;1184;true;focus;yes;683366;Chrome;113.0;Windows;10;undefined;undefined;2560 x 1440;2560 x 1440
H004;52;Mannelijk;Links;3;63;right;yes;550;undefined;null;true;focus;yes;685397;Chrome;113.0;Windows;10;undefined;undefined;2560 x 1440;2560 x 1440
H004;52;Mannelijk;Links;3;64;left;no;600;leftarrow;1005;true;focus;yes;687183;Chrome;113.0;Windows;10;undefined;undefined;2560 x 1440;2560 x 1440
H004;52;Mannelijk;Links;3;65;right;no;600;rightarrow;989;true;focus;yes;688932;Chrome;113.0;Windows;10;undefined;undefined;2560 x 1440;2560 x 1440
H004;52;Mannelijk;Links;3;66;left;no;600;leftarrow;1012;true;focus;yes;690717;Chrome;113.0;Windows;10;undefined;undefined;2560 x 1440;2560 x 1440
H004;52;Mannelijk;Links;3;67;left;yes;600;undefined;null;true;focus;yes;692744;Chrome;113.0;Windows;10;undefined;undefined;2560 x 1440;2560 x 1440
H004;52;Mannelijk;Links;3;68;right;yes;650;rightarrow;779;false;focus;yes;694303;Chrome;113.0;Windows;10;undefined;undefined;2560 x 1440;2560 x 1440
H004;52;Mannelijk;Links;3;69;left;no;600;leftarrow;1254;true;focus;yes;696321;Chrome;113.0;Windows;10;undefined;undefined;2560 x 1440;2560 x 1440
H004;52;Mannelijk;Links;3;70;left;no;600;undefined;null;false;focus;yes;698360;Chrome;113.0;Windows;10;undefined;undefined;2560 x 1440;2560 x 1440
H004;52;Mannelijk;Links;3;71;right;no;600;rightarrow;991;true;focus;yes;700131;Chrome;113.0;Windows;10;undefined;undefined;2560 x 1440;2560 x 1440
H004;52;Mannelijk;Links;3;72;right;no;600;rightarrow;830;true;focus;yes;701719;Chrome;113.0;Windows;10;undefined;undefined;2560 x 1440;2560 x 1440
H004;52;Mannelijk;Links;3;73;left;yes;600;leftarrow;795;false;focus;yes;703286;Chrome;113.0;Windows;10;undefined;undefined;2560 x 1440;2560 x 1440
H004;52;Mannelijk;Links;3;74;left;no;550;leftarrow;1092;true;focus;yes;705157;Chrome;113.0;Windows;10;undefined;undefined;2560 x 1440;2560 x 1440
H004;52;Mannelijk;Links;3;75;right;no;550;rightarrow;941;true;focus;yes;706860;Chrome;113.0;Windows;10;undefined;undefined;2560 x 1440;2560 x 1440
H004;52;Mannelijk;Links;3;76;right;yes;550;undefined;null;true;focus;yes;708896;Chrome;113.0;Windows;10;undefined;undefined;2560 x 1440;2560 x 1440
H004;52;Mannelijk;Links;3;77;left;no;600;leftarrow;944;true;focus;yes;710605;Chrome;113.0;Windows;10;undefined;undefined;2560 x 1440;2560 x 1440
H004;52;Mannelijk;Links;3;78;right;no;600;rightarrow;1215;true;focus;yes;712591;Chrome;113.0;Windows;10;undefined;undefined;2560 x 1440;2560 x 1440
H004;52;Mannelijk;Links;3;79;left;no;600;leftarrow;951;true;focus;yes;714315;Chrome;113.0;Windows;10;undefined;undefined;2560 x 1440;2560 x 1440
H004;52;Mannelijk;Links;3;80;right;no;600;rightarrow;841;true;focus;yes;715936;Chrome;113.0;Windows;10;undefined;undefined;2560 x 1440;2560 x 1440
H004;52;Mannelijk;Links;3;81;right;no;600;leftarrow;1052;false;focus;yes;717750;Chrome;113.0;Windows;10;undefined;undefined;2560 x 1440;2560 x 1440
H004;52;Mannelijk;Links;3;82;right;yes;600;undefined;null;true;focus;yes;719777;Chrome;113.0;Windows;10;undefined;undefined;2560 x 1440;2560 x 1440
H004;52;Mannelijk;Links;3;83;right;no;650;rightarrow;589;true;focus;yes;721147;Chrome;113.0;Windows;10;undefined;undefined;2560 x 1440;2560 x 1440
H004;52;Mannelijk;Links;3;84;left;no;650;leftarrow;1020;true;focus;yes;722938;Chrome;113.0;Windows;10;undefined;undefined;2560 x 1440;2560 x 1440
H004;52;Mannelijk;Links;3;85;left;no;650;leftarrow;797;true;focus;yes;724512;Chrome;113.0;Windows;10;undefined;undefined;2560 x 1440;2560 x 1440
H004;52;Mannelijk;Links;3;86;left;no;650;leftarrow;943;true;focus;yes;726223;Chrome;113.0;Windows;10;undefined;undefined;2560 x 1440;2560 x 1440
H004;52;Mannelijk;Links;3;87;right;no;650;rightarrow;1068;true;focus;yes;728066;Chrome;113.0;Windows;10;undefined;undefined;2560 x 1440;2560 x 1440
H004;52;Mannelijk;Links;3;88;left;yes;650;undefined;null;true;focus;yes;730105;Chrome;113.0;Windows;10;undefined;undefined;2560 x 1440;2560 x 1440
H004;52;Mannelijk;Links;3;89;left;no;700;leftarrow;898;true;focus;yes;731784;Chrome;113.0;Windows;10;undefined;undefined;2560 x 1440;2560 x 1440
H004;52;Mannelijk;Links;3;90;left;no;700;leftarrow;717;true;focus;yes;733274;Chrome;113.0;Windows;10;undefined;undefined;2560 x 1440;2560 x 1440
H004;52;Mannelijk;Links;3;91;left;no;700;leftarrow;1228;true;focus;yes;735282;Chrome;113.0;Windows;10;undefined;undefined;2560 x 1440;2560 x 1440
H004;52;Mannelijk;Links;3;92;right;no;700;rightarrow;936;true;focus;yes;736979;Chrome;113.0;Windows;10;undefined;undefined;2560 x 1440;2560 x 1440
H004;52;Mannelijk;Links;3;93;right;no;700;rightarrow;900;true;focus;yes;738656;Chrome;113.0;Windows;10;undefined;undefined;2560 x 1440;2560 x 1440
H004;52;Mannelijk;Links;3;94;right;no;700;rightarrow;808;true;focus;yes;740234;Chrome;113.0;Windows;10;undefined;undefined;2560 x 1440;2560 x 1440
H004;52;Mannelijk;Links;3;95;left;yes;700;leftarrow;844;false;focus;yes;741857;Chrome;113.0;Windows;10;undefined;undefined;2560 x 1440;2560 x 1440
H004;52;Mannelijk;Links;3;96;right;yes;650;rightarrow;769;false;focus;yes;743399;Chrome;113.0;Windows;10;undefined;undefined;2560 x 1440;2560 x 1440
H004;52;Mannelijk;Links;3;97;left;no;600;leftarrow;1122;true;focus;yes;745293;Chrome;113.0;Windows;10;undefined;undefined;2560 x 1440;2560 x 1440
H004;52;Mannelijk;Links;3;98;right;no;600;rightarrow;749;true;focus;yes;746825;Chrome;113.0;Windows;10;undefined;undefined;2560 x 1440;2560 x 1440
H004;52;Mannelijk;Links;3;99;left;yes;600;undefined;null;true;focus;yes;748869;Chrome;113.0;Windows;10;undefined;undefined;2560 x 1440;2560 x 1440
H004;52;Mannelijk;Links;3;100;left;no;650;leftarrow;667;true;focus;yes;750317;Chrome;113.0;Windows;10;undefined;undefined;2560 x 1440;2560 x 1440
H004;52;Mannelijk;Links;3;101;right;yes;650;undefined;null;true;focus;yes;752350;Chrome;113.0;Windows;10;undefined;undefined;2560 x 1440;2560 x 1440
H004;52;Mannelijk;Links;3;102;left;no;700;leftarrow;1046;true;focus;yes;754175;Chrome;113.0;Windows;10;undefined;undefined;2560 x 1440;2560 x 1440
H004;52;Mannelijk;Links;3;103;right;no;700;rightarrow;923;true;focus;yes;755869;Chrome;113.0;Windows;10;undefined;undefined;2560 x 1440;2560 x 1440
H004;52;Mannelijk;Links;3;104;right;no;700;rightarrow;954;true;focus;yes;757606;Chrome;113.0;Windows;10;undefined;undefined;2560 x 1440;2560 x 1440
H004;52;Mannelijk;Links;3;105;right;yes;700;rightarrow;851;false;focus;yes;759236;Chrome;113.0;Windows;10;undefined;undefined;2560 x 1440;2560 x 1440
H004;52;Mannelijk;Links;3;106;right;no;650;rightarrow;980;true;focus;yes;760985;Chrome;113.0;Windows;10;undefined;undefined;2560 x 1440;2560 x 1440
H004;52;Mannelijk;Links;3;107;left;no;650;leftarrow;1179;true;focus;yes;762944;Chrome;113.0;Windows;10;undefined;undefined;2560 x 1440;2560 x 1440
H004;52;Mannelijk;Links;3;108;left;no;650;leftarrow;992;true;focus;yes;764705;Chrome;113.0;Windows;10;undefined;undefined;2560 x 1440;2560 x 1440
H004;52;Mannelijk;Links;3;109;left;no;650;leftarrow;1091;true;focus;yes;766566;Chrome;113.0;Windows;10;undefined;undefined;2560 x 1440;2560 x 1440
H004;52;Mannelijk;Links;3;110;left;yes;650;undefined;null;true;focus;yes;768594;Chrome;113.0;Windows;10;undefined;undefined;2560 x 1440;2560 x 1440
H004;52;Mannelijk;Links;3;111;right;no;700;rightarrow;1086;true;focus;yes;770465;Chrome;113.0;Windows;10;undefined;undefined;2560 x 1440;2560 x 1440
H004;52;Mannelijk;Links;3;112;right;no;700;rightarrow;982;true;focus;yes;772232;Chrome;113.0;Windows;10;undefined;undefined;2560 x 1440;2560 x 1440
H004;52;Mannelijk;Links;3;113;left;no;700;leftarrow;1135;true;focus;yes;774145;Chrome;113.0;Windows;10;undefined;undefined;2560 x 1440;2560 x 1440
H004;52;Mannelijk;Links;3;114;right;no;700;rightarrow;957;true;focus;yes;775867;Chrome;113.0;Windows;10;undefined;undefined;2560 x 1440;2560 x 1440
H004;52;Mannelijk;Links;3;115;right;yes;700;rightarrow;896;false;focus;yes;777536;Chrome;113.0;Windows;10;undefined;undefined;2560 x 1440;2560 x 1440
H004;52;Mannelijk;Links;3;116;right;no;650;rightarrow;909;true;focus;yes;779213;Chrome;113.0;Windows;10;undefined;undefined;2560 x 1440;2560 x 1440
H004;52;Mannelijk;Links;3;117;left;no;650;leftarrow;761;true;focus;yes;780734;Chrome;113.0;Windows;10;undefined;undefined;2560 x 1440;2560 x 1440
H004;52;Mannelijk;Links;3;118;right;no;650;rightarrow;959;true;focus;yes;782466;Chrome;113.0;Windows;10;undefined;undefined;2560 x 1440;2560 x 1440
H004;52;Mannelijk;Links;3;119;left;yes;650;undefined;null;true;focus;yes;784492;Chrome;113.0;Windows;10;undefined;undefined;2560 x 1440;2560 x 1440
H004;52;Mannelijk;Links;3;120;left;no;700;leftarrow;1079;true;focus;yes;786354;Chrome;113.0;Windows;10;undefined;undefined;2560 x 1440;2560 x 1440
H004;52;Mannelijk;Links;3;121;left;no;700;leftarrow;1197;true;focus;yes;788326;Chrome;113.0;Windows;10;undefined;undefined;2560 x 1440;2560 x 1440
H004;52;Mannelijk;Links;3;122;right;no;700;rightarrow;1050;true;focus;yes;790155;Chrome;113.0;Windows;10;undefined;undefined;2560 x 1440;2560 x 1440
H004;52;Mannelijk;Links;3;123;left;no;700;leftarrow;1106;true;focus;yes;792040;Chrome;113.0;Windows;10;undefined;undefined;2560 x 1440;2560 x 1440
H004;52;Mannelijk;Links;3;124;left;no;700;leftarrow;1140;true;focus;yes;793960;Chrome;113.0;Windows;10;undefined;undefined;2560 x 1440;2560 x 1440
H004;52;Mannelijk;Links;3;125;right;no;700;rightarrow;1185;true;focus;yes;795926;Chrome;113.0;Windows;10;undefined;undefined;2560 x 1440;2560 x 1440
H004;52;Mannelijk;Links;3;126;left;yes;700;undefined;null;true;focus;yes;797952;Chrome;113.0;Windows;10;undefined;undefined;2560 x 1440;2560 x 1440
H004;52;Mannelijk;Links;3;127;right;yes;750;undefined;null;true;focus;yes;799995;Chrome;113.0;Windows;10;undefined;undefined;2560 x 1440;2560 x 1440
H004;52;Mannelijk;Links;3;128;right;no;800;rightarrow;832;true;focus;yes;801606;Chrome;113.0;Windows;10;undefined;undefined;2560 x 1440;2560 x 1440
H004;52;Mannelijk;Links;4;1;left;yes;800;leftarrow;922;false;focus;yes;831850;Chrome;113.0;Windows;10;undefined;undefined;2560 x 1440;2560 x 1440
H004;52;Mannelijk;Links;4;2;right;no;750;undefined;null;false;focus;yes;833889;Chrome;113.0;Windows;10;undefined;undefined;2560 x 1440;2560 x 1440
H004;52;Mannelijk;Links;4;3;left;no;750;leftarrow;921;true;focus;yes;835588;Chrome;113.0;Windows;10;undefined;undefined;2560 x 1440;2560 x 1440
H004;52;Mannelijk;Links;4;4;right;yes;750;rightarrow;914;false;focus;yes;837267;Chrome;113.0;Windows;10;undefined;undefined;2560 x 1440;2560 x 1440
H004;52;Mannelijk;Links;4;5;left;no;700;leftarrow;1019;true;focus;yes;839068;Chrome;113.0;Windows;10;undefined;undefined;2560 x 1440;2560 x 1440
H004;52;Mannelijk;Links;4;6;right;no;700;rightarrow;833;true;focus;yes;840675;Chrome;113.0;Windows;10;undefined;undefined;2560 x 1440;2560 x 1440
H004;52;Mannelijk;Links;4;7;right;no;700;rightarrow;903;true;focus;yes;842352;Chrome;113.0;Windows;10;undefined;undefined;2560 x 1440;2560 x 1440
H004;52;Mannelijk;Links;4;8;left;no;700;leftarrow;938;true;focus;yes;844057;Chrome;113.0;Windows;10;undefined;undefined;2560 x 1440;2560 x 1440
H004;52;Mannelijk;Links;4;9;right;yes;700;undefined;null;true;focus;yes;846080;Chrome;113.0;Windows;10;undefined;undefined;2560 x 1440;2560 x 1440
H004;52;Mannelijk;Links;4;10;right;no;750;rightarrow;995;true;focus;yes;847859;Chrome;113.0;Windows;10;undefined;undefined;2560 x 1440;2560 x 1440
H004;52;Mannelijk;Links;4;11;left;no;750;leftarrow;1087;true;focus;yes;849716;Chrome;113.0;Windows;10;undefined;undefined;2560 x 1440;2560 x 1440
H004;52;Mannelijk;Links;4;12;left;yes;750;leftarrow;937;false;focus;yes;851425;Chrome;113.0;Windows;10;undefined;undefined;2560 x 1440;2560 x 1440
H004;52;Mannelijk;Links;4;13;left;no;700;leftarrow;920;true;focus;yes;853123;Chrome;113.0;Windows;10;undefined;undefined;2560 x 1440;2560 x 1440
H004;52;Mannelijk;Links;4;14;left;no;700;leftarrow;768;true;focus;yes;854673;Chrome;113.0;Windows;10;undefined;undefined;2560 x 1440;2560 x 1440
H004;52;Mannelijk;Links;4;15;right;no;700;rightarrow;1095;true;focus;yes;856548;Chrome;113.0;Windows;10;undefined;undefined;2560 x 1440;2560 x 1440
H004;52;Mannelijk;Links;4;16;right;no;700;rightarrow;709;true;focus;yes;858037;Chrome;113.0;Windows;10;undefined;undefined;2560 x 1440;2560 x 1440
H004;52;Mannelijk;Links;4;17;right;no;700;rightarrow;736;true;focus;yes;859551;Chrome;113.0;Windows;10;undefined;undefined;2560 x 1440;2560 x 1440
H004;52;Mannelijk;Links;4;18;right;yes;700;undefined;null;true;focus;yes;861579;Chrome;113.0;Windows;10;undefined;undefined;2560 x 1440;2560 x 1440
H004;52;Mannelijk;Links;4;19;left;yes;750;leftarrow;911;false;focus;yes;863270;Chrome;113.0;Windows;10;undefined;undefined;2560 x 1440;2560 x 1440
H004;52;Mannelijk;Links;4;20;right;no;700;rightarrow;1101;true;focus;yes;865145;Chrome;113.0;Windows;10;undefined;undefined;2560 x 1440;2560 x 1440
H004;52;Mannelijk;Links;4;21;left;no;700;leftarrow;1204;true;focus;yes;867121;Chrome;113.0;Windows;10;undefined;undefined;2560 x 1440;2560 x 1440
H004;52;Mannelijk;Links;4;22;left;no;700;leftarrow;1008;true;focus;yes;868903;Chrome;113.0;Windows;10;undefined;undefined;2560 x 1440;2560 x 1440
H004;52;Mannelijk;Links;4;23;left;no;700;leftarrow;1180;true;focus;yes;870852;Chrome;113.0;Windows;10;undefined;undefined;2560 x 1440;2560 x 1440
H004;52;Mannelijk;Links;4;24;right;no;700;rightarrow;1203;true;focus;yes;872822;Chrome;113.0;Windows;10;undefined;undefined;2560 x 1440;2560 x 1440
H004;52;Mannelijk;Links;4;25;right;no;700;rightarrow;829;true;focus;yes;874425;Chrome;113.0;Windows;10;undefined;undefined;2560 x 1440;2560 x 1440
H004;52;Mannelijk;Links;4;26;right;no;700;rightarrow;756;true;focus;yes;875958;Chrome;113.0;Windows;10;undefined;undefined;2560 x 1440;2560 x 1440
H004;52;Mannelijk;Links;4;27;right;yes;700;rightarrow;813;false;focus;yes;877547;Chrome;113.0;Windows;10;undefined;undefined;2560 x 1440;2560 x 1440
H004;52;Mannelijk;Links;4;28;left;yes;650;leftarrow;853;false;focus;yes;879162;Chrome;113.0;Windows;10;undefined;undefined;2560 x 1440;2560 x 1440
H004;52;Mannelijk;Links;4;29;left;no;600;undefined;null;false;focus;yes;881177;Chrome;113.0;Windows;10;undefined;undefined;2560 x 1440;2560 x 1440
H004;52;Mannelijk;Links;4;30;left;no;600;leftarrow;1246;true;focus;yes;883201;Chrome;113.0;Windows;10;undefined;undefined;2560 x 1440;2560 x 1440
H004;52;Mannelijk;Links;4;31;left;no;600;leftarrow;970;true;focus;yes;884937;Chrome;113.0;Windows;10;undefined;undefined;2560 x 1440;2560 x 1440
H004;52;Mannelijk;Links;4;32;right;no;600;rightarrow;948;true;focus;yes;886656;Chrome;113.0;Windows;10;undefined;undefined;2560 x 1440;2560 x 1440
H004;52;Mannelijk;Links;4;33;left;yes;600;leftarrow;531;false;focus;yes;887957;Chrome;113.0;Windows;10;undefined;undefined;2560 x 1440;2560 x 1440
H004;52;Mannelijk;Links;4;34;right;no;550;rightarrow;512;true;focus;yes;889234;Chrome;113.0;Windows;10;undefined;undefined;2560 x 1440;2560 x 1440
H004;52;Mannelijk;Links;4;35;right;yes;550;rightarrow;614;false;focus;yes;890613;Chrome;113.0;Windows;10;undefined;undefined;2560 x 1440;2560 x 1440
H004;52;Mannelijk;Links;4;36;left;no;500;leftarrow;685;true;focus;yes;892073;Chrome;113.0;Windows;10;undefined;undefined;2560 x 1440;2560 x 1440
H004;52;Mannelijk;Links;4;37;right;no;500;rightarrow;511;true;focus;yes;893362;Chrome;113.0;Windows;10;undefined;undefined;2560 x 1440;2560 x 1440
H004;52;Mannelijk;Links;4;38;right;no;500;rightarrow;620;true;focus;yes;894753;Chrome;113.0;Windows;10;undefined;undefined;2560 x 1440;2560 x 1440
H004;52;Mannelijk;Links;4;39;left;no;500;leftarrow;689;true;focus;yes;896210;Chrome;113.0;Windows;10;undefined;undefined;2560 x 1440;2560 x 1440
H004;52;Mannelijk;Links;4;40;left;no;500;leftarrow;781;true;focus;yes;897768;Chrome;113.0;Windows;10;undefined;undefined;2560 x 1440;2560 x 1440
H004;52;Mannelijk;Links;4;41;right;no;500;rightarrow;462;true;focus;yes;899005;Chrome;113.0;Windows;10;undefined;undefined;2560 x 1440;2560 x 1440
H004;52;Mannelijk;Links;4;42;right;no;500;rightarrow;694;true;focus;yes;900471;Chrome;113.0;Windows;10;undefined;undefined;2560 x 1440;2560 x 1440
H004;52;Mannelijk;Links;4;43;left;no;500;leftarrow;328;true;focus;yes;901567;Chrome;113.0;Windows;10;undefined;undefined;2560 x 1440;2560 x 1440
H004;52;Mannelijk;Links;4;44;left;no;500;leftarrow;498;true;focus;yes;902842;Chrome;113.0;Windows;10;undefined;undefined;2560 x 1440;2560 x 1440
H004;52;Mannelijk;Links;4;45;left;yes;500;leftarrow;443;false;focus;yes;904063;Chrome;113.0;Windows;10;undefined;undefined;2560 x 1440;2560 x 1440
H004;52;Mannelijk;Links;4;46;right;yes;450;rightarrow;414;false;focus;yes;905251;Chrome;113.0;Windows;10;undefined;undefined;2560 x 1440;2560 x 1440
H004;52;Mannelijk;Links;4;47;right;no;400;rightarrow;550;true;focus;yes;906569;Chrome;113.0;Windows;10;undefined;undefined;2560 x 1440;2560 x 1440
H004;52;Mannelijk;Links;4;48;left;no;400;leftarrow;418;true;focus;yes;907765;Chrome;113.0;Windows;10;undefined;undefined;2560 x 1440;2560 x 1440
H004;52;Mannelijk;Links;4;49;left;no;400;leftarrow;519;true;focus;yes;909061;Chrome;113.0;Windows;10;undefined;undefined;2560 x 1440;2560 x 1440
H004;52;Mannelijk;Links;4;50;right;yes;400;leftarrow;409;false;focus;yes;910249;Chrome;113.0;Windows;10;undefined;undefined;2560 x 1440;2560 x 1440
H004;52;Mannelijk;Links;4;51;left;no;350;leftarrow;452;true;focus;yes;911465;Chrome;113.0;Windows;10;undefined;undefined;2560 x 1440;2560 x 1440
H004;52;Mannelijk;Links;4;52;right;no;350;rightarrow;383;true;focus;yes;912623;Chrome;113.0;Windows;10;undefined;undefined;2560 x 1440;2560 x 1440
H004;52;Mannelijk;Links;4;53;left;no;350;leftarrow;373;true;focus;yes;913764;Chrome;113.0;Windows;10;undefined;undefined;2560 x 1440;2560 x 1440
H004;52;Mannelijk;Links;4;54;right;no;350;rightarrow;436;true;focus;yes;914980;Chrome;113.0;Windows;10;undefined;undefined;2560 x 1440;2560 x 1440
H004;52;Mannelijk;Links;4;55;left;yes;350;leftarrow;499;false;focus;yes;916259;Chrome;113.0;Windows;10;undefined;undefined;2560 x 1440;2560 x 1440
H004;52;Mannelijk;Links;4;56;right;no;300;rightarrow;596;true;focus;yes;917636;Chrome;113.0;Windows;10;undefined;undefined;2560 x 1440;2560 x 1440
H004;52;Mannelijk;Links;4;57;right;yes;300;undefined;null;true;focus;yes;919674;Chrome;113.0;Windows;10;undefined;undefined;2560 x 1440;2560 x 1440
H004;52;Mannelijk;Links;4;58;right;no;350;rightarrow;665;true;focus;yes;921120;Chrome;113.0;Windows;10;undefined;undefined;2560 x 1440;2560 x 1440
H004;52;Mannelijk;Links;4;59;right;no;350;rightarrow;520;true;focus;yes;922418;Chrome;113.0;Windows;10;undefined;undefined;2560 x 1440;2560 x 1440
H004;52;Mannelijk;Links;4;60;left;no;350;leftarrow;540;true;focus;yes;923734;Chrome;113.0;Windows;10;undefined;undefined;2560 x 1440;2560 x 1440
H004;52;Mannelijk;Links;4;61;right;no;350;rightarrow;581;true;focus;yes;925078;Chrome;113.0;Windows;10;undefined;undefined;2560 x 1440;2560 x 1440
H004;52;Mannelijk;Links;4;62;left;yes;350;leftarrow;487;false;focus;yes;926339;Chrome;113.0;Windows;10;undefined;undefined;2560 x 1440;2560 x 1440
H004;52;Mannelijk;Links;4;63;left;no;300;leftarrow;526;true;focus;yes;927638;Chrome;113.0;Windows;10;undefined;undefined;2560 x 1440;2560 x 1440
H004;52;Mannelijk;Links;4;64;left;no;300;leftarrow;523;true;focus;yes;928934;Chrome;113.0;Windows;10;undefined;undefined;2560 x 1440;2560 x 1440
H004;52;Mannelijk;Links;4;65;left;yes;300;undefined;null;true;focus;yes;930969;Chrome;113.0;Windows;10;undefined;undefined;2560 x 1440;2560 x 1440
H004;52;Mannelijk;Links;4;66;left;no;350;leftarrow;736;true;focus;yes;932485;Chrome;113.0;Windows;10;undefined;undefined;2560 x 1440;2560 x 1440
H004;52;Mannelijk;Links;4;67;left;no;350;leftarrow;465;true;focus;yes;933717;Chrome;113.0;Windows;10;undefined;undefined;2560 x 1440;2560 x 1440
H004;52;Mannelijk;Links;4;68;right;no;350;rightarrow;489;true;focus;yes;934987;Chrome;113.0;Windows;10;undefined;undefined;2560 x 1440;2560 x 1440
H004;52;Mannelijk;Links;4;69;right;no;350;rightarrow;503;true;focus;yes;936267;Chrome;113.0;Windows;10;undefined;undefined;2560 x 1440;2560 x 1440
H004;52;Mannelijk;Links;4;70;left;no;350;leftarrow;457;true;focus;yes;937504;Chrome;113.0;Windows;10;undefined;undefined;2560 x 1440;2560 x 1440
H004;52;Mannelijk;Links;4;71;right;yes;350;undefined;null;true;focus;yes;939543;Chrome;113.0;Windows;10;undefined;undefined;2560 x 1440;2560 x 1440
H004;52;Mannelijk;Links;4;72;right;no;400;rightarrow;651;true;focus;yes;940959;Chrome;113.0;Windows;10;undefined;undefined;2560 x 1440;2560 x 1440
H004;52;Mannelijk;Links;4;73;right;no;400;rightarrow;677;true;focus;yes;942405;Chrome;113.0;Windows;10;undefined;undefined;2560 x 1440;2560 x 1440
H004;52;Mannelijk;Links;4;74;right;no;400;rightarrow;512;true;focus;yes;943690;Chrome;113.0;Windows;10;undefined;undefined;2560 x 1440;2560 x 1440
H004;52;Mannelijk;Links;4;75;right;yes;400;rightarrow;392;false;focus;yes;944849;Chrome;113.0;Windows;10;undefined;undefined;2560 x 1440;2560 x 1440
H004;52;Mannelijk;Links;4;76;left;yes;350;leftarrow;611;false;focus;yes;946238;Chrome;113.0;Windows;10;undefined;undefined;2560 x 1440;2560 x 1440
H004;52;Mannelijk;Links;4;77;left;no;300;leftarrow;820;true;focus;yes;947839;Chrome;113.0;Windows;10;undefined;undefined;2560 x 1440;2560 x 1440
H004;52;Mannelijk;Links;4;78;left;no;300;leftarrow;717;true;focus;yes;949325;Chrome;113.0;Windows;10;undefined;undefined;2560 x 1440;2560 x 1440
H004;52;Mannelijk;Links;4;79;right;no;300;rightarrow;580;true;focus;yes;950690;Chrome;113.0;Windows;10;undefined;undefined;2560 x 1440;2560 x 1440
H004;52;Mannelijk;Links;4;80;left;no;300;leftarrow;576;true;focus;yes;952040;Chrome;113.0;Windows;10;undefined;undefined;2560 x 1440;2560 x 1440
H004;52;Mannelijk;Links;4;81;right;yes;300;rightarrow;537;false;focus;yes;953342;Chrome;113.0;Windows;10;undefined;undefined;2560 x 1440;2560 x 1440
H004;52;Mannelijk;Links;4;82;right;no;250;rightarrow;537;true;focus;yes;954651;Chrome;113.0;Windows;10;undefined;undefined;2560 x 1440;2560 x 1440
H004;52;Mannelijk;Links;4;83;right;no;250;rightarrow;724;true;focus;yes;956147;Chrome;113.0;Windows;10;undefined;undefined;2560 x 1440;2560 x 1440
H004;52;Mannelijk;Links;4;84;left;no;250;leftarrow;587;true;focus;yes;957508;Chrome;113.0;Windows;10;undefined;undefined;2560 x 1440;2560 x 1440
H004;52;Mannelijk;Links;4;85;left;no;250;leftarrow;746;true;focus;yes;959025;Chrome;113.0;Windows;10;undefined;undefined;2560 x 1440;2560 x 1440
H004;52;Mannelijk;Links;4;86;right;no;250;rightarrow;563;true;focus;yes;960370;Chrome;113.0;Windows;10;undefined;undefined;2560 x 1440;2560 x 1440
H004;52;Mannelijk;Links;4;87;left;no;250;leftarrow;650;true;focus;yes;961796;Chrome;113.0;Windows;10;undefined;undefined;2560 x 1440;2560 x 1440
H004;52;Mannelijk;Links;4;88;left;yes;250;undefined;null;true;focus;yes;963814;Chrome;113.0;Windows;10;undefined;undefined;2560 x 1440;2560 x 1440
H004;52;Mannelijk;Links;4;89;left;no;300;leftarrow;651;true;focus;yes;965244;Chrome;113.0;Windows;10;undefined;undefined;2560 x 1440;2560 x 1440
H004;52;Mannelijk;Links;4;90;left;no;300;leftarrow;571;true;focus;yes;966576;Chrome;113.0;Windows;10;undefined;undefined;2560 x 1440;2560 x 1440
H004;52;Mannelijk;Links;4;91;right;yes;300;undefined;null;true;focus;yes;968607;Chrome;113.0;Windows;10;undefined;undefined;2560 x 1440;2560 x 1440
H004;52;Mannelijk;Links;4;92;left;no;350;leftarrow;700;true;focus;yes;970073;Chrome;113.0;Windows;10;undefined;undefined;2560 x 1440;2560 x 1440
H004;52;Mannelijk;Links;4;93;right;no;350;rightarrow;566;true;focus;yes;971416;Chrome;113.0;Windows;10;undefined;undefined;2560 x 1440;2560 x 1440
H004;52;Mannelijk;Links;4;94;right;no;350;rightarrow;513;true;focus;yes;972712;Chrome;113.0;Windows;10;undefined;undefined;2560 x 1440;2560 x 1440
H004;52;Mannelijk;Links;4;95;left;yes;350;undefined;null;true;focus;yes;974745;Chrome;113.0;Windows;10;undefined;undefined;2560 x 1440;2560 x 1440
H004;52;Mannelijk;Links;4;96;right;no;400;rightarrow;728;true;focus;yes;976253;Chrome;113.0;Windows;10;undefined;undefined;2560 x 1440;2560 x 1440
H004;52;Mannelijk;Links;4;97;right;no;400;rightarrow;723;true;focus;yes;977744;Chrome;113.0;Windows;10;undefined;undefined;2560 x 1440;2560 x 1440
H004;52;Mannelijk;Links;4;98;left;no;400;leftarrow;446;true;focus;yes;978963;Chrome;113.0;Windows;10;undefined;undefined;2560 x 1440;2560 x 1440
H004;52;Mannelijk;Links;4;99;right;no;400;rightarrow;529;true;focus;yes;980260;Chrome;113.0;Windows;10;undefined;undefined;2560 x 1440;2560 x 1440
H004;52;Mannelijk;Links;4;100;left;no;400;leftarrow;540;true;focus;yes;981565;Chrome;113.0;Windows;10;undefined;undefined;2560 x 1440;2560 x 1440
H004;52;Mannelijk;Links;4;101;left;no;400;leftarrow;583;true;focus;yes;982924;Chrome;113.0;Windows;10;undefined;undefined;2560 x 1440;2560 x 1440
H004;52;Mannelijk;Links;4;102;right;yes;400;rightarrow;573;false;focus;yes;984257;Chrome;113.0;Windows;10;undefined;undefined;2560 x 1440;2560 x 1440
H004;52;Mannelijk;Links;4;103;right;no;350;rightarrow;532;true;focus;yes;985558;Chrome;113.0;Windows;10;undefined;undefined;2560 x 1440;2560 x 1440
H004;52;Mannelijk;Links;4;104;left;yes;350;leftarrow;573;false;focus;yes;986908;Chrome;113.0;Windows;10;undefined;undefined;2560 x 1440;2560 x 1440
H004;52;Mannelijk;Links;4;105;left;no;300;leftarrow;702;true;focus;yes;988365;Chrome;113.0;Windows;10;undefined;undefined;2560 x 1440;2560 x 1440
H004;52;Mannelijk;Links;4;106;right;no;300;rightarrow;747;true;focus;yes;989894;Chrome;113.0;Windows;10;undefined;undefined;2560 x 1440;2560 x 1440
H004;52;Mannelijk;Links;4;107;right;yes;300;undefined;null;true;focus;yes;991938;Chrome;113.0;Windows;10;undefined;undefined;2560 x 1440;2560 x 1440
H004;52;Mannelijk;Links;4;108;left;no;350;leftarrow;497;true;focus;yes;993199;Chrome;113.0;Windows;10;undefined;undefined;2560 x 1440;2560 x 1440
H004;52;Mannelijk;Links;4;109;right;no;350;rightarrow;728;true;focus;yes;994709;Chrome;113.0;Windows;10;undefined;undefined;2560 x 1440;2560 x 1440
H004;52;Mannelijk;Links;4;110;left;no;350;leftarrow;569;true;focus;yes;996052;Chrome;113.0;Windows;10;undefined;undefined;2560 x 1440;2560 x 1440
H004;52;Mannelijk;Links;4;111;left;yes;350;undefined;null;true;focus;yes;998074;Chrome;113.0;Windows;10;undefined;undefined;2560 x 1440;2560 x 1440
H004;52;Mannelijk;Links;4;112;right;no;400;rightarrow;600;true;focus;yes;999439;Chrome;113.0;Windows;10;undefined;undefined;2560 x 1440;2560 x 1440
H004;52;Mannelijk;Links;4;113;right;no;400;rightarrow;792;true;focus;yes;1001011;Chrome;113.0;Windows;10;undefined;undefined;2560 x 1440;2560 x 1440
H004;52;Mannelijk;Links;4;114;right;yes;400;undefined;null;true;focus;yes;1003042;Chrome;113.0;Windows;10;undefined;undefined;2560 x 1440;2560 x 1440
H004;52;Mannelijk;Links;4;115;left;yes;450;undefined;null;true;focus;yes;1005089;Chrome;113.0;Windows;10;undefined;undefined;2560 x 1440;2560 x 1440
H004;52;Mannelijk;Links;4;116;right;no;500;rightarrow;929;true;focus;yes;1006781;Chrome;113.0;Windows;10;undefined;undefined;2560 x 1440;2560 x 1440
H004;52;Mannelijk;Links;4;117;left;no;500;leftarrow;689;true;focus;yes;1008241;Chrome;113.0;Windows;10;undefined;undefined;2560 x 1440;2560 x 1440
H004;52;Mannelijk;Links;4;118;left;no;500;leftarrow;557;true;focus;yes;1009575;Chrome;113.0;Windows;10;undefined;undefined;2560 x 1440;2560 x 1440
H004;52;Mannelijk;Links;4;119;right;no;500;rightarrow;757;true;focus;yes;1011116;Chrome;113.0;Windows;10;undefined;undefined;2560 x 1440;2560 x 1440
H004;52;Mannelijk;Links;4;120;left;no;500;leftarrow;624;true;focus;yes;1012515;Chrome;113.0;Windows;10;undefined;undefined;2560 x 1440;2560 x 1440
H004;52;Mannelijk;Links;4;121;left;yes;500;leftarrow;690;false;focus;yes;1013985;Chrome;113.0;Windows;10;undefined;undefined;2560 x 1440;2560 x 1440
H004;52;Mannelijk;Links;4;122;right;no;450;rightarrow;989;true;focus;yes;1015745;Chrome;113.0;Windows;10;undefined;undefined;2560 x 1440;2560 x 1440
H004;52;Mannelijk;Links;4;123;left;no;450;leftarrow;898;true;focus;yes;1017410;Chrome;113.0;Windows;10;undefined;undefined;2560 x 1440;2560 x 1440
H004;52;Mannelijk;Links;4;124;right;no;450;rightarrow;601;true;focus;yes;1018787;Chrome;113.0;Windows;10;undefined;undefined;2560 x 1440;2560 x 1440
H004;52;Mannelijk;Links;4;125;right;yes;450;rightarrow;672;false;focus;yes;1020228;Chrome;113.0;Windows;10;undefined;undefined;2560 x 1440;2560 x 1440
H004;52;Mannelijk;Links;4;126;right;no;400;rightarrow;789;true;focus;yes;1021794;Chrome;113.0;Windows;10;undefined;undefined;2560 x 1440;2560 x 1440
H004;52;Mannelijk;Links;4;127;left;no;400;leftarrow;810;true;focus;yes;1023378;Chrome;113.0;Windows;10;undefined;undefined;2560 x 1440;2560 x 1440
H004;52;Mannelijk;Links;4;128;left;no;400;leftarrow;495;true;focus;yes;1024652;Chrome;113.0;Windows;10;undefined;undefined;2560 x 1440;2560 x 1440
H004;52;Mannelijk;Links;5;1;left;yes;400;leftarrow;679;false;focus;yes;1045927;Chrome;113.0;Windows;10;undefined;undefined;2560 x 1440;2560 x 1440
H004;52;Mannelijk;Links;5;2;right;no;350;rightarrow;600;true;focus;yes;1047281;Chrome;113.0;Windows;10;undefined;undefined;2560 x 1440;2560 x 1440
H004;52;Mannelijk;Links;5;3;left;no;350;leftarrow;435;true;focus;yes;1048470;Chrome;113.0;Windows;10;undefined;undefined;2560 x 1440;2560 x 1440
H004;52;Mannelijk;Links;5;4;right;no;350;rightarrow;472;true;focus;yes;1049723;Chrome;113.0;Windows;10;undefined;undefined;2560 x 1440;2560 x 1440
H004;52;Mannelijk;Links;5;5;right;no;350;rightarrow;429;true;focus;yes;1050913;Chrome;113.0;Windows;10;undefined;undefined;2560 x 1440;2560 x 1440
H004;52;Mannelijk;Links;5;6;left;no;350;leftarrow;392;true;focus;yes;1052063;Chrome;113.0;Windows;10;undefined;undefined;2560 x 1440;2560 x 1440
H004;52;Mannelijk;Links;5;7;right;yes;350;rightarrow;311;false;focus;yes;1053152;Chrome;113.0;Windows;10;undefined;undefined;2560 x 1440;2560 x 1440
H004;52;Mannelijk;Links;5;8;left;no;300;leftarrow;345;true;focus;yes;1054263;Chrome;113.0;Windows;10;undefined;undefined;2560 x 1440;2560 x 1440
H004;52;Mannelijk;Links;5;9;left;no;300;leftarrow;363;true;focus;yes;1055390;Chrome;113.0;Windows;10;undefined;undefined;2560 x 1440;2560 x 1440
H004;52;Mannelijk;Links;5;10;right;no;300;rightarrow;472;true;focus;yes;1056635;Chrome;113.0;Windows;10;undefined;undefined;2560 x 1440;2560 x 1440
H004;52;Mannelijk;Links;5;11;left;no;300;leftarrow;418;true;focus;yes;1057828;Chrome;113.0;Windows;10;undefined;undefined;2560 x 1440;2560 x 1440
H004;52;Mannelijk;Links;5;12;right;no;300;rightarrow;445;true;focus;yes;1059042;Chrome;113.0;Windows;10;undefined;undefined;2560 x 1440;2560 x 1440
H004;52;Mannelijk;Links;5;13;left;yes;300;leftarrow;302;false;focus;yes;1060119;Chrome;113.0;Windows;10;undefined;undefined;2560 x 1440;2560 x 1440
H004;52;Mannelijk;Links;5;14;left;no;250;leftarrow;514;true;focus;yes;1061407;Chrome;113.0;Windows;10;undefined;undefined;2560 x 1440;2560 x 1440
H004;52;Mannelijk;Links;5;15;right;no;250;rightarrow;498;true;focus;yes;1062684;Chrome;113.0;Windows;10;undefined;undefined;2560 x 1440;2560 x 1440
H004;52;Mannelijk;Links;5;16;right;yes;250;rightarrow;421;false;focus;yes;1063866;Chrome;113.0;Windows;10;undefined;undefined;2560 x 1440;2560 x 1440
H004;52;Mannelijk;Links;5;17;left;no;200;leftarrow;642;true;focus;yes;1065286;Chrome;113.0;Windows;10;undefined;undefined;2560 x 1440;2560 x 1440
H004;52;Mannelijk;Links;5;18;left;no;200;leftarrow;731;true;focus;yes;1066793;Chrome;113.0;Windows;10;undefined;undefined;2560 x 1440;2560 x 1440
H004;52;Mannelijk;Links;5;19;left;no;200;leftarrow;496;true;focus;yes;1068057;Chrome;113.0;Windows;10;undefined;undefined;2560 x 1440;2560 x 1440
H004;52;Mannelijk;Links;5;20;right;no;200;rightarrow;610;true;focus;yes;1069449;Chrome;113.0;Windows;10;undefined;undefined;2560 x 1440;2560 x 1440
H004;52;Mannelijk;Links;5;21;left;yes;200;undefined;null;true;focus;yes;1071476;Chrome;113.0;Windows;10;undefined;undefined;2560 x 1440;2560 x 1440
H004;52;Mannelijk;Links;5;22;right;yes;250;rightarrow;512;false;focus;yes;1072756;Chrome;113.0;Windows;10;undefined;undefined;2560 x 1440;2560 x 1440
H004;52;Mannelijk;Links;5;23;right;no;200;leftarrow;1151;false;focus;yes;1074679;Chrome;113.0;Windows;10;undefined;undefined;2560 x 1440;2560 x 1440
H004;52;Mannelijk;Links;5;24;right;no;200;rightarrow;634;true;focus;yes;1076070;Chrome;113.0;Windows;10;undefined;undefined;2560 x 1440;2560 x 1440
H004;52;Mannelijk;Links;5;25;left;no;200;leftarrow;535;true;focus;yes;1077373;Chrome;113.0;Windows;10;undefined;undefined;2560 x 1440;2560 x 1440
H004;52;Mannelijk;Links;5;26;right;no;200;rightarrow;683;true;focus;yes;1078830;Chrome;113.0;Windows;10;undefined;undefined;2560 x 1440;2560 x 1440
H004;52;Mannelijk;Links;5;27;right;yes;200;undefined;null;true;focus;yes;1080862;Chrome;113.0;Windows;10;undefined;undefined;2560 x 1440;2560 x 1440
H004;52;Mannelijk;Links;5;28;left;no;250;leftarrow;613;true;focus;yes;1082253;Chrome;113.0;Windows;10;undefined;undefined;2560 x 1440;2560 x 1440
H004;52;Mannelijk;Links;5;29;left;no;250;leftarrow;754;true;focus;yes;1083780;Chrome;113.0;Windows;10;undefined;undefined;2560 x 1440;2560 x 1440
H004;52;Mannelijk;Links;5;30;left;yes;250;undefined;null;true;focus;yes;1085795;Chrome;113.0;Windows;10;undefined;undefined;2560 x 1440;2560 x 1440
H004;52;Mannelijk;Links;5;31;right;no;300;rightarrow;446;true;focus;yes;1087007;Chrome;113.0;Windows;10;undefined;undefined;2560 x 1440;2560 x 1440
H004;52;Mannelijk;Links;5;32;right;no;300;rightarrow;692;true;focus;yes;1088454;Chrome;113.0;Windows;10;undefined;undefined;2560 x 1440;2560 x 1440
H004;52;Mannelijk;Links;5;33;right;no;300;rightarrow;784;true;focus;yes;1090003;Chrome;113.0;Windows;10;undefined;undefined;2560 x 1440;2560 x 1440
H004;52;Mannelijk;Links;5;34;left;no;300;leftarrow;761;true;focus;yes;1091533;Chrome;113.0;Windows;10;undefined;undefined;2560 x 1440;2560 x 1440
H004;52;Mannelijk;Links;5;35;left;no;300;leftarrow;784;true;focus;yes;1093084;Chrome;113.0;Windows;10;undefined;undefined;2560 x 1440;2560 x 1440
H004;52;Mannelijk;Links;5;36;right;yes;300;undefined;null;true;focus;yes;1095123;Chrome;113.0;Windows;10;undefined;undefined;2560 x 1440;2560 x 1440
H004;52;Mannelijk;Links;5;37;left;no;350;leftarrow;565;true;focus;yes;1096471;Chrome;113.0;Windows;10;undefined;undefined;2560 x 1440;2560 x 1440
H004;52;Mannelijk;Links;5;38;right;no;350;rightarrow;766;true;focus;yes;1098013;Chrome;113.0;Windows;10;undefined;undefined;2560 x 1440;2560 x 1440
H004;52;Mannelijk;Links;5;39;right;no;350;rightarrow;872;true;focus;yes;1099661;Chrome;113.0;Windows;10;undefined;undefined;2560 x 1440;2560 x 1440
H004;52;Mannelijk;Links;5;40;left;yes;350;undefined;null;true;focus;yes;1101688;Chrome;113.0;Windows;10;undefined;undefined;2560 x 1440;2560 x 1440
H004;52;Mannelijk;Links;5;41;left;no;400;leftarrow;535;true;focus;yes;1102989;Chrome;113.0;Windows;10;undefined;undefined;2560 x 1440;2560 x 1440
H004;52;Mannelijk;Links;5;42;left;yes;400;undefined;null;true;focus;yes;1105025;Chrome;113.0;Windows;10;undefined;undefined;2560 x 1440;2560 x 1440
H004;52;Mannelijk;Links;5;43;left;no;450;leftarrow;593;true;focus;yes;1106384;Chrome;113.0;Windows;10;undefined;undefined;2560 x 1440;2560 x 1440
H004;52;Mannelijk;Links;5;44;right;no;450;rightarrow;973;true;focus;yes;1108133;Chrome;113.0;Windows;10;undefined;undefined;2560 x 1440;2560 x 1440
H004;52;Mannelijk;Links;5;45;left;no;450;leftarrow;1121;true;focus;yes;1110027;Chrome;113.0;Windows;10;undefined;undefined;2560 x 1440;2560 x 1440
H004;52;Mannelijk;Links;5;46;right;no;450;rightarrow;490;true;focus;yes;1111296;Chrome;113.0;Windows;10;undefined;undefined;2560 x 1440;2560 x 1440
H004;52;Mannelijk;Links;5;47;right;no;450;rightarrow;541;true;focus;yes;1112611;Chrome;113.0;Windows;10;undefined;undefined;2560 x 1440;2560 x 1440
H004;52;Mannelijk;Links;5;48;right;yes;450;rightarrow;506;false;focus;yes;1113899;Chrome;113.0;Windows;10;undefined;undefined;2560 x 1440;2560 x 1440
H004;52;Mannelijk;Links;5;49;left;no;400;leftarrow;526;true;focus;yes;1115196;Chrome;113.0;Windows;10;undefined;undefined;2560 x 1440;2560 x 1440
H004;52;Mannelijk;Links;5;50;right;yes;400;undefined;null;true;focus;yes;1117233;Chrome;113.0;Windows;10;undefined;undefined;2560 x 1440;2560 x 1440
H004;52;Mannelijk;Links;5;51;left;no;450;leftarrow;503;true;focus;yes;1118504;Chrome;113.0;Windows;10;undefined;undefined;2560 x 1440;2560 x 1440
H004;52;Mannelijk;Links;5;52;right;no;450;rightarrow;773;true;focus;yes;1120051;Chrome;113.0;Windows;10;undefined;undefined;2560 x 1440;2560 x 1440
H004;52;Mannelijk;Links;5;53;left;yes;450;leftarrow;643;false;focus;yes;1121454;Chrome;113.0;Windows;10;undefined;undefined;2560 x 1440;2560 x 1440
H004;52;Mannelijk;Links;5;54;right;no;400;rightarrow;823;true;focus;yes;1123056;Chrome;113.0;Windows;10;undefined;undefined;2560 x 1440;2560 x 1440
H004;52;Mannelijk;Links;5;55;right;no;400;rightarrow;797;true;focus;yes;1124610;Chrome;113.0;Windows;10;undefined;undefined;2560 x 1440;2560 x 1440
H004;52;Mannelijk;Links;5;56;left;no;400;leftarrow;801;true;focus;yes;1126193;Chrome;113.0;Windows;10;undefined;undefined;2560 x 1440;2560 x 1440
H004;52;Mannelijk;Links;5;57;right;no;400;rightarrow;726;true;focus;yes;1127694;Chrome;113.0;Windows;10;undefined;undefined;2560 x 1440;2560 x 1440
H004;52;Mannelijk;Links;5;58;right;no;400;rightarrow;742;true;focus;yes;1129206;Chrome;113.0;Windows;10;undefined;undefined;2560 x 1440;2560 x 1440
H004;52;Mannelijk;Links;5;59;left;no;400;leftarrow;736;true;focus;yes;1130715;Chrome;113.0;Windows;10;undefined;undefined;2560 x 1440;2560 x 1440
H004;52;Mannelijk;Links;5;60;right;yes;400;rightarrow;663;false;focus;yes;1132154;Chrome;113.0;Windows;10;undefined;undefined;2560 x 1440;2560 x 1440
H004;52;Mannelijk;Links;5;61;right;no;350;rightarrow;863;true;focus;yes;1133788;Chrome;113.0;Windows;10;undefined;undefined;2560 x 1440;2560 x 1440
H004;52;Mannelijk;Links;5;62;left;yes;350;undefined;null;true;focus;yes;1135807;Chrome;113.0;Windows;10;undefined;undefined;2560 x 1440;2560 x 1440
H004;52;Mannelijk;Links;5;63;left;no;400;leftarrow;655;true;focus;yes;1137242;Chrome;113.0;Windows;10;undefined;undefined;2560 x 1440;2560 x 1440
H004;52;Mannelijk;Links;5;64;left;no;400;leftarrow;664;true;focus;yes;1138685;Chrome;113.0;Windows;10;undefined;undefined;2560 x 1440;2560 x 1440
H004;52;Mannelijk;Links;5;65;right;no;400;rightarrow;906;true;focus;yes;1140362;Chrome;113.0;Windows;10;undefined;undefined;2560 x 1440;2560 x 1440
H004;52;Mannelijk;Links;5;66;right;no;400;rightarrow;801;true;focus;yes;1141943;Chrome;113.0;Windows;10;undefined;undefined;2560 x 1440;2560 x 1440
H004;52;Mannelijk;Links;5;67;left;no;400;leftarrow;935;true;focus;yes;1143650;Chrome;113.0;Windows;10;undefined;undefined;2560 x 1440;2560 x 1440
H004;52;Mannelijk;Links;5;68;right;no;400;rightarrow;953;true;focus;yes;1145364;Chrome;113.0;Windows;10;undefined;undefined;2560 x 1440;2560 x 1440
H004;52;Mannelijk;Links;5;69;left;yes;400;undefined;null;true;focus;yes;1147388;Chrome;113.0;Windows;10;undefined;undefined;2560 x 1440;2560 x 1440
H004;52;Mannelijk;Links;5;70;left;no;450;leftarrow;679;true;focus;yes;1148835;Chrome;113.0;Windows;10;undefined;undefined;2560 x 1440;2560 x 1440
H004;52;Mannelijk;Links;5;71;right;yes;450;undefined;null;true;focus;yes;1150863;Chrome;113.0;Windows;10;undefined;undefined;2560 x 1440;2560 x 1440
H004;52;Mannelijk;Links;5;72;left;no;500;leftarrow;712;true;focus;yes;1152358;Chrome;113.0;Windows;10;undefined;undefined;2560 x 1440;2560 x 1440
H004;52;Mannelijk;Links;5;73;right;no;500;rightarrow;682;true;focus;yes;1153817;Chrome;113.0;Windows;10;undefined;undefined;2560 x 1440;2560 x 1440
H004;52;Mannelijk;Links;5;74;left;no;500;leftarrow;1032;true;focus;yes;1155607;Chrome;113.0;Windows;10;undefined;undefined;2560 x 1440;2560 x 1440
H004;52;Mannelijk;Links;5;75;right;yes;500;undefined;null;true;focus;yes;1157644;Chrome;113.0;Windows;10;undefined;undefined;2560 x 1440;2560 x 1440
H004;52;Mannelijk;Links;5;76;left;no;550;leftarrow;683;true;focus;yes;1159109;Chrome;113.0;Windows;10;undefined;undefined;2560 x 1440;2560 x 1440
H004;52;Mannelijk;Links;5;77;left;no;550;leftarrow;644;true;focus;yes;1160525;Chrome;113.0;Windows;10;undefined;undefined;2560 x 1440;2560 x 1440
H004;52;Mannelijk;Links;5;78;right;no;550;rightarrow;478;true;focus;yes;1161778;Chrome;113.0;Windows;10;undefined;undefined;2560 x 1440;2560 x 1440
H004;52;Mannelijk;Links;5;79;left;yes;550;leftarrow;454;false;focus;yes;1163013;Chrome;113.0;Windows;10;undefined;undefined;2560 x 1440;2560 x 1440
H004;52;Mannelijk;Links;5;80;right;no;500;rightarrow;656;true;focus;yes;1164447;Chrome;113.0;Windows;10;undefined;undefined;2560 x 1440;2560 x 1440
H004;52;Mannelijk;Links;5;81;right;no;500;rightarrow;603;true;focus;yes;1165814;Chrome;113.0;Windows;10;undefined;undefined;2560 x 1440;2560 x 1440
H004;52;Mannelijk;Links;5;82;left;yes;500;leftarrow;837;false;focus;yes;1167420;Chrome;113.0;Windows;10;undefined;undefined;2560 x 1440;2560 x 1440
H004;52;Mannelijk;Links;5;83;right;no;450;rightarrow;593;true;focus;yes;1168774;Chrome;113.0;Windows;10;undefined;undefined;2560 x 1440;2560 x 1440
H004;52;Mannelijk;Links;5;84;left;no;450;leftarrow;927;true;focus;yes;1170478;Chrome;113.0;Windows;10;undefined;undefined;2560 x 1440;2560 x 1440
H004;52;Mannelijk;Links;5;85;right;yes;450;undefined;null;true;focus;yes;1172499;Chrome;113.0;Windows;10;undefined;undefined;2560 x 1440;2560 x 1440
H004;52;Mannelijk;Links;5;86;left;no;500;leftarrow;565;true;focus;yes;1173847;Chrome;113.0;Windows;10;undefined;undefined;2560 x 1440;2560 x 1440
H004;52;Mannelijk;Links;5;87;left;no;500;leftarrow;618;true;focus;yes;1175242;Chrome;113.0;Windows;10;undefined;undefined;2560 x 1440;2560 x 1440
H004;52;Mannelijk;Links;5;88;right;no;500;rightarrow;660;true;focus;yes;1176676;Chrome;113.0;Windows;10;undefined;undefined;2560 x 1440;2560 x 1440
H004;52;Mannelijk;Links;5;89;right;no;500;rightarrow;674;true;focus;yes;1178126;Chrome;113.0;Windows;10;undefined;undefined;2560 x 1440;2560 x 1440
H004;52;Mannelijk;Links;5;90;left;yes;500;undefined;null;true;focus;yes;1180158;Chrome;113.0;Windows;10;undefined;undefined;2560 x 1440;2560 x 1440
H004;52;Mannelijk;Links;5;91;left;no;550;leftarrow;691;true;focus;yes;1181628;Chrome;113.0;Windows;10;undefined;undefined;2560 x 1440;2560 x 1440
H004;52;Mannelijk;Links;5;92;left;no;550;leftarrow;655;true;focus;yes;1183062;Chrome;113.0;Windows;10;undefined;undefined;2560 x 1440;2560 x 1440
H004;52;Mannelijk;Links;5;93;right;yes;550;undefined;null;true;focus;yes;1185098;Chrome;113.0;Windows;10;undefined;undefined;2560 x 1440;2560 x 1440
H004;52;Mannelijk;Links;5;94;right;no;600;rightarrow;554;true;focus;yes;1186432;Chrome;113.0;Windows;10;undefined;undefined;2560 x 1440;2560 x 1440
H004;52;Mannelijk;Links;5;95;right;no;600;rightarrow;538;true;focus;yes;1187745;Chrome;113.0;Windows;10;undefined;undefined;2560 x 1440;2560 x 1440
H004;52;Mannelijk;Links;5;96;left;no;600;leftarrow;765;true;focus;yes;1189280;Chrome;113.0;Windows;10;undefined;undefined;2560 x 1440;2560 x 1440
H004;52;Mannelijk;Links;5;97;right;no;600;rightarrow;739;true;focus;yes;1190800;Chrome;113.0;Windows;10;undefined;undefined;2560 x 1440;2560 x 1440
H004;52;Mannelijk;Links;5;98;left;yes;600;leftarrow;554;false;focus;yes;1192115;Chrome;113.0;Windows;10;undefined;undefined;2560 x 1440;2560 x 1440
H004;52;Mannelijk;Links;5;99;left;no;550;leftarrow;796;true;focus;yes;1193665;Chrome;113.0;Windows;10;undefined;undefined;2560 x 1440;2560 x 1440
H004;52;Mannelijk;Links;5;100;left;no;550;leftarrow;662;true;focus;yes;1195107;Chrome;113.0;Windows;10;undefined;undefined;2560 x 1440;2560 x 1440
H004;52;Mannelijk;Links;5;101;right;no;550;rightarrow;896;true;focus;yes;1196773;Chrome;113.0;Windows;10;undefined;undefined;2560 x 1440;2560 x 1440
H004;52;Mannelijk;Links;5;102;right;no;550;rightarrow;662;true;focus;yes;1198204;Chrome;113.0;Windows;10;undefined;undefined;2560 x 1440;2560 x 1440
H004;52;Mannelijk;Links;5;103;right;yes;550;undefined;null;true;focus;yes;1200235;Chrome;113.0;Windows;10;undefined;undefined;2560 x 1440;2560 x 1440
H004;52;Mannelijk;Links;5;104;left;no;600;leftarrow;748;true;focus;yes;1201751;Chrome;113.0;Windows;10;undefined;undefined;2560 x 1440;2560 x 1440
H004;52;Mannelijk;Links;5;105;left;no;600;leftarrow;620;true;focus;yes;1203148;Chrome;113.0;Windows;10;undefined;undefined;2560 x 1440;2560 x 1440
H004;52;Mannelijk;Links;5;106;left;no;600;leftarrow;561;true;focus;yes;1204480;Chrome;113.0;Windows;10;undefined;undefined;2560 x 1440;2560 x 1440
H004;52;Mannelijk;Links;5;107;right;no;600;rightarrow;697;true;focus;yes;1205943;Chrome;113.0;Windows;10;undefined;undefined;2560 x 1440;2560 x 1440
H004;52;Mannelijk;Links;5;108;right;no;600;rightarrow;694;true;focus;yes;1207411;Chrome;113.0;Windows;10;undefined;undefined;2560 x 1440;2560 x 1440
H004;52;Mannelijk;Links;5;109;right;no;600;rightarrow;738;true;focus;yes;1208905;Chrome;113.0;Windows;10;undefined;undefined;2560 x 1440;2560 x 1440
H004;52;Mannelijk;Links;5;110;left;yes;600;undefined;null;true;focus;yes;1210943;Chrome;113.0;Windows;10;undefined;undefined;2560 x 1440;2560 x 1440
H004;52;Mannelijk;Links;5;111;left;no;650;leftarrow;425;true;focus;yes;1212147;Chrome;113.0;Windows;10;undefined;undefined;2560 x 1440;2560 x 1440
H004;52;Mannelijk;Links;5;112;right;yes;650;rightarrow;543;false;focus;yes;1213463;Chrome;113.0;Windows;10;undefined;undefined;2560 x 1440;2560 x 1440
H004;52;Mannelijk;Links;5;113;left;no;600;leftarrow;505;true;focus;yes;1214735;Chrome;113.0;Windows;10;undefined;undefined;2560 x 1440;2560 x 1440
H004;52;Mannelijk;Links;5;114;right;no;600;rightarrow;720;true;focus;yes;1216230;Chrome;113.0;Windows;10;undefined;undefined;2560 x 1440;2560 x 1440
H004;52;Mannelijk;Links;5;115;left;yes;600;leftarrow;474;false;focus;yes;1217483;Chrome;113.0;Windows;10;undefined;undefined;2560 x 1440;2560 x 1440
H004;52;Mannelijk;Links;5;116;right;no;550;rightarrow;475;true;focus;yes;1218718;Chrome;113.0;Windows;10;undefined;undefined;2560 x 1440;2560 x 1440
H004;52;Mannelijk;Links;5;117;right;no;550;rightarrow;578;true;focus;yes;1220069;Chrome;113.0;Windows;10;undefined;undefined;2560 x 1440;2560 x 1440
H004;52;Mannelijk;Links;5;118;left;no;550;leftarrow;710;true;focus;yes;1221563;Chrome;113.0;Windows;10;undefined;undefined;2560 x 1440;2560 x 1440
H004;52;Mannelijk;Links;5;119;right;yes;550;rightarrow;675;false;focus;yes;1223012;Chrome;113.0;Windows;10;undefined;undefined;2560 x 1440;2560 x 1440
H004;52;Mannelijk;Links;5;120;left;no;500;leftarrow;1022;true;focus;yes;1224814;Chrome;113.0;Windows;10;undefined;undefined;2560 x 1440;2560 x 1440
H004;52;Mannelijk;Links;5;121;left;no;500;leftarrow;560;true;focus;yes;1226149;Chrome;113.0;Windows;10;undefined;undefined;2560 x 1440;2560 x 1440
H004;52;Mannelijk;Links;5;122;left;no;500;leftarrow;878;true;focus;yes;1227793;Chrome;113.0;Windows;10;undefined;undefined;2560 x 1440;2560 x 1440
H004;52;Mannelijk;Links;5;123;right;no;500;rightarrow;865;true;focus;yes;1229433;Chrome;113.0;Windows;10;undefined;undefined;2560 x 1440;2560 x 1440
H004;52;Mannelijk;Links;5;124;left;no;500;leftarrow;674;true;focus;yes;1230870;Chrome;113.0;Windows;10;undefined;undefined;2560 x 1440;2560 x 1440
H004;52;Mannelijk;Links;5;125;right;no;500;rightarrow;714;true;focus;yes;1232361;Chrome;113.0;Windows;10;undefined;undefined;2560 x 1440;2560 x 1440
H004;52;Mannelijk;Links;5;126;right;no;500;rightarrow;505;true;focus;yes;1233646;Chrome;113.0;Windows;10;undefined;undefined;2560 x 1440;2560 x 1440
H004;52;Mannelijk;Links;5;127;left;yes;500;leftarrow;759;false;focus;yes;1235180;Chrome;113.0;Windows;10;undefined;undefined;2560 x 1440;2560 x 1440
H004;52;Mannelijk;Links;5;128;right;yes;450;undefined;null;true;focus;yes;1237216;Chrome;113.0;Windows;10;undefined;undefined;2560 x 1440;2560 x 1440
H004;52;Mannelijk;Links;6;1;right;no;500;rightarrow;552;true;focus;yes;1259171;Chrome;113.0;Windows;10;undefined;undefined;2560 x 1440;2560 x 1440
H004;52;Mannelijk;Links;6;2;right;yes;500;leftarrow;290;false;focus;yes;1260220;Chrome;113.0;Windows;10;undefined;undefined;2560 x 1440;2560 x 1440
H004;52;Mannelijk;Links;6;3;right;no;450;rightarrow;360;true;focus;yes;1261350;Chrome;113.0;Windows;10;undefined;undefined;2560 x 1440;2560 x 1440
H004;52;Mannelijk;Links;6;4;left;yes;450;leftarrow;507;false;focus;yes;1262638;Chrome;113.0;Windows;10;undefined;undefined;2560 x 1440;2560 x 1440
H004;52;Mannelijk;Links;6;5;left;no;400;leftarrow;502;true;focus;yes;1263910;Chrome;113.0;Windows;10;undefined;undefined;2560 x 1440;2560 x 1440
H004;52;Mannelijk;Links;6;6;left;no;400;leftarrow;413;true;focus;yes;1265099;Chrome;113.0;Windows;10;undefined;undefined;2560 x 1440;2560 x 1440
H004;52;Mannelijk;Links;6;7;left;no;400;leftarrow;418;true;focus;yes;1266274;Chrome;113.0;Windows;10;undefined;undefined;2560 x 1440;2560 x 1440
H004;52;Mannelijk;Links;6;8;right;no;400;rightarrow;589;true;focus;yes;1267633;Chrome;113.0;Windows;10;undefined;undefined;2560 x 1440;2560 x 1440
H004;52;Mannelijk;Links;6;9;right;no;400;leftarrow;316;false;focus;yes;1268705;Chrome;113.0;Windows;10;undefined;undefined;2560 x 1440;2560 x 1440
H004;52;Mannelijk;Links;6;10;left;no;400;leftarrow;533;true;focus;yes;1270002;Chrome;113.0;Windows;10;undefined;undefined;2560 x 1440;2560 x 1440
H004;52;Mannelijk;Links;6;11;right;yes;400;rightarrow;419;false;focus;yes;1271197;Chrome;113.0;Windows;10;undefined;undefined;2560 x 1440;2560 x 1440
H004;52;Mannelijk;Links;6;12;left;no;350;leftarrow;412;true;focus;yes;1272391;Chrome;113.0;Windows;10;undefined;undefined;2560 x 1440;2560 x 1440
H004;52;Mannelijk;Links;6;13;right;no;350;rightarrow;404;true;focus;yes;1273558;Chrome;113.0;Windows;10;undefined;undefined;2560 x 1440;2560 x 1440
H004;52;Mannelijk;Links;6;14;right;no;350;rightarrow;536;true;focus;yes;1274861;Chrome;113.0;Windows;10;undefined;undefined;2560 x 1440;2560 x 1440
H004;52;Mannelijk;Links;6;15;left;no;350;leftarrow;410;true;focus;yes;1276048;Chrome;113.0;Windows;10;undefined;undefined;2560 x 1440;2560 x 1440
H004;52;Mannelijk;Links;6;16;left;yes;350;leftarrow;453;false;focus;yes;1277283;Chrome;113.0;Windows;10;undefined;undefined;2560 x 1440;2560 x 1440
H004;52;Mannelijk;Links;6;17;right;yes;300;rightarrow;509;false;focus;yes;1278572;Chrome;113.0;Windows;10;undefined;undefined;2560 x 1440;2560 x 1440
H004;52;Mannelijk;Links;6;18;left;no;250;leftarrow;465;true;focus;yes;1279819;Chrome;113.0;Windows;10;undefined;undefined;2560 x 1440;2560 x 1440
H004;52;Mannelijk;Links;6;19;right;no;250;rightarrow;501;true;focus;yes;1281088;Chrome;113.0;Windows;10;undefined;undefined;2560 x 1440;2560 x 1440
H004;52;Mannelijk;Links;6;20;right;no;250;rightarrow;608;true;focus;yes;1282471;Chrome;113.0;Windows;10;undefined;undefined;2560 x 1440;2560 x 1440
H004;52;Mannelijk;Links;6;21;left;no;250;leftarrow;590;true;focus;yes;1283841;Chrome;113.0;Windows;10;undefined;undefined;2560 x 1440;2560 x 1440
H004;52;Mannelijk;Links;6;22;left;no;250;leftarrow;590;true;focus;yes;1285211;Chrome;113.0;Windows;10;undefined;undefined;2560 x 1440;2560 x 1440
H004;52;Mannelijk;Links;6;23;right;no;250;rightarrow;792;true;focus;yes;1286766;Chrome;113.0;Windows;10;undefined;undefined;2560 x 1440;2560 x 1440
H004;52;Mannelijk;Links;6;24;left;yes;250;undefined;null;true;focus;yes;1288808;Chrome;113.0;Windows;10;undefined;undefined;2560 x 1440;2560 x 1440
H004;52;Mannelijk;Links;6;25;right;no;300;rightarrow;500;true;focus;yes;1290090;Chrome;113.0;Windows;10;undefined;undefined;2560 x 1440;2560 x 1440
H004;52;Mannelijk;Links;6;26;right;no;300;rightarrow;449;true;focus;yes;1291320;Chrome;113.0;Windows;10;undefined;undefined;2560 x 1440;2560 x 1440
