participantID,age,gender,handedness,block_i,trial_i,stim,signal,SSD,response,rt,correct,focus,Fullscreen,time_elapsed,browser_name,browser_version,os_name,os_version,tablet,mobile,screen_resolution,window_resolution
participantID,age,gender,handedness,block_i,trial_i,stim,signal,SSD,response,rt,correct,focus,Fullscreen,time_elapsed,browser_name,browser_version,os_name,os_version,tablet,mobile,screen_resolution,window_resolution
S005,49,Mannelijk,Links,0,1,left,no,200,leftarrow,998,true,focus,yes,84103,Chrome,109.0,Windows,10,undefined,undefined,1680 x 1050,1680 x 1050
S005,49,Mannelijk,Links,0,2,right,no,200,rightarrow,429,true,focus,yes,86087,Chrome,109.0,Windows,10,undefined,undefined,1680 x 1050,1680 x 1050
S005,49,Mannelijk,Links,0,3,right,no,200,rightarrow,574,true,focus,yes,88200,Chrome,109.0,Windows,10,undefined,undefined,1680 x 1050,1680 x 1050
S005,49,Mannelijk,Links,0,4,left,yes,200,undefined,null,true,focus,yes,91007,Chrome,109.0,Windows,10,undefined,undefined,1680 x 1050,1680 x 1050
S005,49,Mannelijk,Links,0,5,right,yes,250,rightarrow,423,false,focus,yes,92968,Chrome,109.0,Windows,10,undefined,undefined,1680 x 1050,1680 x 1050
S005,49,Mannelijk,Links,0,6,left,no,200,leftarrow,437,true,focus,yes,94951,Chrome,109.0,Windows,10,undefined,undefined,1680 x 1050,1680 x 1050
S005,49,Mannelijk,Links,0,7,right,no,200,rightarrow,452,true,focus,yes,96951,Chrome,109.0,Windows,10,undefined,undefined,1680 x 1050,1680 x 1050
S005,49,Mannelijk,Links,0,8,left,no,200,undefined,null,false,focus,yes,99770,Chrome,109.0,Windows,10,undefined,undefined,1680 x 1050,1680 x 1050
S005,49,Mannelijk,Links,1,1,left,no,200,undefined,null,false,focus,yes,121535,Chrome,109.0,Windows,10,undefined,undefined,1680 x 1050,1680 x 1050
S005,49,Mannelijk,Links,1,2,left,no,200,undefined,null,false,focus,yes,123570,Chrome,109.0,Windows,10,undefined,undefined,1680 x 1050,1680 x 1050
S005,49,Mannelijk,Links,1,3,left,yes,200,leftarrow,415,false,focus,yes,124768,Chrome,109.0,Windows,10,undefined,undefined,1680 x 1050,1680 x 1050
S005,49,Mannelijk,Links,1,4,right,yes,150,rightarrow,376,false,focus,yes,125936,Chrome,109.0,Windows,10,undefined,undefined,1680 x 1050,1680 x 1050
S005,49,Mannelijk,Links,1,5,right,no,100,rightarrow,397,true,focus,yes,127103,Chrome,109.0,Windows,10,undefined,undefined,1680 x 1050,1680 x 1050
S005,49,Mannelijk,Links,1,6,left,no,100,undefined,null,false,focus,yes,129135,Chrome,109.0,Windows,10,undefined,undefined,1680 x 1050,1680 x 1050
S005,49,Mannelijk,Links,1,7,right,no,100,rightarrow,163,true,focus,yes,130072,Chrome,109.0,Windows,10,undefined,undefined,1680 x 1050,1680 x 1050
S005,49,Mannelijk,Links,1,8,right,no,100,undefined,null,false,focus,yes,132112,Chrome,109.0,Windows,10,undefined,undefined,1680 x 1050,1680 x 1050
S005,49,Mannelijk,Links,1,9,left,no,100,undefined,null,false,focus,yes,134157,Chrome,109.0,Windows,10,undefined,undefined,1680 x 1050,1680 x 1050
S005,49,Mannelijk,Links,1,10,right,yes,100,rightarrow,318,false,focus,yes,135263,Chrome,109.0,Windows,10,undefined,undefined,1680 x 1050,1680 x 1050
S005,49,Mannelijk,Links,1,11,right,no,50,leftarrow,779,false,focus,yes,136824,Chrome,109.0,Windows,10,undefined,undefined,1680 x 1050,1680 x 1050
S005,49,Mannelijk,Links,1,12,left,no,50,undefined,null,false,focus,yes,138863,Chrome,109.0,Windows,10,undefined,undefined,1680 x 1050,1680 x 1050
S005,49,Mannelijk,Links,1,13,right,no,50,rightarrow,287,true,focus,yes,139936,Chrome,109.0,Windows,10,undefined,undefined,1680 x 1050,1680 x 1050
S005,49,Mannelijk,Links,1,14,left,yes,50,undefined,null,true,focus,yes,141970,Chrome,109.0,Windows,10,undefined,undefined,1680 x 1050,1680 x 1050
S005,49,Mannelijk,Links,1,15,right,no,100,rightarrow,354,true,focus,yes,143104,Chrome,109.0,Windows,10,undefined,undefined,1680 x 1050,1680 x 1050
S005,49,Mannelijk,Links,1,16,left,no,100,leftarrow,388,true,focus,yes,144272,Chrome,109.0,Windows,10,undefined,undefined,1680 x 1050,1680 x 1050
S005,49,Mannelijk,Links,1,17,right,no,100,rightarrow,412,true,focus,yes,145464,Chrome,109.0,Windows,10,undefined,undefined,1680 x 1050,1680 x 1050
S005,49,Mannelijk,Links,1,18,left,no,100,leftarrow,371,true,focus,yes,146607,Chrome,109.0,Windows,10,undefined,undefined,1680 x 1050,1680 x 1050
S005,49,Mannelijk,Links,1,19,right,no,100,rightarrow,339,true,focus,yes,147728,Chrome,109.0,Windows,10,undefined,undefined,1680 x 1050,1680 x 1050
S005,49,Mannelijk,Links,1,20,right,yes,100,rightarrow,536,false,focus,yes,149039,Chrome,109.0,Windows,10,undefined,undefined,1680 x 1050,1680 x 1050
S005,49,Mannelijk,Links,1,21,left,no,50,leftarrow,482,true,focus,yes,150303,Chrome,109.0,Windows,10,undefined,undefined,1680 x 1050,1680 x 1050
S005,49,Mannelijk,Links,1,22,right,no,50,rightarrow,327,true,focus,yes,151416,Chrome,109.0,Windows,10,undefined,undefined,1680 x 1050,1680 x 1050
S005,49,Mannelijk,Links,1,23,left,no,50,leftarrow,329,true,focus,yes,152520,Chrome,109.0,Windows,10,undefined,undefined,1680 x 1050,1680 x 1050
S005,49,Mannelijk,Links,1,24,left,yes,50,leftarrow,453,false,focus,yes,153752,Chrome,109.0,Windows,10,undefined,undefined,1680 x 1050,1680 x 1050
S005,49,Mannelijk,Links,1,25,right,no,50,rightarrow,351,true,focus,yes,154880,Chrome,109.0,Windows,10,undefined,undefined,1680 x 1050,1680 x 1050
S005,49,Mannelijk,Links,1,26,left,yes,50,undefined,null,true,focus,yes,156916,Chrome,109.0,Windows,10,undefined,undefined,1680 x 1050,1680 x 1050
S005,49,Mannelijk,Links,1,27,right,no,100,rightarrow,287,true,focus,yes,157985,Chrome,109.0,Windows,10,undefined,undefined,1680 x 1050,1680 x 1050
S005,49,Mannelijk,Links,1,28,right,no,100,rightarrow,468,true,focus,yes,159215,Chrome,109.0,Windows,10,undefined,undefined,1680 x 1050,1680 x 1050
S005,49,Mannelijk,Links,1,29,left,no,100,undefined,null,false,focus,yes,161252,Chrome,109.0,Windows,10,undefined,undefined,1680 x 1050,1680 x 1050
S005,49,Mannelijk,Links,1,30,left,no,100,undefined,null,false,focus,yes,163298,Chrome,109.0,Windows,10,undefined,undefined,1680 x 1050,1680 x 1050
S005,49,Mannelijk,Links,1,31,left,no,100,leftarrow,386,true,focus,yes,164481,Chrome,109.0,Windows,10,undefined,undefined,1680 x 1050,1680 x 1050
S005,49,Mannelijk,Links,1,32,right,yes,100,rightarrow,427,false,focus,yes,165682,Chrome,109.0,Windows,10,undefined,undefined,1680 x 1050,1680 x 1050
S005,49,Mannelijk,Links,1,33,left,yes,50,undefined,null,true,focus,yes,167734,Chrome,109.0,Windows,10,undefined,undefined,1680 x 1050,1680 x 1050
S005,49,Mannelijk,Links,1,34,left,no,100,leftarrow,434,true,focus,yes,168953,Chrome,109.0,Windows,10,undefined,undefined,1680 x 1050,1680 x 1050
S005,49,Mannelijk,Links,1,35,right,yes,100,rightarrow,429,false,focus,yes,170167,Chrome,109.0,Windows,10,undefined,undefined,1680 x 1050,1680 x 1050
S005,49,Mannelijk,Links,1,36,right,no,50,rightarrow,1121,true,focus,yes,172072,Chrome,109.0,Windows,10,undefined,undefined,1680 x 1050,1680 x 1050
S005,49,Mannelijk,Links,1,37,left,no,50,undefined,null,false,focus,yes,174112,Chrome,109.0,Windows,10,undefined,undefined,1680 x 1050,1680 x 1050
S005,49,Mannelijk,Links,1,38,right,no,50,rightarrow,347,true,focus,yes,175241,Chrome,109.0,Windows,10,undefined,undefined,1680 x 1050,1680 x 1050
S005,49,Mannelijk,Links,1,39,right,no,50,rightarrow,391,true,focus,yes,176391,Chrome,109.0,Windows,10,undefined,undefined,1680 x 1050,1680 x 1050
S005,49,Mannelijk,Links,1,40,left,no,50,undefined,null,false,focus,yes,178430,Chrome,109.0,Windows,10,undefined,undefined,1680 x 1050,1680 x 1050
S005,49,Mannelijk,Links,1,41,left,no,50,leftarrow,450,true,focus,yes,179665,Chrome,109.0,Windows,10,undefined,undefined,1680 x 1050,1680 x 1050
S005,49,Mannelijk,Links,1,42,left,no,50,leftarrow,405,true,focus,yes,180863,Chrome,109.0,Windows,10,undefined,undefined,1680 x 1050,1680 x 1050
S005,49,Mannelijk,Links,1,43,right,no,50,rightarrow,335,true,focus,yes,181976,Chrome,109.0,Windows,10,undefined,undefined,1680 x 1050,1680 x 1050
S005,49,Mannelijk,Links,1,44,left,no,50,leftarrow,431,true,focus,yes,183185,Chrome,109.0,Windows,10,undefined,undefined,1680 x 1050,1680 x 1050
S005,49,Mannelijk,Links,1,45,right,no,50,rightarrow,311,true,focus,yes,184281,Chrome,109.0,Windows,10,undefined,undefined,1680 x 1050,1680 x 1050
S005,49,Mannelijk,Links,1,46,right,no,50,rightarrow,417,true,focus,yes,185463,Chrome,109.0,Windows,10,undefined,undefined,1680 x 1050,1680 x 1050
S005,49,Mannelijk,Links,1,47,left,yes,50,leftarrow,427,false,focus,yes,186663,Chrome,109.0,Windows,10,undefined,undefined,1680 x 1050,1680 x 1050
S005,49,Mannelijk,Links,1,48,right,yes,50,rightarrow,376,false,focus,yes,187815,Chrome,109.0,Windows,10,undefined,undefined,1680 x 1050,1680 x 1050
S005,49,Mannelijk,Links,1,49,right,no,50,rightarrow,435,true,focus,yes,189031,Chrome,109.0,Windows,10,undefined,undefined,1680 x 1050,1680 x 1050
S005,49,Mannelijk,Links,1,50,right,yes,50,rightarrow,375,false,focus,yes,190191,Chrome,109.0,Windows,10,undefined,undefined,1680 x 1050,1680 x 1050
S005,49,Mannelijk,Links,1,51,right,no,50,rightarrow,613,true,focus,yes,191584,Chrome,109.0,Windows,10,undefined,undefined,1680 x 1050,1680 x 1050
S005,49,Mannelijk,Links,1,52,left,no,50,leftarrow,411,true,focus,yes,192767,Chrome,109.0,Windows,10,undefined,undefined,1680 x 1050,1680 x 1050
S005,49,Mannelijk,Links,1,53,left,no,50,leftarrow,389,true,focus,yes,193919,Chrome,109.0,Windows,10,undefined,undefined,1680 x 1050,1680 x 1050
S005,49,Mannelijk,Links,1,54,left,no,50,leftarrow,431,true,focus,yes,195119,Chrome,109.0,Windows,10,undefined,undefined,1680 x 1050,1680 x 1050
S005,49,Mannelijk,Links,1,55,right,no,50,rightarrow,314,true,focus,yes,196207,Chrome,109.0,Windows,10,undefined,undefined,1680 x 1050,1680 x 1050
S005,49,Mannelijk,Links,1,56,left,yes,50,leftarrow,356,false,focus,yes,197343,Chrome,109.0,Windows,10,undefined,undefined,1680 x 1050,1680 x 1050
S005,49,Mannelijk,Links,1,57,right,no,50,rightarrow,369,true,focus,yes,198495,Chrome,109.0,Windows,10,undefined,undefined,1680 x 1050,1680 x 1050
S005,49,Mannelijk,Links,1,58,right,yes,50,rightarrow,406,false,focus,yes,199673,Chrome,109.0,Windows,10,undefined,undefined,1680 x 1050,1680 x 1050
S005,49,Mannelijk,Links,1,59,left,yes,50,leftarrow,335,false,focus,yes,200791,Chrome,109.0,Windows,10,undefined,undefined,1680 x 1050,1680 x 1050
S005,49,Mannelijk,Links,1,60,right,no,50,rightarrow,335,true,focus,yes,201896,Chrome,109.0,Windows,10,undefined,undefined,1680 x 1050,1680 x 1050
S005,49,Mannelijk,Links,1,61,left,no,50,leftarrow,332,true,focus,yes,203009,Chrome,109.0,Windows,10,undefined,undefined,1680 x 1050,1680 x 1050
S005,49,Mannelijk,Links,1,62,left,no,50,leftarrow,364,true,focus,yes,204152,Chrome,109.0,Windows,10,undefined,undefined,1680 x 1050,1680 x 1050
S005,49,Mannelijk,Links,1,63,left,no,50,leftarrow,393,true,focus,yes,205305,Chrome,109.0,Windows,10,undefined,undefined,1680 x 1050,1680 x 1050
S005,49,Mannelijk,Links,1,64,right,no,50,rightarrow,317,true,focus,yes,206400,Chrome,109.0,Windows,10,undefined,undefined,1680 x 1050,1680 x 1050
S005,49,Mannelijk,Links,1,65,left,yes,50,leftarrow,376,false,focus,yes,207535,Chrome,109.0,Windows,10,undefined,undefined,1680 x 1050,1680 x 1050
S005,49,Mannelijk,Links,1,66,left,no,50,leftarrow,410,true,focus,yes,208719,Chrome,109.0,Windows,10,undefined,undefined,1680 x 1050,1680 x 1050
S005,49,Mannelijk,Links,1,67,left,no,50,leftarrow,415,true,focus,yes,209912,Chrome,109.0,Windows,10,undefined,undefined,1680 x 1050,1680 x 1050
S005,49,Mannelijk,Links,1,68,right,yes,50,rightarrow,326,false,focus,yes,211023,Chrome,109.0,Windows,10,undefined,undefined,1680 x 1050,1680 x 1050
S005,49,Mannelijk,Links,1,69,left,no,50,leftarrow,361,true,focus,yes,212151,Chrome,109.0,Windows,10,undefined,undefined,1680 x 1050,1680 x 1050
S005,49,Mannelijk,Links,1,70,right,no,50,rightarrow,378,true,focus,yes,213311,Chrome,109.0,Windows,10,undefined,undefined,1680 x 1050,1680 x 1050
S005,49,Mannelijk,Links,1,71,right,no,50,rightarrow,447,true,focus,yes,214527,Chrome,109.0,Windows,10,undefined,undefined,1680 x 1050,1680 x 1050
S005,49,Mannelijk,Links,1,72,right,no,50,rightarrow,382,true,focus,yes,215681,Chrome,109.0,Windows,10,undefined,undefined,1680 x 1050,1680 x 1050
S005,49,Mannelijk,Links,1,73,right,no,50,rightarrow,480,true,focus,yes,216919,Chrome,109.0,Windows,10,undefined,undefined,1680 x 1050,1680 x 1050
S005,49,Mannelijk,Links,1,74,left,yes,50,leftarrow,389,false,focus,yes,218096,Chrome,109.0,Windows,10,undefined,undefined,1680 x 1050,1680 x 1050
S005,49,Mannelijk,Links,1,75,right,no,50,rightarrow,362,true,focus,yes,219224,Chrome,109.0,Windows,10,undefined,undefined,1680 x 1050,1680 x 1050
S005,49,Mannelijk,Links,1,76,left,no,50,leftarrow,371,true,focus,yes,220375,Chrome,109.0,Windows,10,undefined,undefined,1680 x 1050,1680 x 1050
S005,49,Mannelijk,Links,1,77,left,no,50,leftarrow,434,true,focus,yes,221576,Chrome,109.0,Windows,10,undefined,undefined,1680 x 1050,1680 x 1050
S005,49,Mannelijk,Links,1,78,right,yes,50,rightarrow,401,false,focus,yes,222759,Chrome,109.0,Windows,10,undefined,undefined,1680 x 1050,1680 x 1050
S005,49,Mannelijk,Links,1,79,right,no,50,rightarrow,407,true,focus,yes,223951,Chrome,109.0,Windows,10,undefined,undefined,1680 x 1050,1680 x 1050
S005,49,Mannelijk,Links,1,80,left,no,50,leftarrow,433,true,focus,yes,225167,Chrome,109.0,Windows,10,undefined,undefined,1680 x 1050,1680 x 1050
S005,49,Mannelijk,Links,1,81,right,no,50,rightarrow,417,true,focus,yes,226367,Chrome,109.0,Windows,10,undefined,undefined,1680 x 1050,1680 x 1050
S005,49,Mannelijk,Links,1,82,right,no,50,rightarrow,396,true,focus,yes,227551,Chrome,109.0,Windows,10,undefined,undefined,1680 x 1050,1680 x 1050
S005,49,Mannelijk,Links,1,83,left,no,50,leftarrow,372,true,focus,yes,228704,Chrome,109.0,Windows,10,undefined,undefined,1680 x 1050,1680 x 1050
S005,49,Mannelijk,Links,1,84,right,yes,50,rightarrow,349,false,focus,yes,229831,Chrome,109.0,Windows,10,undefined,undefined,1680 x 1050,1680 x 1050
S005,49,Mannelijk,Links,1,85,left,no,50,leftarrow,405,true,focus,yes,231008,Chrome,109.0,Windows,10,undefined,undefined,1680 x 1050,1680 x 1050
S005,49,Mannelijk,Links,1,86,right,no,50,rightarrow,396,true,focus,yes,232184,Chrome,109.0,Windows,10,undefined,undefined,1680 x 1050,1680 x 1050
S005,49,Mannelijk,Links,1,87,left,no,50,leftarrow,415,true,focus,yes,233385,Chrome,109.0,Windows,10,undefined,undefined,1680 x 1050,1680 x 1050
S005,49,Mannelijk,Links,1,88,left,yes,50,leftarrow,394,false,focus,yes,234551,Chrome,109.0,Windows,10,undefined,undefined,1680 x 1050,1680 x 1050
S005,49,Mannelijk,Links,1,89,right,no,50,rightarrow,323,true,focus,yes,235639,Chrome,109.0,Windows,10,undefined,undefined,1680 x 1050,1680 x 1050
S005,49,Mannelijk,Links,1,90,right,no,50,rightarrow,328,true,focus,yes,236751,Chrome,109.0,Windows,10,undefined,undefined,1680 x 1050,1680 x 1050
S005,49,Mannelijk,Links,1,91,left,no,50,leftarrow,434,true,focus,yes,237968,Chrome,109.0,Windows,10,undefined,undefined,1680 x 1050,1680 x 1050
S005,49,Mannelijk,Links,1,92,left,no,50,leftarrow,416,true,focus,yes,239168,Chrome,109.0,Windows,10,undefined,undefined,1680 x 1050,1680 x 1050
S005,49,Mannelijk,Links,1,93,right,no,50,rightarrow,380,true,focus,yes,240336,Chrome,109.0,Windows,10,undefined,undefined,1680 x 1050,1680 x 1050
S005,49,Mannelijk,Links,1,94,right,yes,50,rightarrow,391,false,focus,yes,241504,Chrome,109.0,Windows,10,undefined,undefined,1680 x 1050,1680 x 1050
S005,49,Mannelijk,Links,1,95,left,no,50,undefined,null,false,focus,yes,243547,Chrome,109.0,Windows,10,undefined,undefined,1680 x 1050,1680 x 1050
S005,49,Mannelijk,Links,1,96,left,yes,50,leftarrow,413,false,focus,yes,244745,Chrome,109.0,Windows,10,undefined,undefined,1680 x 1050,1680 x 1050
S005,49,Mannelijk,Links,1,97,left,no,50,leftarrow,406,true,focus,yes,245936,Chrome,109.0,Windows,10,undefined,undefined,1680 x 1050,1680 x 1050
S005,49,Mannelijk,Links,1,98,right,no,50,rightarrow,291,true,focus,yes,247008,Chrome,109.0,Windows,10,undefined,undefined,1680 x 1050,1680 x 1050
S005,49,Mannelijk,Links,1,99,left,yes,50,leftarrow,426,false,focus,yes,248209,Chrome,109.0,Windows,10,undefined,undefined,1680 x 1050,1680 x 1050
S005,49,Mannelijk,Links,1,100,right,no,50,rightarrow,380,true,focus,yes,249367,Chrome,109.0,Windows,10,undefined,undefined,1680 x 1050,1680 x 1050
S005,49,Mannelijk,Links,1,101,left,no,50,leftarrow,377,true,focus,yes,250504,Chrome,109.0,Windows,10,undefined,undefined,1680 x 1050,1680 x 1050
S005,49,Mannelijk,Links,1,102,right,no,50,rightarrow,405,true,focus,yes,251687,Chrome,109.0,Windows,10,undefined,undefined,1680 x 1050,1680 x 1050
S005,49,Mannelijk,Links,1,103,left,no,50,leftarrow,394,true,focus,yes,252863,Chrome,109.0,Windows,10,undefined,undefined,1680 x 1050,1680 x 1050
S005,49,Mannelijk,Links,1,104,right,yes,50,rightarrow,357,false,focus,yes,253983,Chrome,109.0,Windows,10,undefined,undefined,1680 x 1050,1680 x 1050
S005,49,Mannelijk,Links,1,105,left,no,50,leftarrow,424,true,focus,yes,255191,Chrome,109.0,Windows,10,undefined,undefined,1680 x 1050,1680 x 1050
S005,49,Mannelijk,Links,1,106,right,no,50,rightarrow,342,true,focus,yes,256312,Chrome,109.0,Windows,10,undefined,undefined,1680 x 1050,1680 x 1050
S005,49,Mannelijk,Links,1,107,right,yes,50,rightarrow,392,false,focus,yes,257471,Chrome,109.0,Windows,10,undefined,undefined,1680 x 1050,1680 x 1050
S005,49,Mannelijk,Links,1,108,left,no,50,leftarrow,429,true,focus,yes,258679,Chrome,109.0,Windows,10,undefined,undefined,1680 x 1050,1680 x 1050
S005,49,Mannelijk,Links,1,109,left,yes,50,leftarrow,378,false,focus,yes,259833,Chrome,109.0,Windows,10,undefined,undefined,1680 x 1050,1680 x 1050
S005,49,Mannelijk,Links,1,110,right,no,50,rightarrow,353,true,focus,yes,260961,Chrome,109.0,Windows,10,undefined,undefined,1680 x 1050,1680 x 1050
S005,49,Mannelijk,Links,1,111,right,no,50,rightarrow,330,true,focus,yes,262065,Chrome,109.0,Windows,10,undefined,undefined,1680 x 1050,1680 x 1050
S005,49,Mannelijk,Links,1,112,left,no,50,leftarrow,365,true,focus,yes,263192,Chrome,109.0,Windows,10,undefined,undefined,1680 x 1050,1680 x 1050
S005,49,Mannelijk,Links,1,113,left,no,50,leftarrow,441,true,focus,yes,264409,Chrome,109.0,Windows,10,undefined,undefined,1680 x 1050,1680 x 1050
S005,49,Mannelijk,Links,1,114,right,yes,50,rightarrow,367,false,focus,yes,265551,Chrome,109.0,Windows,10,undefined,undefined,1680 x 1050,1680 x 1050
S005,49,Mannelijk,Links,1,115,right,no,50,rightarrow,437,true,focus,yes,266752,Chrome,109.0,Windows,10,undefined,undefined,1680 x 1050,1680 x 1050
S005,49,Mannelijk,Links,1,116,left,no,50,undefined,null,false,focus,yes,268791,Chrome,109.0,Windows,10,undefined,undefined,1680 x 1050,1680 x 1050
S005,49,Mannelijk,Links,1,117,right,no,50,rightarrow,382,true,focus,yes,269960,Chrome,109.0,Windows,10,undefined,undefined,1680 x 1050,1680 x 1050
S005,49,Mannelijk,Links,1,118,left,no,50,leftarrow,351,true,focus,yes,271088,Chrome,109.0,Windows,10,undefined,undefined,1680 x 1050,1680 x 1050
S005,49,Mannelijk,Links,1,119,right,no,50,rightarrow,377,true,focus,yes,272225,Chrome,109.0,Windows,10,undefined,undefined,1680 x 1050,1680 x 1050
S005,49,Mannelijk,Links,1,120,left,yes,50,leftarrow,361,false,focus,yes,273378,Chrome,109.0,Windows,10,undefined,undefined,1680 x 1050,1680 x 1050
S005,49,Mannelijk,Links,1,121,left,yes,50,leftarrow,418,false,focus,yes,274561,Chrome,109.0,Windows,10,undefined,undefined,1680 x 1050,1680 x 1050
S005,49,Mannelijk,Links,1,122,right,no,50,rightarrow,332,true,focus,yes,275680,Chrome,109.0,Windows,10,undefined,undefined,1680 x 1050,1680 x 1050
S005,49,Mannelijk,Links,1,123,right,yes,50,rightarrow,381,false,focus,yes,276833,Chrome,109.0,Windows,10,undefined,undefined,1680 x 1050,1680 x 1050
S005,49,Mannelijk,Links,1,124,right,no,50,rightarrow,376,true,focus,yes,277976,Chrome,109.0,Windows,10,undefined,undefined,1680 x 1050,1680 x 1050
S005,49,Mannelijk,Links,1,125,left,no,50,leftarrow,458,true,focus,yes,279209,Chrome,109.0,Windows,10,undefined,undefined,1680 x 1050,1680 x 1050
S005,49,Mannelijk,Links,1,126,right,no,50,rightarrow,342,true,focus,yes,280312,Chrome,109.0,Windows,10,undefined,undefined,1680 x 1050,1680 x 1050
S005,49,Mannelijk,Links,1,127,left,no,50,leftarrow,361,true,focus,yes,281456,Chrome,109.0,Windows,10,undefined,undefined,1680 x 1050,1680 x 1050
S005,49,Mannelijk,Links,1,128,left,no,50,leftarrow,448,true,focus,yes,282680,Chrome,109.0,Windows,10,undefined,undefined,1680 x 1050,1680 x 1050
S005,49,Mannelijk,Links,2,1,left,yes,50,undefined,null,true,focus,yes,303139,Chrome,109.0,Windows,10,undefined,undefined,1680 x 1050,1680 x 1050
S005,49,Mannelijk,Links,2,2,right,no,100,rightarrow,378,true,focus,yes,304297,Chrome,109.0,Windows,10,undefined,undefined,1680 x 1050,1680 x 1050
S005,49,Mannelijk,Links,2,3,left,no,100,undefined,null,false,focus,yes,306329,Chrome,109.0,Windows,10,undefined,undefined,1680 x 1050,1680 x 1050
S005,49,Mannelijk,Links,2,4,left,no,100,undefined,null,false,focus,yes,308370,Chrome,109.0,Windows,10,undefined,undefined,1680 x 1050,1680 x 1050
S005,49,Mannelijk,Links,2,5,right,no,100,rightarrow,328,true,focus,yes,309480,Chrome,109.0,Windows,10,undefined,undefined,1680 x 1050,1680 x 1050
S005,49,Mannelijk,Links,2,6,left,no,100,leftarrow,458,true,focus,yes,310720,Chrome,109.0,Windows,10,undefined,undefined,1680 x 1050,1680 x 1050
S005,49,Mannelijk,Links,2,7,right,no,100,rightarrow,337,true,focus,yes,311825,Chrome,109.0,Windows,10,undefined,undefined,1680 x 1050,1680 x 1050
S005,49,Mannelijk,Links,2,8,right,yes,100,rightarrow,430,false,focus,yes,313024,Chrome,109.0,Windows,10,undefined,undefined,1680 x 1050,1680 x 1050
S005,49,Mannelijk,Links,2,9,left,yes,50,undefined,null,true,focus,yes,315064,Chrome,109.0,Windows,10,undefined,undefined,1680 x 1050,1680 x 1050
S005,49,Mannelijk,Links,2,10,left,no,100,leftarrow,460,true,focus,yes,316303,Chrome,109.0,Windows,10,undefined,undefined,1680 x 1050,1680 x 1050
S005,49,Mannelijk,Links,2,11,left,no,100,leftarrow,421,true,focus,yes,317488,Chrome,109.0,Windows,10,undefined,undefined,1680 x 1050,1680 x 1050
S005,49,Mannelijk,Links,2,12,right,no,100,rightarrow,339,true,focus,yes,318609,Chrome,109.0,Windows,10,undefined,undefined,1680 x 1050,1680 x 1050
S005,49,Mannelijk,Links,2,13,left,no,100,leftarrow,466,true,focus,yes,319841,Chrome,109.0,Windows,10,undefined,undefined,1680 x 1050,1680 x 1050
S005,49,Mannelijk,Links,2,14,right,no,100,rightarrow,388,true,focus,yes,321015,Chrome,109.0,Windows,10,undefined,undefined,1680 x 1050,1680 x 1050
S005,49,Mannelijk,Links,2,15,right,no,100,rightarrow,416,true,focus,yes,322200,Chrome,109.0,Windows,10,undefined,undefined,1680 x 1050,1680 x 1050
S005,49,Mannelijk,Links,2,16,right,yes,100,rightarrow,409,false,focus,yes,323375,Chrome,109.0,Windows,10,undefined,undefined,1680 x 1050,1680 x 1050
S005,49,Mannelijk,Links,2,17,right,yes,50,rightarrow,370,false,focus,yes,324511,Chrome,109.0,Windows,10,undefined,undefined,1680 x 1050,1680 x 1050
S005,49,Mannelijk,Links,2,18,right,no,50,rightarrow,321,true,focus,yes,325607,Chrome,109.0,Windows,10,undefined,undefined,1680 x 1050,1680 x 1050
S005,49,Mannelijk,Links,2,19,right,no,50,rightarrow,323,true,focus,yes,326720,Chrome,109.0,Windows,10,undefined,undefined,1680 x 1050,1680 x 1050
S005,49,Mannelijk,Links,2,20,left,no,50,undefined,null,false,focus,yes,328765,Chrome,109.0,Windows,10,undefined,undefined,1680 x 1050,1680 x 1050
S005,49,Mannelijk,Links,2,21,right,no,50,rightarrow,410,true,focus,yes,329961,Chrome,109.0,Windows,10,undefined,undefined,1680 x 1050,1680 x 1050
S005,49,Mannelijk,Links,2,22,left,yes,50,leftarrow,364,false,focus,yes,331103,Chrome,109.0,Windows,10,undefined,undefined,1680 x 1050,1680 x 1050
S005,49,Mannelijk,Links,2,23,left,no,50,undefined,null,false,focus,yes,333142,Chrome,109.0,Windows,10,undefined,undefined,1680 x 1050,1680 x 1050
S005,49,Mannelijk,Links,2,24,left,no,50,leftarrow,389,true,focus,yes,334313,Chrome,109.0,Windows,10,undefined,undefined,1680 x 1050,1680 x 1050
S005,49,Mannelijk,Links,2,25,right,no,50,rightarrow,428,true,focus,yes,335521,Chrome,109.0,Windows,10,undefined,undefined,1680 x 1050,1680 x 1050
S005,49,Mannelijk,Links,2,26,right,yes,50,rightarrow,421,false,focus,yes,336712,Chrome,109.0,Windows,10,undefined,undefined,1680 x 1050,1680 x 1050
S005,49,Mannelijk,Links,2,27,left,no,50,undefined,null,false,focus,yes,338747,Chrome,109.0,Windows,10,undefined,undefined,1680 x 1050,1680 x 1050
S005,49,Mannelijk,Links,2,28,left,no,50,leftarrow,581,true,focus,yes,340105,Chrome,109.0,Windows,10,undefined,undefined,1680 x 1050,1680 x 1050
S005,49,Mannelijk,Links,2,29,left,yes,50,leftarrow,446,false,focus,yes,341328,Chrome,109.0,Windows,10,undefined,undefined,1680 x 1050,1680 x 1050
S005,49,Mannelijk,Links,2,30,right,no,50,rightarrow,388,true,focus,yes,342504,Chrome,109.0,Windows,10,undefined,undefined,1680 x 1050,1680 x 1050
S005,49,Mannelijk,Links,2,31,left,no,50,undefined,null,false,focus,yes,344549,Chrome,109.0,Windows,10,undefined,undefined,1680 x 1050,1680 x 1050
S005,49,Mannelijk,Links,2,32,right,no,50,rightarrow,333,true,focus,yes,345664,Chrome,109.0,Windows,10,undefined,undefined,1680 x 1050,1680 x 1050
S005,49,Mannelijk,Links,2,33,left,yes,50,leftarrow,378,false,focus,yes,346817,Chrome,109.0,Windows,10,undefined,undefined,1680 x 1050,1680 x 1050
S005,49,Mannelijk,Links,2,34,left,no,50,leftarrow,428,true,focus,yes,348017,Chrome,109.0,Windows,10,undefined,undefined,1680 x 1050,1680 x 1050
S005,49,Mannelijk,Links,2,35,right,yes,50,rightarrow,276,false,focus,yes,349071,Chrome,109.0,Windows,10,undefined,undefined,1680 x 1050,1680 x 1050
S005,49,Mannelijk,Links,2,36,right,no,50,rightarrow,389,true,focus,yes,350249,Chrome,109.0,Windows,10,undefined,undefined,1680 x 1050,1680 x 1050
S005,49,Mannelijk,Links,2,37,left,no,50,leftarrow,376,true,focus,yes,351409,Chrome,109.0,Windows,10,undefined,undefined,1680 x 1050,1680 x 1050
S005,49,Mannelijk,Links,2,38,left,no,50,undefined,null,false,focus,yes,353439,Chrome,109.0,Windows,10,undefined,undefined,1680 x 1050,1680 x 1050
S005,49,Mannelijk,Links,2,39,right,no,50,rightarrow,267,true,focus,yes,354488,Chrome,109.0,Windows,10,undefined,undefined,1680 x 1050,1680 x 1050
S005,49,Mannelijk,Links,2,40,right,no,50,rightarrow,392,true,focus,yes,355656,Chrome,109.0,Windows,10,undefined,undefined,1680 x 1050,1680 x 1050
S005,49,Mannelijk,Links,2,41,left,no,50,leftarrow,376,true,focus,yes,356800,Chrome,109.0,Windows,10,undefined,undefined,1680 x 1050,1680 x 1050
S005,49,Mannelijk,Links,2,42,right,yes,50,rightarrow,396,false,focus,yes,357976,Chrome,109.0,Windows,10,undefined,undefined,1680 x 1050,1680 x 1050
S005,49,Mannelijk,Links,2,43,right,no,50,rightarrow,460,true,focus,yes,359216,Chrome,109.0,Windows,10,undefined,undefined,1680 x 1050,1680 x 1050
S005,49,Mannelijk,Links,2,44,left,yes,50,leftarrow,388,false,focus,yes,360386,Chrome,109.0,Windows,10,undefined,undefined,1680 x 1050,1680 x 1050
S005,49,Mannelijk,Links,2,45,left,no,50,leftarrow,388,true,focus,yes,361560,Chrome,109.0,Windows,10,undefined,undefined,1680 x 1050,1680 x 1050
S005,49,Mannelijk,Links,2,46,right,no,50,rightarrow,428,true,focus,yes,362775,Chrome,109.0,Windows,10,undefined,undefined,1680 x 1050,1680 x 1050
S005,49,Mannelijk,Links,2,47,left,no,50,undefined,null,false,focus,yes,364799,Chrome,109.0,Windows,10,undefined,undefined,1680 x 1050,1680 x 1050
S005,49,Mannelijk,Links,2,48,right,no,50,rightarrow,330,true,focus,yes,365912,Chrome,109.0,Windows,10,undefined,undefined,1680 x 1050,1680 x 1050
S005,49,Mannelijk,Links,2,49,right,no,50,rightarrow,381,true,focus,yes,367071,Chrome,109.0,Windows,10,undefined,undefined,1680 x 1050,1680 x 1050
S005,49,Mannelijk,Links,2,50,right,no,50,rightarrow,390,true,focus,yes,368241,Chrome,109.0,Windows,10,undefined,undefined,1680 x 1050,1680 x 1050
S005,49,Mannelijk,Links,2,51,left,no,50,undefined,null,false,focus,yes,370278,Chrome,109.0,Windows,10,undefined,undefined,1680 x 1050,1680 x 1050
S005,49,Mannelijk,Links,2,52,left,yes,50,leftarrow,406,false,focus,yes,371465,Chrome,109.0,Windows,10,undefined,undefined,1680 x 1050,1680 x 1050
S005,49,Mannelijk,Links,2,53,left,no,50,undefined,null,false,focus,yes,373516,Chrome,109.0,Windows,10,undefined,undefined,1680 x 1050,1680 x 1050
S005,49,Mannelijk,Links,2,54,right,yes,50,rightarrow,342,false,focus,yes,374641,Chrome,109.0,Windows,10,undefined,undefined,1680 x 1050,1680 x 1050
S005,49,Mannelijk,Links,2,55,left,no,50,leftarrow,527,true,focus,yes,375953,Chrome,109.0,Windows,10,undefined,undefined,1680 x 1050,1680 x 1050
S005,49,Mannelijk,Links,2,56,right,no,50,rightarrow,481,true,focus,yes,377200,Chrome,109.0,Windows,10,undefined,undefined,1680 x 1050,1680 x 1050
S005,49,Mannelijk,Links,2,57,left,yes,50,leftarrow,471,false,focus,yes,378457,Chrome,109.0,Windows,10,undefined,undefined,1680 x 1050,1680 x 1050
S005,49,Mannelijk,Links,2,58,right,no,50,rightarrow,406,true,focus,yes,379648,Chrome,109.0,Windows,10,undefined,undefined,1680 x 1050,1680 x 1050
S005,49,Mannelijk,Links,2,59,left,no,50,leftarrow,430,true,focus,yes,380857,Chrome,109.0,Windows,10,undefined,undefined,1680 x 1050,1680 x 1050
S005,49,Mannelijk,Links,2,60,right,no,50,rightarrow,428,true,focus,yes,382072,Chrome,109.0,Windows,10,undefined,undefined,1680 x 1050,1680 x 1050
S005,49,Mannelijk,Links,2,61,right,no,50,rightarrow,549,true,focus,yes,383393,Chrome,109.0,Windows,10,undefined,undefined,1680 x 1050,1680 x 1050
S005,49,Mannelijk,Links,2,62,left,no,50,undefined,null,false,focus,yes,385424,Chrome,109.0,Windows,10,undefined,undefined,1680 x 1050,1680 x 1050
S005,49,Mannelijk,Links,2,63,right,yes,50,rightarrow,274,false,focus,yes,386481,Chrome,109.0,Windows,10,undefined,undefined,1680 x 1050,1680 x 1050
S005,49,Mannelijk,Links,2,64,left,no,50,leftarrow,366,true,focus,yes,387633,Chrome,109.0,Windows,10,undefined,undefined,1680 x 1050,1680 x 1050
S005,49,Mannelijk,Links,2,65,right,no,50,rightarrow,463,true,focus,yes,388880,Chrome,109.0,Windows,10,undefined,undefined,1680 x 1050,1680 x 1050
S005,49,Mannelijk,Links,2,66,right,yes,50,rightarrow,477,false,focus,yes,390135,Chrome,109.0,Windows,10,undefined,undefined,1680 x 1050,1680 x 1050
S005,49,Mannelijk,Links,2,67,right,no,50,rightarrow,411,true,focus,yes,391328,Chrome,109.0,Windows,10,undefined,undefined,1680 x 1050,1680 x 1050
S005,49,Mannelijk,Links,2,68,left,no,50,undefined,null,false,focus,yes,393362,Chrome,109.0,Windows,10,undefined,undefined,1680 x 1050,1680 x 1050
S005,49,Mannelijk,Links,2,69,left,yes,50,leftarrow,410,false,focus,yes,394552,Chrome,109.0,Windows,10,undefined,undefined,1680 x 1050,1680 x 1050
S005,49,Mannelijk,Links,2,70,left,no,50,leftarrow,390,true,focus,yes,395721,Chrome,109.0,Windows,10,undefined,undefined,1680 x 1050,1680 x 1050
S005,49,Mannelijk,Links,2,71,left,no,50,leftarrow,480,true,focus,yes,396967,Chrome,109.0,Windows,10,undefined,undefined,1680 x 1050,1680 x 1050
S005,49,Mannelijk,Links,2,72,right,no,50,rightarrow,384,true,focus,yes,398136,Chrome,109.0,Windows,10,undefined,undefined,1680 x 1050,1680 x 1050
S005,49,Mannelijk,Links,2,73,right,no,50,rightarrow,397,true,focus,yes,399305,Chrome,109.0,Windows,10,undefined,undefined,1680 x 1050,1680 x 1050
S005,49,Mannelijk,Links,2,74,right,yes,50,rightarrow,366,false,focus,yes,400465,Chrome,109.0,Windows,10,undefined,undefined,1680 x 1050,1680 x 1050
S005,49,Mannelijk,Links,2,75,right,no,50,rightarrow,420,true,focus,yes,401657,Chrome,109.0,Windows,10,undefined,undefined,1680 x 1050,1680 x 1050
S005,49,Mannelijk,Links,2,76,left,no,50,leftarrow,398,true,focus,yes,402841,Chrome,109.0,Windows,10,undefined,undefined,1680 x 1050,1680 x 1050
S005,49,Mannelijk,Links,2,77,left,no,50,undefined,null,false,focus,yes,404861,Chrome,109.0,Windows,10,undefined,undefined,1680 x 1050,1680 x 1050
S005,49,Mannelijk,Links,2,78,right,no,50,rightarrow,340,true,focus,yes,405983,Chrome,109.0,Windows,10,undefined,undefined,1680 x 1050,1680 x 1050
S005,49,Mannelijk,Links,2,79,left,no,50,leftarrow,432,true,focus,yes,407184,Chrome,109.0,Windows,10,undefined,undefined,1680 x 1050,1680 x 1050
S005,49,Mannelijk,Links,2,80,left,yes,50,leftarrow,398,false,focus,yes,408351,Chrome,109.0,Windows,10,undefined,undefined,1680 x 1050,1680 x 1050
S005,49,Mannelijk,Links,2,81,right,no,50,rightarrow,392,true,focus,yes,409522,Chrome,109.0,Windows,10,undefined,undefined,1680 x 1050,1680 x 1050
S005,49,Mannelijk,Links,2,82,right,no,50,rightarrow,419,true,focus,yes,410703,Chrome,109.0,Windows,10,undefined,undefined,1680 x 1050,1680 x 1050
S005,49,Mannelijk,Links,2,83,left,no,50,leftarrow,403,true,focus,yes,411889,Chrome,109.0,Windows,10,undefined,undefined,1680 x 1050,1680 x 1050
S005,49,Mannelijk,Links,2,84,right,yes,50,rightarrow,413,false,focus,yes,413073,Chrome,109.0,Windows,10,undefined,undefined,1680 x 1050,1680 x 1050
S005,49,Mannelijk,Links,2,85,left,no,50,undefined,null,false,focus,yes,415096,Chrome,109.0,Windows,10,undefined,undefined,1680 x 1050,1680 x 1050
S005,49,Mannelijk,Links,2,86,left,no,50,leftarrow,471,true,focus,yes,416354,Chrome,109.0,Windows,10,undefined,undefined,1680 x 1050,1680 x 1050
S005,49,Mannelijk,Links,2,87,right,no,50,rightarrow,422,true,focus,yes,417561,Chrome,109.0,Windows,10,undefined,undefined,1680 x 1050,1680 x 1050
S005,49,Mannelijk,Links,2,88,left,yes,50,leftarrow,389,false,focus,yes,418737,Chrome,109.0,Windows,10,undefined,undefined,1680 x 1050,1680 x 1050
S005,49,Mannelijk,Links,2,89,right,yes,50,rightarrow,372,false,focus,yes,419897,Chrome,109.0,Windows,10,undefined,undefined,1680 x 1050,1680 x 1050
S005,49,Mannelijk,Links,2,90,right,no,50,rightarrow,490,true,focus,yes,421161,Chrome,109.0,Windows,10,undefined,undefined,1680 x 1050,1680 x 1050
S005,49,Mannelijk,Links,2,91,right,no,50,rightarrow,548,true,focus,yes,422489,Chrome,109.0,Windows,10,undefined,undefined,1680 x 1050,1680 x 1050
S005,49,Mannelijk,Links,2,92,right,no,50,rightarrow,440,true,focus,yes,423713,Chrome,109.0,Windows,10,undefined,undefined,1680 x 1050,1680 x 1050
S005,49,Mannelijk,Links,2,93,left,no,50,undefined,null,false,focus,yes,425759,Chrome,109.0,Windows,10,undefined,undefined,1680 x 1050,1680 x 1050
S005,49,Mannelijk,Links,2,94,left,no,50,leftarrow,427,true,focus,yes,426976,Chrome,109.0,Windows,10,undefined,undefined,1680 x 1050,1680 x 1050
S005,49,Mannelijk,Links,2,95,left,no,50,undefined,null,false,focus,yes,429015,Chrome,109.0,Windows,10,undefined,undefined,1680 x 1050,1680 x 1050
S005,49,Mannelijk,Links,2,96,left,yes,50,leftarrow,410,false,focus,yes,430209,Chrome,109.0,Windows,10,undefined,undefined,1680 x 1050,1680 x 1050
S005,49,Mannelijk,Links,2,97,left,no,50,undefined,null,false,focus,yes,432257,Chrome,109.0,Windows,10,undefined,undefined,1680 x 1050,1680 x 1050
S005,49,Mannelijk,Links,2,98,right,no,50,rightarrow,302,true,focus,yes,433345,Chrome,109.0,Windows,10,undefined,undefined,1680 x 1050,1680 x 1050
S005,49,Mannelijk,Links,2,99,left,no,50,leftarrow,393,true,focus,yes,434520,Chrome,109.0,Windows,10,undefined,undefined,1680 x 1050,1680 x 1050
S005,49,Mannelijk,Links,2,100,left,no,50,leftarrow,432,true,focus,yes,435737,Chrome,109.0,Windows,10,undefined,undefined,1680 x 1050,1680 x 1050
S005,49,Mannelijk,Links,2,101,right,no,50,rightarrow,367,true,focus,yes,436873,Chrome,109.0,Windows,10,undefined,undefined,1680 x 1050,1680 x 1050
S005,49,Mannelijk,Links,2,102,left,yes,50,leftarrow,469,false,focus,yes,438105,Chrome,109.0,Windows,10,undefined,undefined,1680 x 1050,1680 x 1050
S005,49,Mannelijk,Links,2,103,right,yes,50,rightarrow,430,false,focus,yes,439320,Chrome,109.0,Windows,10,undefined,undefined,1680 x 1050,1680 x 1050
S005,49,Mannelijk,Links,2,104,right,no,50,rightarrow,431,true,focus,yes,440512,Chrome,109.0,Windows,10,undefined,undefined,1680 x 1050,1680 x 1050
S005,49,Mannelijk,Links,2,105,left,no,50,leftarrow,400,true,focus,yes,441673,Chrome,109.0,Windows,10,undefined,undefined,1680 x 1050,1680 x 1050
S005,49,Mannelijk,Links,2,106,left,yes,50,leftarrow,387,false,focus,yes,442824,Chrome,109.0,Windows,10,undefined,undefined,1680 x 1050,1680 x 1050
S005,49,Mannelijk,Links,2,107,left,no,50,leftarrow,424,true,focus,yes,444009,Chrome,109.0,Windows,10,undefined,undefined,1680 x 1050,1680 x 1050
S005,49,Mannelijk,Links,2,108,right,no,50,rightarrow,342,true,focus,yes,445137,Chrome,109.0,Windows,10,undefined,undefined,1680 x 1050,1680 x 1050
S005,49,Mannelijk,Links,2,109,right,yes,50,rightarrow,438,false,focus,yes,446344,Chrome,109.0,Windows,10,undefined,undefined,1680 x 1050,1680 x 1050
S005,49,Mannelijk,Links,2,110,right,no,50,rightarrow,377,true,focus,yes,447504,Chrome,109.0,Windows,10,undefined,undefined,1680 x 1050,1680 x 1050
S005,49,Mannelijk,Links,2,111,right,no,50,rightarrow,431,true,focus,yes,448720,Chrome,109.0,Windows,10,undefined,undefined,1680 x 1050,1680 x 1050
S005,49,Mannelijk,Links,2,112,left,no,50,leftarrow,402,true,focus,yes,449903,Chrome,109.0,Windows,10,undefined,undefined,1680 x 1050,1680 x 1050
S005,49,Mannelijk,Links,2,113,right,no,50,rightarrow,423,true,focus,yes,451096,Chrome,109.0,Windows,10,undefined,undefined,1680 x 1050,1680 x 1050
S005,49,Mannelijk,Links,2,114,left,no,50,leftarrow,359,true,focus,yes,452241,Chrome,109.0,Windows,10,undefined,undefined,1680 x 1050,1680 x 1050
S005,49,Mannelijk,Links,2,115,left,no,50,leftarrow,426,true,focus,yes,453449,Chrome,109.0,Windows,10,undefined,undefined,1680 x 1050,1680 x 1050
S005,49,Mannelijk,Links,2,116,right,no,50,rightarrow,399,true,focus,yes,454625,Chrome,109.0,Windows,10,undefined,undefined,1680 x 1050,1680 x 1050
S005,49,Mannelijk,Links,2,117,right,no,50,rightarrow,368,true,focus,yes,455785,Chrome,109.0,Windows,10,undefined,undefined,1680 x 1050,1680 x 1050
S005,49,Mannelijk,Links,2,118,left,yes,50,leftarrow,400,false,focus,yes,456945,Chrome,109.0,Windows,10,undefined,undefined,1680 x 1050,1680 x 1050
S005,49,Mannelijk,Links,2,119,left,no,50,leftarrow,444,true,focus,yes,458177,Chrome,109.0,Windows,10,undefined,undefined,1680 x 1050,1680 x 1050
S005,49,Mannelijk,Links,2,120,right,yes,50,rightarrow,369,false,focus,yes,459338,Chrome,109.0,Windows,10,undefined,undefined,1680 x 1050,1680 x 1050
S005,49,Mannelijk,Links,2,121,left,no,50,leftarrow,396,true,focus,yes,460521,Chrome,109.0,Windows,10,undefined,undefined,1680 x 1050,1680 x 1050
S005,49,Mannelijk,Links,2,122,right,no,50,rightarrow,370,true,focus,yes,461657,Chrome,109.0,Windows,10,undefined,undefined,1680 x 1050,1680 x 1050
S005,49,Mannelijk,Links,2,123,left,no,50,leftarrow,410,true,focus,yes,462857,Chrome,109.0,Windows,10,undefined,undefined,1680 x 1050,1680 x 1050
S005,49,Mannelijk,Links,2,124,left,no,50,leftarrow,408,true,focus,yes,464049,Chrome,109.0,Windows,10,undefined,undefined,1680 x 1050,1680 x 1050
S005,49,Mannelijk,Links,2,125,left,yes,50,leftarrow,436,false,focus,yes,465272,Chrome,109.0,Windows,10,undefined,undefined,1680 x 1050,1680 x 1050
S005,49,Mannelijk,Links,2,126,right,no,50,rightarrow,435,true,focus,yes,466481,Chrome,109.0,Windows,10,undefined,undefined,1680 x 1050,1680 x 1050
S005,49,Mannelijk,Links,2,127,right,no,50,rightarrow,444,true,focus,yes,467713,Chrome,109.0,Windows,10,undefined,undefined,1680 x 1050,1680 x 1050
S005,49,Mannelijk,Links,2,128,right,yes,50,rightarrow,429,false,focus,yes,468921,Chrome,109.0,Windows,10,undefined,undefined,1680 x 1050,1680 x 1050
S005,49,Mannelijk,Links,3,1,left,yes,50,undefined,null,true,focus,yes,489569,Chrome,109.0,Windows,10,undefined,undefined,1680 x 1050,1680 x 1050
S005,49,Mannelijk,Links,3,2,left,no,100,undefined,null,false,focus,yes,491602,Chrome,109.0,Windows,10,undefined,undefined,1680 x 1050,1680 x 1050
S005,49,Mannelijk,Links,3,3,left,no,100,leftarrow,403,true,focus,yes,492777,Chrome,109.0,Windows,10,undefined,undefined,1680 x 1050,1680 x 1050
S005,49,Mannelijk,Links,3,4,left,no,100,undefined,null,false,focus,yes,494837,Chrome,109.0,Windows,10,undefined,undefined,1680 x 1050,1680 x 1050
S005,49,Mannelijk,Links,3,5,right,no,100,rightarrow,323,true,focus,yes,495945,Chrome,109.0,Windows,10,undefined,undefined,1680 x 1050,1680 x 1050
S005,49,Mannelijk,Links,3,6,right,yes,100,rightarrow,317,false,focus,yes,497057,Chrome,109.0,Windows,10,undefined,undefined,1680 x 1050,1680 x 1050
S005,49,Mannelijk,Links,3,7,right,no,50,rightarrow,332,true,focus,yes,498169,Chrome,109.0,Windows,10,undefined,undefined,1680 x 1050,1680 x 1050
S005,49,Mannelijk,Links,3,8,right,no,50,rightarrow,363,true,focus,yes,499321,Chrome,109.0,Windows,10,undefined,undefined,1680 x 1050,1680 x 1050
S005,49,Mannelijk,Links,3,9,left,yes,50,leftarrow,327,false,focus,yes,500433,Chrome,109.0,Windows,10,undefined,undefined,1680 x 1050,1680 x 1050
S005,49,Mannelijk,Links,3,10,left,no,50,leftarrow,383,true,focus,yes,501601,Chrome,109.0,Windows,10,undefined,undefined,1680 x 1050,1680 x 1050
S005,49,Mannelijk,Links,3,11,right,no,50,rightarrow,363,true,focus,yes,502761,Chrome,109.0,Windows,10,undefined,undefined,1680 x 1050,1680 x 1050
S005,49,Mannelijk,Links,3,12,right,no,50,rightarrow,379,true,focus,yes,503929,Chrome,109.0,Windows,10,undefined,undefined,1680 x 1050,1680 x 1050
S005,49,Mannelijk,Links,3,13,left,no,50,undefined,null,false,focus,yes,505981,Chrome,109.0,Windows,10,undefined,undefined,1680 x 1050,1680 x 1050
S005,49,Mannelijk,Links,3,14,right,yes,50,rightarrow,442,false,focus,yes,507209,Chrome,109.0,Windows,10,undefined,undefined,1680 x 1050,1680 x 1050
S005,49,Mannelijk,Links,3,15,left,no,50,leftarrow,346,true,focus,yes,508337,Chrome,109.0,Windows,10,undefined,undefined,1680 x 1050,1680 x 1050
S005,49,Mannelijk,Links,3,16,right,no,50,rightarrow,368,true,focus,yes,509488,Chrome,109.0,Windows,10,undefined,undefined,1680 x 1050,1680 x 1050
S005,49,Mannelijk,Links,3,17,left,no,50,undefined,null,false,focus,yes,511538,Chrome,109.0,Windows,10,undefined,undefined,1680 x 1050,1680 x 1050
S005,49,Mannelijk,Links,3,18,right,yes,50,rightarrow,380,false,focus,yes,512705,Chrome,109.0,Windows,10,undefined,undefined,1680 x 1050,1680 x 1050
S005,49,Mannelijk,Links,3,19,left,no,50,leftarrow,349,true,focus,yes,513849,Chrome,109.0,Windows,10,undefined,undefined,1680 x 1050,1680 x 1050
S005,49,Mannelijk,Links,3,20,right,no,50,rightarrow,348,true,focus,yes,514978,Chrome,109.0,Windows,10,undefined,undefined,1680 x 1050,1680 x 1050
S005,49,Mannelijk,Links,3,21,left,no,50,undefined,null,false,focus,yes,517016,Chrome,109.0,Windows,10,undefined,undefined,1680 x 1050,1680 x 1050
S005,49,Mannelijk,Links,3,22,right,no,50,rightarrow,325,true,focus,yes,518129,Chrome,109.0,Windows,10,undefined,undefined,1680 x 1050,1680 x 1050
S005,49,Mannelijk,Links,3,23,left,yes,50,leftarrow,338,false,focus,yes,519257,Chrome,109.0,Windows,10,undefined,undefined,1680 x 1050,1680 x 1050
S005,49,Mannelijk,Links,3,24,right,no,50,rightarrow,335,true,focus,yes,520384,Chrome,109.0,Windows,10,undefined,undefined,1680 x 1050,1680 x 1050
S005,49,Mannelijk,Links,3,25,left,no,50,leftarrow,344,true,focus,yes,521513,Chrome,109.0,Windows,10,undefined,undefined,1680 x 1050,1680 x 1050
S005,49,Mannelijk,Links,3,26,left,no,50,leftarrow,485,true,focus,yes,522785,Chrome,109.0,Windows,10,undefined,undefined,1680 x 1050,1680 x 1050
S005,49,Mannelijk,Links,3,27,right,no,50,rightarrow,323,true,focus,yes,523897,Chrome,109.0,Windows,10,undefined,undefined,1680 x 1050,1680 x 1050
S005,49,Mannelijk,Links,3,28,right,yes,50,rightarrow,408,false,focus,yes,525097,Chrome,109.0,Windows,10,undefined,undefined,1680 x 1050,1680 x 1050
S005,49,Mannelijk,Links,3,29,right,no,50,rightarrow,414,true,focus,yes,526297,Chrome,109.0,Windows,10,undefined,undefined,1680 x 1050,1680 x 1050
S005,49,Mannelijk,Links,3,30,left,yes,50,undefined,null,true,focus,yes,528328,Chrome,109.0,Windows,10,undefined,undefined,1680 x 1050,1680 x 1050
S005,49,Mannelijk,Links,3,31,left,no,100,leftarrow,539,true,focus,yes,529657,Chrome,109.0,Windows,10,undefined,undefined,1680 x 1050,1680 x 1050
S005,49,Mannelijk,Links,3,32,right,no,100,rightarrow,338,true,focus,yes,530778,Chrome,109.0,Windows,10,undefined,undefined,1680 x 1050,1680 x 1050
S005,49,Mannelijk,Links,3,33,left,no,100,leftarrow,470,true,focus,yes,532025,Chrome,109.0,Windows,10,undefined,undefined,1680 x 1050,1680 x 1050
S005,49,Mannelijk,Links,3,34,right,yes,100,rightarrow,334,false,focus,yes,533145,Chrome,109.0,Windows,10,undefined,undefined,1680 x 1050,1680 x 1050
S005,49,Mannelijk,Links,3,35,left,no,50,undefined,null,false,focus,yes,535185,Chrome,109.0,Windows,10,undefined,undefined,1680 x 1050,1680 x 1050
S005,49,Mannelijk,Links,3,36,right,no,50,rightarrow,325,true,focus,yes,536295,Chrome,109.0,Windows,10,undefined,undefined,1680 x 1050,1680 x 1050
S005,49,Mannelijk,Links,3,37,left,no,50,undefined,null,false,focus,yes,538346,Chrome,109.0,Windows,10,undefined,undefined,1680 x 1050,1680 x 1050
S005,49,Mannelijk,Links,3,38,right,no,50,rightarrow,283,true,focus,yes,539417,Chrome,109.0,Windows,10,undefined,undefined,1680 x 1050,1680 x 1050
S005,49,Mannelijk,Links,3,39,left,yes,50,leftarrow,543,false,focus,yes,540745,Chrome,109.0,Windows,10,undefined,undefined,1680 x 1050,1680 x 1050
S005,49,Mannelijk,Links,3,40,right,no,50,rightarrow,336,true,focus,yes,541873,Chrome,109.0,Windows,10,undefined,undefined,1680 x 1050,1680 x 1050
S005,49,Mannelijk,Links,3,41,left,yes,50,leftarrow,392,false,focus,yes,543041,Chrome,109.0,Windows,10,undefined,undefined,1680 x 1050,1680 x 1050
S005,49,Mannelijk,Links,3,42,right,yes,50,rightarrow,400,false,focus,yes,544225,Chrome,109.0,Windows,10,undefined,undefined,1680 x 1050,1680 x 1050
S005,49,Mannelijk,Links,3,43,left,no,50,undefined,null,false,focus,yes,546248,Chrome,109.0,Windows,10,undefined,undefined,1680 x 1050,1680 x 1050
S005,49,Mannelijk,Links,3,44,left,no,50,leftarrow,517,true,focus,yes,547551,Chrome,109.0,Windows,10,undefined,undefined,1680 x 1050,1680 x 1050
S005,49,Mannelijk,Links,3,45,right,no,50,rightarrow,305,true,focus,yes,548633,Chrome,109.0,Windows,10,undefined,undefined,1680 x 1050,1680 x 1050
S005,49,Mannelijk,Links,3,46,left,no,50,leftarrow,451,true,focus,yes,549865,Chrome,109.0,Windows,10,undefined,undefined,1680 x 1050,1680 x 1050
S005,49,Mannelijk,Links,3,47,right,no,50,rightarrow,423,true,focus,yes,551074,Chrome,109.0,Windows,10,undefined,undefined,1680 x 1050,1680 x 1050
S005,49,Mannelijk,Links,3,48,right,no,50,rightarrow,450,true,focus,yes,552305,Chrome,109.0,Windows,10,undefined,undefined,1680 x 1050,1680 x 1050
S005,49,Mannelijk,Links,3,49,right,no,50,rightarrow,378,true,focus,yes,553473,Chrome,109.0,Windows,10,undefined,undefined,1680 x 1050,1680 x 1050
S005,49,Mannelijk,Links,3,50,left,no,50,leftarrow,491,true,focus,yes,554745,Chrome,109.0,Windows,10,undefined,undefined,1680 x 1050,1680 x 1050
S005,49,Mannelijk,Links,3,51,right,yes,50,rightarrow,400,false,focus,yes,555913,Chrome,109.0,Windows,10,undefined,undefined,1680 x 1050,1680 x 1050
S005,49,Mannelijk,Links,3,52,right,no,50,rightarrow,361,true,focus,yes,557065,Chrome,109.0,Windows,10,undefined,undefined,1680 x 1050,1680 x 1050
S005,49,Mannelijk,Links,3,53,left,no,50,leftarrow,420,true,focus,yes,558273,Chrome,109.0,Windows,10,undefined,undefined,1680 x 1050,1680 x 1050
S005,49,Mannelijk,Links,3,54,right,no,50,rightarrow,323,true,focus,yes,559385,Chrome,109.0,Windows,10,undefined,undefined,1680 x 1050,1680 x 1050
S005,49,Mannelijk,Links,3,55,left,no,50,leftarrow,430,true,focus,yes,560610,Chrome,109.0,Windows,10,undefined,undefined,1680 x 1050,1680 x 1050
S005,49,Mannelijk,Links,3,56,left,yes,50,leftarrow,484,false,focus,yes,561873,Chrome,109.0,Windows,10,undefined,undefined,1680 x 1050,1680 x 1050
S005,49,Mannelijk,Links,3,57,left,no,50,leftarrow,424,true,focus,yes,563089,Chrome,109.0,Windows,10,undefined,undefined,1680 x 1050,1680 x 1050
S005,49,Mannelijk,Links,3,58,left,no,50,leftarrow,436,true,focus,yes,564313,Chrome,109.0,Windows,10,undefined,undefined,1680 x 1050,1680 x 1050
S005,49,Mannelijk,Links,3,59,left,no,50,undefined,null,false,focus,yes,566359,Chrome,109.0,Windows,10,undefined,undefined,1680 x 1050,1680 x 1050
S005,49,Mannelijk,Links,3,60,right,no,50,rightarrow,491,true,focus,yes,567633,Chrome,109.0,Windows,10,undefined,undefined,1680 x 1050,1680 x 1050
S005,49,Mannelijk,Links,3,61,right,yes,50,rightarrow,375,false,focus,yes,568777,Chrome,109.0,Windows,10,undefined,undefined,1680 x 1050,1680 x 1050
S005,49,Mannelijk,Links,3,62,right,no,50,rightarrow,365,true,focus,yes,569930,Chrome,109.0,Windows,10,undefined,undefined,1680 x 1050,1680 x 1050
S005,49,Mannelijk,Links,3,63,left,yes,50,undefined,null,true,focus,yes,571980,Chrome,109.0,Windows,10,undefined,undefined,1680 x 1050,1680 x 1050
S005,49,Mannelijk,Links,3,64,right,no,100,rightarrow,329,true,focus,yes,573097,Chrome,109.0,Windows,10,undefined,undefined,1680 x 1050,1680 x 1050
S005,49,Mannelijk,Links,3,65,left,no,100,undefined,null,false,focus,yes,575150,Chrome,109.0,Windows,10,undefined,undefined,1680 x 1050,1680 x 1050
S005,49,Mannelijk,Links,3,66,left,no,100,undefined,null,false,focus,yes,577202,Chrome,109.0,Windows,10,undefined,undefined,1680 x 1050,1680 x 1050
S005,49,Mannelijk,Links,3,67,right,yes,100,rightarrow,285,false,focus,yes,578274,Chrome,109.0,Windows,10,undefined,undefined,1680 x 1050,1680 x 1050
S005,49,Mannelijk,Links,3,68,right,no,50,rightarrow,348,true,focus,yes,579409,Chrome,109.0,Windows,10,undefined,undefined,1680 x 1050,1680 x 1050
S005,49,Mannelijk,Links,3,69,right,no,50,rightarrow,404,true,focus,yes,580609,Chrome,109.0,Windows,10,undefined,undefined,1680 x 1050,1680 x 1050
S005,49,Mannelijk,Links,3,70,left,yes,50,leftarrow,431,false,focus,yes,581833,Chrome,109.0,Windows,10,undefined,undefined,1680 x 1050,1680 x 1050
S005,49,Mannelijk,Links,3,71,left,no,50,undefined,null,false,focus,yes,583859,Chrome,109.0,Windows,10,undefined,undefined,1680 x 1050,1680 x 1050
S005,49,Mannelijk,Links,3,72,right,no,50,rightarrow,315,true,focus,yes,584961,Chrome,109.0,Windows,10,undefined,undefined,1680 x 1050,1680 x 1050
S005,49,Mannelijk,Links,3,73,right,yes,50,rightarrow,374,false,focus,yes,586121,Chrome,109.0,Windows,10,undefined,undefined,1680 x 1050,1680 x 1050
S005,49,Mannelijk,Links,3,74,left,no,50,leftarrow,413,true,focus,yes,587321,Chrome,109.0,Windows,10,undefined,undefined,1680 x 1050,1680 x 1050
S005,49,Mannelijk,Links,3,75,left,no,50,leftarrow,387,true,focus,yes,588490,Chrome,109.0,Windows,10,undefined,undefined,1680 x 1050,1680 x 1050
S005,49,Mannelijk,Links,3,76,right,no,50,rightarrow,339,true,focus,yes,589625,Chrome,109.0,Windows,10,undefined,undefined,1680 x 1050,1680 x 1050
S005,49,Mannelijk,Links,3,77,left,no,50,undefined,null,false,focus,yes,591681,Chrome,109.0,Windows,10,undefined,undefined,1680 x 1050,1680 x 1050
S005,49,Mannelijk,Links,3,78,left,yes,50,undefined,null,true,focus,yes,593728,Chrome,109.0,Windows,10,undefined,undefined,1680 x 1050,1680 x 1050
S005,49,Mannelijk,Links,3,79,right,no,100,rightarrow,335,true,focus,yes,594850,Chrome,109.0,Windows,10,undefined,undefined,1680 x 1050,1680 x 1050
S005,49,Mannelijk,Links,3,80,right,no,100,rightarrow,463,true,focus,yes,596090,Chrome,109.0,Windows,10,undefined,undefined,1680 x 1050,1680 x 1050
S005,49,Mannelijk,Links,3,81,right,no,100,rightarrow,481,true,focus,yes,597329,Chrome,109.0,Windows,10,undefined,undefined,1680 x 1050,1680 x 1050
S005,49,Mannelijk,Links,3,82,left,no,100,undefined,null,false,focus,yes,599388,Chrome,109.0,Windows,10,undefined,undefined,1680 x 1050,1680 x 1050
S005,49,Mannelijk,Links,3,83,right,no,100,rightarrow,161,true,focus,yes,600337,Chrome,109.0,Windows,10,undefined,undefined,1680 x 1050,1680 x 1050
S005,49,Mannelijk,Links,3,84,right,yes,100,rightarrow,501,false,focus,yes,601633,Chrome,109.0,Windows,10,undefined,undefined,1680 x 1050,1680 x 1050
S005,49,Mannelijk,Links,3,85,left,no,50,undefined,null,false,focus,yes,603680,Chrome,109.0,Windows,10,undefined,undefined,1680 x 1050,1680 x 1050
S005,49,Mannelijk,Links,3,86,left,yes,50,undefined,null,true,focus,yes,605728,Chrome,109.0,Windows,10,undefined,undefined,1680 x 1050,1680 x 1050
S005,49,Mannelijk,Links,3,87,right,no,100,rightarrow,344,true,focus,yes,606857,Chrome,109.0,Windows,10,undefined,undefined,1680 x 1050,1680 x 1050
S005,49,Mannelijk,Links,3,88,left,no,100,undefined,null,false,focus,yes,608904,Chrome,109.0,Windows,10,undefined,undefined,1680 x 1050,1680 x 1050
S005,49,Mannelijk,Links,3,89,left,no,100,undefined,null,false,focus,yes,610949,Chrome,109.0,Windows,10,undefined,undefined,1680 x 1050,1680 x 1050
S005,49,Mannelijk,Links,3,90,right,yes,100,rightarrow,346,false,focus,yes,612081,Chrome,109.0,Windows,10,undefined,undefined,1680 x 1050,1680 x 1050
S005,49,Mannelijk,Links,3,91,right,no,50,rightarrow,407,true,focus,yes,613257,Chrome,109.0,Windows,10,undefined,undefined,1680 x 1050,1680 x 1050
S005,49,Mannelijk,Links,3,92,left,yes,50,undefined,null,true,focus,yes,615306,Chrome,109.0,Windows,10,undefined,undefined,1680 x 1050,1680 x 1050
S005,49,Mannelijk,Links,3,93,right,no,100,rightarrow,364,true,focus,yes,616458,Chrome,109.0,Windows,10,undefined,undefined,1680 x 1050,1680 x 1050
S005,49,Mannelijk,Links,3,94,left,no,100,undefined,null,false,focus,yes,618502,Chrome,109.0,Windows,10,undefined,undefined,1680 x 1050,1680 x 1050
S005,49,Mannelijk,Links,3,95,left,no,100,undefined,null,false,focus,yes,620552,Chrome,109.0,Windows,10,undefined,undefined,1680 x 1050,1680 x 1050
S005,49,Mannelijk,Links,3,96,right,no,100,rightarrow,347,true,focus,yes,621683,Chrome,109.0,Windows,10,undefined,undefined,1680 x 1050,1680 x 1050
S005,49,Mannelijk,Links,3,97,right,no,100,rightarrow,420,true,focus,yes,622881,Chrome,109.0,Windows,10,undefined,undefined,1680 x 1050,1680 x 1050
S005,49,Mannelijk,Links,3,98,left,no,100,leftarrow,425,true,focus,yes,624065,Chrome,109.0,Windows,10,undefined,undefined,1680 x 1050,1680 x 1050
S005,49,Mannelijk,Links,3,99,left,no,100,undefined,null,false,focus,yes,626093,Chrome,109.0,Windows,10,undefined,undefined,1680 x 1050,1680 x 1050
S005,49,Mannelijk,Links,3,100,right,yes,100,rightarrow,326,false,focus,yes,627193,Chrome,109.0,Windows,10,undefined,undefined,1680 x 1050,1680 x 1050
S005,49,Mannelijk,Links,3,101,right,no,50,rightarrow,363,true,focus,yes,628345,Chrome,109.0,Windows,10,undefined,undefined,1680 x 1050,1680 x 1050
S005,49,Mannelijk,Links,3,102,left,yes,50,leftarrow,398,false,focus,yes,629512,Chrome,109.0,Windows,10,undefined,undefined,1680 x 1050,1680 x 1050
S005,49,Mannelijk,Links,3,103,left,no,50,leftarrow,370,true,focus,yes,630673,Chrome,109.0,Windows,10,undefined,undefined,1680 x 1050,1680 x 1050
S005,49,Mannelijk,Links,3,104,right,no,50,rightarrow,370,true,focus,yes,631833,Chrome,109.0,Windows,10,undefined,undefined,1680 x 1050,1680 x 1050
S005,49,Mannelijk,Links,3,105,left,no,50,leftarrow,381,true,focus,yes,633010,Chrome,109.0,Windows,10,undefined,undefined,1680 x 1050,1680 x 1050
S005,49,Mannelijk,Links,3,106,right,no,50,rightarrow,397,true,focus,yes,634177,Chrome,109.0,Windows,10,undefined,undefined,1680 x 1050,1680 x 1050
S005,49,Mannelijk,Links,3,107,left,no,50,leftarrow,410,true,focus,yes,635370,Chrome,109.0,Windows,10,undefined,undefined,1680 x 1050,1680 x 1050
S005,49,Mannelijk,Links,3,108,left,yes,50,leftarrow,520,false,focus,yes,636673,Chrome,109.0,Windows,10,undefined,undefined,1680 x 1050,1680 x 1050
S005,49,Mannelijk,Links,3,109,right,no,50,rightarrow,350,true,focus,yes,637809,Chrome,109.0,Windows,10,undefined,undefined,1680 x 1050,1680 x 1050
S005,49,Mannelijk,Links,3,110,right,no,50,rightarrow,458,true,focus,yes,639050,Chrome,109.0,Windows,10,undefined,undefined,1680 x 1050,1680 x 1050
S005,49,Mannelijk,Links,3,111,right,yes,50,rightarrow,447,false,focus,yes,640281,Chrome,109.0,Windows,10,undefined,undefined,1680 x 1050,1680 x 1050
S005,49,Mannelijk,Links,3,112,left,no,50,undefined,null,false,focus,yes,642337,Chrome,109.0,Windows,10,undefined,undefined,1680 x 1050,1680 x 1050
S005,49,Mannelijk,Links,3,113,right,no,50,rightarrow,337,true,focus,yes,643458,Chrome,109.0,Windows,10,undefined,undefined,1680 x 1050,1680 x 1050
S005,49,Mannelijk,Links,3,114,left,no,50,leftarrow,442,true,focus,yes,644698,Chrome,109.0,Windows,10,undefined,undefined,1680 x 1050,1680 x 1050
S005,49,Mannelijk,Links,3,115,right,yes,50,rightarrow,357,false,focus,yes,645833,Chrome,109.0,Windows,10,undefined,undefined,1680 x 1050,1680 x 1050
S005,49,Mannelijk,Links,3,116,right,no,50,rightarrow,532,true,focus,yes,647153,Chrome,109.0,Windows,10,undefined,undefined,1680 x 1050,1680 x 1050
S005,49,Mannelijk,Links,3,117,right,no,50,rightarrow,384,true,focus,yes,648329,Chrome,109.0,Windows,10,undefined,undefined,1680 x 1050,1680 x 1050
S005,49,Mannelijk,Links,3,118,left,no,50,leftarrow,476,true,focus,yes,649601,Chrome,109.0,Windows,10,undefined,undefined,1680 x 1050,1680 x 1050
S005,49,Mannelijk,Links,3,119,left,yes,50,leftarrow,433,false,focus,yes,650801,Chrome,109.0,Windows,10,undefined,undefined,1680 x 1050,1680 x 1050
S005,49,Mannelijk,Links,3,120,left,no,50,leftarrow,438,true,focus,yes,652033,Chrome,109.0,Windows,10,undefined,undefined,1680 x 1050,1680 x 1050
S005,49,Mannelijk,Links,3,121,left,yes,50,leftarrow,434,false,focus,yes,653249,Chrome,109.0,Windows,10,undefined,undefined,1680 x 1050,1680 x 1050
S005,49,Mannelijk,Links,3,122,left,no,50,leftarrow,419,true,focus,yes,654457,Chrome,109.0,Windows,10,undefined,undefined,1680 x 1050,1680 x 1050
S005,49,Mannelijk,Links,3,123,right,no,50,rightarrow,424,true,focus,yes,655673,Chrome,109.0,Windows,10,undefined,undefined,1680 x 1050,1680 x 1050
S005,49,Mannelijk,Links,3,124,right,yes,50,rightarrow,431,false,focus,yes,656889,Chrome,109.0,Windows,10,undefined,undefined,1680 x 1050,1680 x 1050
S005,49,Mannelijk,Links,3,125,right,no,50,rightarrow,348,true,focus,yes,658033,Chrome,109.0,Windows,10,undefined,undefined,1680 x 1050,1680 x 1050
S005,49,Mannelijk,Links,3,126,right,no,50,rightarrow,437,true,focus,yes,659257,Chrome,109.0,Windows,10,undefined,undefined,1680 x 1050,1680 x 1050
S005,49,Mannelijk,Links,3,127,left,no,50,leftarrow,556,true,focus,yes,660601,Chrome,109.0,Windows,10,undefined,undefined,1680 x 1050,1680 x 1050
S005,49,Mannelijk,Links,3,128,left,no,50,leftarrow,518,true,focus,yes,661914,Chrome,109.0,Windows,10,undefined,undefined,1680 x 1050,1680 x 1050
S005,49,Mannelijk,Links,4,1,left,no,50,undefined,null,false,focus,yes,687397,Chrome,109.0,Windows,10,undefined,undefined,1680 x 1050,1680 x 1050
S005,49,Mannelijk,Links,4,2,right,no,50,rightarrow,273,true,focus,yes,688441,Chrome,109.0,Windows,10,undefined,undefined,1680 x 1050,1680 x 1050
S005,49,Mannelijk,Links,4,3,left,no,50,leftarrow,373,true,focus,yes,689609,Chrome,109.0,Windows,10,undefined,undefined,1680 x 1050,1680 x 1050
S005,49,Mannelijk,Links,4,4,right,no,50,rightarrow,332,true,focus,yes,690728,Chrome,109.0,Windows,10,undefined,undefined,1680 x 1050,1680 x 1050
S005,49,Mannelijk,Links,4,5,right,no,50,rightarrow,429,true,focus,yes,691937,Chrome,109.0,Windows,10,undefined,undefined,1680 x 1050,1680 x 1050
S005,49,Mannelijk,Links,4,6,left,yes,50,leftarrow,423,false,focus,yes,693130,Chrome,109.0,Windows,10,undefined,undefined,1680 x 1050,1680 x 1050
S005,49,Mannelijk,Links,4,7,right,yes,50,rightarrow,322,false,focus,yes,694242,Chrome,109.0,Windows,10,undefined,undefined,1680 x 1050,1680 x 1050
S005,49,Mannelijk,Links,4,8,left,no,50,undefined,null,false,focus,yes,696269,Chrome,109.0,Windows,10,undefined,undefined,1680 x 1050,1680 x 1050
S005,49,Mannelijk,Links,4,9,left,no,50,leftarrow,441,true,focus,yes,697497,Chrome,109.0,Windows,10,undefined,undefined,1680 x 1050,1680 x 1050
S005,49,Mannelijk,Links,4,10,right,no,50,rightarrow,322,true,focus,yes,698610,Chrome,109.0,Windows,10,undefined,undefined,1680 x 1050,1680 x 1050
S005,49,Mannelijk,Links,4,11,right,no,50,rightarrow,448,true,focus,yes,699818,Chrome,109.0,Windows,10,undefined,undefined,1680 x 1050,1680 x 1050
S005,49,Mannelijk,Links,4,12,left,yes,50,undefined,null,true,focus,yes,701879,Chrome,109.0,Windows,10,undefined,undefined,1680 x 1050,1680 x 1050
S005,49,Mannelijk,Links,4,13,left,no,100,undefined,null,false,focus,yes,703909,Chrome,109.0,Windows,10,undefined,undefined,1680 x 1050,1680 x 1050
S005,49,Mannelijk,Links,4,14,left,no,100,leftarrow,408,true,focus,yes,705090,Chrome,109.0,Windows,10,undefined,undefined,1680 x 1050,1680 x 1050
S005,49,Mannelijk,Links,4,15,right,no,100,rightarrow,465,true,focus,yes,706345,Chrome,109.0,Windows,10,undefined,undefined,1680 x 1050,1680 x 1050
S005,49,Mannelijk,Links,4,16,right,yes,100,rightarrow,424,false,focus,yes,707562,Chrome,109.0,Windows,10,undefined,undefined,1680 x 1050,1680 x 1050
S005,49,Mannelijk,Links,4,17,right,yes,50,rightarrow,404,false,focus,yes,708753,Chrome,109.0,Windows,10,undefined,undefined,1680 x 1050,1680 x 1050
S005,49,Mannelijk,Links,4,18,right,no,50,rightarrow,395,true,focus,yes,709938,Chrome,109.0,Windows,10,undefined,undefined,1680 x 1050,1680 x 1050
S005,49,Mannelijk,Links,4,19,right,no,50,rightarrow,399,true,focus,yes,711122,Chrome,109.0,Windows,10,undefined,undefined,1680 x 1050,1680 x 1050
S005,49,Mannelijk,Links,4,20,left,no,50,leftarrow,474,true,focus,yes,712361,Chrome,109.0,Windows,10,undefined,undefined,1680 x 1050,1680 x 1050
S005,49,Mannelijk,Links,4,21,left,yes,50,leftarrow,408,false,focus,yes,713537,Chrome,109.0,Windows,10,undefined,undefined,1680 x 1050,1680 x 1050
S005,49,Mannelijk,Links,4,22,right,no,50,rightarrow,359,true,focus,yes,714665,Chrome,109.0,Windows,10,undefined,undefined,1680 x 1050,1680 x 1050
S005,49,Mannelijk,Links,4,23,left,no,50,leftarrow,409,true,focus,yes,715866,Chrome,109.0,Windows,10,undefined,undefined,1680 x 1050,1680 x 1050
S005,49,Mannelijk,Links,4,24,left,no,50,leftarrow,426,true,focus,yes,717074,Chrome,109.0,Windows,10,undefined,undefined,1680 x 1050,1680 x 1050
S005,49,Mannelijk,Links,4,25,right,no,50,rightarrow,577,true,focus,yes,718418,Chrome,109.0,Windows,10,undefined,undefined,1680 x 1050,1680 x 1050
S005,49,Mannelijk,Links,4,26,left,yes,50,undefined,null,true,focus,yes,720455,Chrome,109.0,Windows,10,undefined,undefined,1680 x 1050,1680 x 1050
S005,49,Mannelijk,Links,4,27,left,no,100,leftarrow,469,true,focus,yes,721697,Chrome,109.0,Windows,10,undefined,undefined,1680 x 1050,1680 x 1050
S005,49,Mannelijk,Links,4,28,left,no,100,leftarrow,344,true,focus,yes,722833,Chrome,109.0,Windows,10,undefined,undefined,1680 x 1050,1680 x 1050
S005,49,Mannelijk,Links,4,29,left,no,100,leftarrow,380,true,focus,yes,724001,Chrome,109.0,Windows,10,undefined,undefined,1680 x 1050,1680 x 1050
S005,49,Mannelijk,Links,4,30,right,yes,100,rightarrow,416,false,focus,yes,725201,Chrome,109.0,Windows,10,undefined,undefined,1680 x 1050,1680 x 1050
S005,49,Mannelijk,Links,4,31,right,no,50,rightarrow,377,true,focus,yes,726355,Chrome,109.0,Windows,10,undefined,undefined,1680 x 1050,1680 x 1050
S005,49,Mannelijk,Links,4,32,right,no,50,rightarrow,346,true,focus,yes,727488,Chrome,109.0,Windows,10,undefined,undefined,1680 x 1050,1680 x 1050
S005,49,Mannelijk,Links,4,33,right,no,50,rightarrow,347,true,focus,yes,728600,Chrome,109.0,Windows,10,undefined,undefined,1680 x 1050,1680 x 1050
S005,49,Mannelijk,Links,4,34,right,no,50,rightarrow,395,true,focus,yes,729770,Chrome,109.0,Windows,10,undefined,undefined,1680 x 1050,1680 x 1050
S005,49,Mannelijk,Links,4,35,right,no,50,rightarrow,411,true,focus,yes,730960,Chrome,109.0,Windows,10,undefined,undefined,1680 x 1050,1680 x 1050
S005,49,Mannelijk,Links,4,36,right,yes,50,rightarrow,407,false,focus,yes,732146,Chrome,109.0,Windows,10,undefined,undefined,1680 x 1050,1680 x 1050
S005,49,Mannelijk,Links,4,37,left,no,50,leftarrow,411,true,focus,yes,733345,Chrome,109.0,Windows,10,undefined,undefined,1680 x 1050,1680 x 1050
S005,49,Mannelijk,Links,4,38,left,yes,50,leftarrow,393,false,focus,yes,734522,Chrome,109.0,Windows,10,undefined,undefined,1680 x 1050,1680 x 1050
S005,49,Mannelijk,Links,4,39,left,no,50,leftarrow,424,true,focus,yes,735731,Chrome,109.0,Windows,10,undefined,undefined,1680 x 1050,1680 x 1050
S005,49,Mannelijk,Links,4,40,left,no,50,leftarrow,385,true,focus,yes,736899,Chrome,109.0,Windows,10,undefined,undefined,1680 x 1050,1680 x 1050
S005,49,Mannelijk,Links,4,41,right,no,50,rightarrow,415,true,focus,yes,738090,Chrome,109.0,Windows,10,undefined,undefined,1680 x 1050,1680 x 1050
S005,49,Mannelijk,Links,4,42,left,no,50,leftarrow,445,true,focus,yes,739330,Chrome,109.0,Windows,10,undefined,undefined,1680 x 1050,1680 x 1050
S005,49,Mannelijk,Links,4,43,left,no,50,undefined,null,false,focus,yes,741390,Chrome,109.0,Windows,10,undefined,undefined,1680 x 1050,1680 x 1050
S005,49,Mannelijk,Links,4,44,right,yes,50,rightarrow,272,false,focus,yes,742450,Chrome,109.0,Windows,10,undefined,undefined,1680 x 1050,1680 x 1050
S005,49,Mannelijk,Links,4,45,right,no,50,rightarrow,347,true,focus,yes,743586,Chrome,109.0,Windows,10,undefined,undefined,1680 x 1050,1680 x 1050
S005,49,Mannelijk,Links,4,46,right,no,50,rightarrow,349,true,focus,yes,744721,Chrome,109.0,Windows,10,undefined,undefined,1680 x 1050,1680 x 1050
S005,49,Mannelijk,Links,4,47,left,yes,50,leftarrow,340,false,focus,yes,745841,Chrome,109.0,Windows,10,undefined,undefined,1680 x 1050,1680 x 1050
S005,49,Mannelijk,Links,4,48,left,no,50,undefined,null,false,focus,yes,747892,Chrome,109.0,Windows,10,undefined,undefined,1680 x 1050,1680 x 1050
S005,49,Mannelijk,Links,4,49,right,no,50,rightarrow,344,true,focus,yes,749026,Chrome,109.0,Windows,10,undefined,undefined,1680 x 1050,1680 x 1050
S005,49,Mannelijk,Links,4,50,left,yes,50,leftarrow,465,false,focus,yes,750274,Chrome,109.0,Windows,10,undefined,undefined,1680 x 1050,1680 x 1050
S005,49,Mannelijk,Links,4,51,left,no,50,leftarrow,445,true,focus,yes,751514,Chrome,109.0,Windows,10,undefined,undefined,1680 x 1050,1680 x 1050
S005,49,Mannelijk,Links,4,52,right,no,50,rightarrow,399,true,focus,yes,752706,Chrome,109.0,Windows,10,undefined,undefined,1680 x 1050,1680 x 1050
S005,49,Mannelijk,Links,4,53,left,no,50,leftarrow,416,true,focus,yes,753889,Chrome,109.0,Windows,10,undefined,undefined,1680 x 1050,1680 x 1050
S005,49,Mannelijk,Links,4,54,right,no,50,rightarrow,386,true,focus,yes,755073,Chrome,109.0,Windows,10,undefined,undefined,1680 x 1050,1680 x 1050
S005,49,Mannelijk,Links,4,55,right,yes,50,rightarrow,441,false,focus,yes,756306,Chrome,109.0,Windows,10,undefined,undefined,1680 x 1050,1680 x 1050
S005,49,Mannelijk,Links,4,56,left,no,50,leftarrow,394,true,focus,yes,757481,Chrome,109.0,Windows,10,undefined,undefined,1680 x 1050,1680 x 1050
S005,49,Mannelijk,Links,4,57,right,no,50,rightarrow,451,true,focus,yes,758722,Chrome,109.0,Windows,10,undefined,undefined,1680 x 1050,1680 x 1050
S005,49,Mannelijk,Links,4,58,right,no,50,rightarrow,459,true,focus,yes,759970,Chrome,109.0,Windows,10,undefined,undefined,1680 x 1050,1680 x 1050
S005,49,Mannelijk,Links,4,59,right,no,50,rightarrow,460,true,focus,yes,761218,Chrome,109.0,Windows,10,undefined,undefined,1680 x 1050,1680 x 1050
S005,49,Mannelijk,Links,4,60,left,no,50,leftarrow,379,true,focus,yes,762394,Chrome,109.0,Windows,10,undefined,undefined,1680 x 1050,1680 x 1050
S005,49,Mannelijk,Links,4,61,left,no,50,leftarrow,417,true,focus,yes,763610,Chrome,109.0,Windows,10,undefined,undefined,1680 x 1050,1680 x 1050
S005,49,Mannelijk,Links,4,62,right,yes,50,rightarrow,395,false,focus,yes,764801,Chrome,109.0,Windows,10,undefined,undefined,1680 x 1050,1680 x 1050
S005,49,Mannelijk,Links,4,63,left,no,50,leftarrow,411,true,focus,yes,765993,Chrome,109.0,Windows,10,undefined,undefined,1680 x 1050,1680 x 1050
S005,49,Mannelijk,Links,4,64,left,yes,50,leftarrow,439,false,focus,yes,767202,Chrome,109.0,Windows,10,undefined,undefined,1680 x 1050,1680 x 1050
S005,49,Mannelijk,Links,4,65,right,no,50,rightarrow,399,true,focus,yes,768385,Chrome,109.0,Windows,10,undefined,undefined,1680 x 1050,1680 x 1050
S005,49,Mannelijk,Links,4,66,right,no,50,rightarrow,423,true,focus,yes,769601,Chrome,109.0,Windows,10,undefined,undefined,1680 x 1050,1680 x 1050
S005,49,Mannelijk,Links,4,67,right,no,50,rightarrow,428,true,focus,yes,770818,Chrome,109.0,Windows,10,undefined,undefined,1680 x 1050,1680 x 1050
S005,49,Mannelijk,Links,4,68,left,no,50,leftarrow,427,true,focus,yes,772026,Chrome,109.0,Windows,10,undefined,undefined,1680 x 1050,1680 x 1050
S005,49,Mannelijk,Links,4,69,left,no,50,leftarrow,516,true,focus,yes,773330,Chrome,109.0,Windows,10,undefined,undefined,1680 x 1050,1680 x 1050
S005,49,Mannelijk,Links,4,70,left,no,50,leftarrow,395,true,focus,yes,774513,Chrome,109.0,Windows,10,undefined,undefined,1680 x 1050,1680 x 1050
S005,49,Mannelijk,Links,4,71,right,yes,50,rightarrow,402,false,focus,yes,775713,Chrome,109.0,Windows,10,undefined,undefined,1680 x 1050,1680 x 1050
S005,49,Mannelijk,Links,4,72,left,yes,50,leftarrow,418,false,focus,yes,776922,Chrome,109.0,Windows,10,undefined,undefined,1680 x 1050,1680 x 1050
S005,49,Mannelijk,Links,4,73,right,no,50,rightarrow,458,true,focus,yes,778177,Chrome,109.0,Windows,10,undefined,undefined,1680 x 1050,1680 x 1050
S005,49,Mannelijk,Links,4,74,right,no,50,rightarrow,409,true,focus,yes,779354,Chrome,109.0,Windows,10,undefined,undefined,1680 x 1050,1680 x 1050
S005,49,Mannelijk,Links,4,75,left,no,50,leftarrow,431,true,focus,yes,780553,Chrome,109.0,Windows,10,undefined,undefined,1680 x 1050,1680 x 1050
S005,49,Mannelijk,Links,4,76,right,yes,50,rightarrow,460,false,focus,yes,781802,Chrome,109.0,Windows,10,undefined,undefined,1680 x 1050,1680 x 1050
S005,49,Mannelijk,Links,4,77,left,no,50,leftarrow,365,true,focus,yes,782945,Chrome,109.0,Windows,10,undefined,undefined,1680 x 1050,1680 x 1050
S005,49,Mannelijk,Links,4,78,right,no,50,rightarrow,319,true,focus,yes,784049,Chrome,109.0,Windows,10,undefined,undefined,1680 x 1050,1680 x 1050
S005,49,Mannelijk,Links,4,79,left,yes,50,undefined,null,true,focus,yes,786090,Chrome,109.0,Windows,10,undefined,undefined,1680 x 1050,1680 x 1050
S005,49,Mannelijk,Links,4,80,left,no,100,leftarrow,500,true,focus,yes,787378,Chrome,109.0,Windows,10,undefined,undefined,1680 x 1050,1680 x 1050
S005,49,Mannelijk,Links,4,81,left,no,100,leftarrow,427,true,focus,yes,788594,Chrome,109.0,Windows,10,undefined,undefined,1680 x 1050,1680 x 1050
S005,49,Mannelijk,Links,4,82,left,yes,100,leftarrow,402,false,focus,yes,789793,Chrome,109.0,Windows,10,undefined,undefined,1680 x 1050,1680 x 1050
S005,49,Mannelijk,Links,4,83,left,no,50,leftarrow,378,true,focus,yes,790962,Chrome,109.0,Windows,10,undefined,undefined,1680 x 1050,1680 x 1050
S005,49,Mannelijk,Links,4,84,left,no,50,undefined,null,false,focus,yes,793012,Chrome,109.0,Windows,10,undefined,undefined,1680 x 1050,1680 x 1050
S005,49,Mannelijk,Links,4,85,right,no,50,rightarrow,177,true,focus,yes,793978,Chrome,109.0,Windows,10,undefined,undefined,1680 x 1050,1680 x 1050
S005,49,Mannelijk,Links,4,86,right,no,50,rightarrow,326,true,focus,yes,795098,Chrome,109.0,Windows,10,undefined,undefined,1680 x 1050,1680 x 1050
S005,49,Mannelijk,Links,4,87,right,yes,50,rightarrow,365,false,focus,yes,796241,Chrome,109.0,Windows,10,undefined,undefined,1680 x 1050,1680 x 1050
S005,49,Mannelijk,Links,4,88,right,no,50,rightarrow,338,true,focus,yes,797377,Chrome,109.0,Windows,10,undefined,undefined,1680 x 1050,1680 x 1050
S005,49,Mannelijk,Links,4,89,right,no,50,rightarrow,359,true,focus,yes,798497,Chrome,109.0,Windows,10,undefined,undefined,1680 x 1050,1680 x 1050
S005,49,Mannelijk,Links,4,90,left,yes,50,leftarrow,506,false,focus,yes,799794,Chrome,109.0,Windows,10,undefined,undefined,1680 x 1050,1680 x 1050
S005,49,Mannelijk,Links,4,91,left,no,50,undefined,null,false,focus,yes,801838,Chrome,109.0,Windows,10,undefined,undefined,1680 x 1050,1680 x 1050
S005,49,Mannelijk,Links,4,92,right,no,50,rightarrow,306,true,focus,yes,802929,Chrome,109.0,Windows,10,undefined,undefined,1680 x 1050,1680 x 1050
S005,49,Mannelijk,Links,4,93,left,no,50,leftarrow,433,true,focus,yes,804129,Chrome,109.0,Windows,10,undefined,undefined,1680 x 1050,1680 x 1050
S005,49,Mannelijk,Links,4,94,right,yes,50,rightarrow,334,false,focus,yes,805257,Chrome,109.0,Windows,10,undefined,undefined,1680 x 1050,1680 x 1050
S005,49,Mannelijk,Links,4,95,right,no,50,rightarrow,445,true,focus,yes,806473,Chrome,109.0,Windows,10,undefined,undefined,1680 x 1050,1680 x 1050
S005,49,Mannelijk,Links,4,96,left,no,50,leftarrow,504,true,focus,yes,807746,Chrome,109.0,Windows,10,undefined,undefined,1680 x 1050,1680 x 1050
S005,49,Mannelijk,Links,4,97,left,no,50,undefined,null,false,focus,yes,809801,Chrome,109.0,Windows,10,undefined,undefined,1680 x 1050,1680 x 1050
S005,49,Mannelijk,Links,4,98,left,no,50,rightarrow,153,false,focus,yes,810737,Chrome,109.0,Windows,10,undefined,undefined,1680 x 1050,1680 x 1050
S005,49,Mannelijk,Links,4,99,right,no,50,rightarrow,442,true,focus,yes,811970,Chrome,109.0,Windows,10,undefined,undefined,1680 x 1050,1680 x 1050
S005,49,Mannelijk,Links,4,100,right,no,50,rightarrow,439,true,focus,yes,813177,Chrome,109.0,Windows,10,undefined,undefined,1680 x 1050,1680 x 1050
S005,49,Mannelijk,Links,4,101,left,no,50,undefined,null,false,focus,yes,815214,Chrome,109.0,Windows,10,undefined,undefined,1680 x 1050,1680 x 1050
S005,49,Mannelijk,Links,4,102,right,no,50,rightarrow,407,true,focus,yes,816409,Chrome,109.0,Windows,10,undefined,undefined,1680 x 1050,1680 x 1050
S005,49,Mannelijk,Links,4,103,left,yes,50,undefined,null,true,focus,yes,818452,Chrome,109.0,Windows,10,undefined,undefined,1680 x 1050,1680 x 1050
S005,49,Mannelijk,Links,4,104,right,yes,100,rightarrow,393,false,focus,yes,819633,Chrome,109.0,Windows,10,undefined,undefined,1680 x 1050,1680 x 1050
S005,49,Mannelijk,Links,4,105,right,no,50,rightarrow,323,true,focus,yes,820745,Chrome,109.0,Windows,10,undefined,undefined,1680 x 1050,1680 x 1050
S005,49,Mannelijk,Links,4,106,left,no,50,leftarrow,418,true,focus,yes,821953,Chrome,109.0,Windows,10,undefined,undefined,1680 x 1050,1680 x 1050
S005,49,Mannelijk,Links,4,107,right,no,50,rightarrow,408,true,focus,yes,823153,Chrome,109.0,Windows,10,undefined,undefined,1680 x 1050,1680 x 1050
S005,49,Mannelijk,Links,4,108,right,yes,50,rightarrow,510,false,focus,yes,824450,Chrome,109.0,Windows,10,undefined,undefined,1680 x 1050,1680 x 1050
S005,49,Mannelijk,Links,4,109,right,no,50,rightarrow,392,true,focus,yes,825609,Chrome,109.0,Windows,10,undefined,undefined,1680 x 1050,1680 x 1050
S005,49,Mannelijk,Links,4,110,left,no,50,leftarrow,448,true,focus,yes,826841,Chrome,109.0,Windows,10,undefined,undefined,1680 x 1050,1680 x 1050
S005,49,Mannelijk,Links,4,111,left,yes,50,undefined,null,true,focus,yes,828887,Chrome,109.0,Windows,10,undefined,undefined,1680 x 1050,1680 x 1050
S005,49,Mannelijk,Links,4,112,left,no,100,undefined,null,false,focus,yes,830929,Chrome,109.0,Windows,10,undefined,undefined,1680 x 1050,1680 x 1050
S005,49,Mannelijk,Links,4,113,left,no,100,leftarrow,487,true,focus,yes,832201,Chrome,109.0,Windows,10,undefined,undefined,1680 x 1050,1680 x 1050
S005,49,Mannelijk,Links,4,114,left,yes,100,leftarrow,414,false,focus,yes,833401,Chrome,109.0,Windows,10,undefined,undefined,1680 x 1050,1680 x 1050
S005,49,Mannelijk,Links,4,115,left,no,50,leftarrow,344,true,focus,yes,834513,Chrome,109.0,Windows,10,undefined,undefined,1680 x 1050,1680 x 1050
S005,49,Mannelijk,Links,4,116,left,no,50,leftarrow,419,true,focus,yes,835721,Chrome,109.0,Windows,10,undefined,undefined,1680 x 1050,1680 x 1050
S005,49,Mannelijk,Links,4,117,right,no,50,rightarrow,348,true,focus,yes,836858,Chrome,109.0,Windows,10,undefined,undefined,1680 x 1050,1680 x 1050
S005,49,Mannelijk,Links,4,118,right,no,50,rightarrow,396,true,focus,yes,838041,Chrome,109.0,Windows,10,undefined,undefined,1680 x 1050,1680 x 1050
S005,49,Mannelijk,Links,4,119,right,yes,50,rightarrow,433,false,focus,yes,839257,Chrome,109.0,Windows,10,undefined,undefined,1680 x 1050,1680 x 1050
S005,49,Mannelijk,Links,4,120,right,no,50,rightarrow,391,true,focus,yes,840441,Chrome,109.0,Windows,10,undefined,undefined,1680 x 1050,1680 x 1050
S005,49,Mannelijk,Links,4,121,right,no,50,rightarrow,383,true,focus,yes,841609,Chrome,109.0,Windows,10,undefined,undefined,1680 x 1050,1680 x 1050
S005,49,Mannelijk,Links,4,122,right,yes,50,rightarrow,366,false,focus,yes,842737,Chrome,109.0,Windows,10,undefined,undefined,1680 x 1050,1680 x 1050
S005,49,Mannelijk,Links,4,123,left,no,50,undefined,null,false,focus,yes,844792,Chrome,109.0,Windows,10,undefined,undefined,1680 x 1050,1680 x 1050
S005,49,Mannelijk,Links,4,124,left,no,50,leftarrow,416,true,focus,yes,845994,Chrome,109.0,Windows,10,undefined,undefined,1680 x 1050,1680 x 1050
S005,49,Mannelijk,Links,4,125,left,no,50,leftarrow,355,true,focus,yes,847145,Chrome,109.0,Windows,10,undefined,undefined,1680 x 1050,1680 x 1050
S005,49,Mannelijk,Links,4,126,left,yes,50,leftarrow,337,false,focus,yes,848273,Chrome,109.0,Windows,10,undefined,undefined,1680 x 1050,1680 x 1050
S005,49,Mannelijk,Links,4,127,right,no,50,rightarrow,434,true,focus,yes,849505,Chrome,109.0,Windows,10,undefined,undefined,1680 x 1050,1680 x 1050
S005,49,Mannelijk,Links,4,128,right,no,50,rightarrow,367,true,focus,yes,850665,Chrome,109.0,Windows,10,undefined,undefined,1680 x 1050,1680 x 1050
S005,49,Mannelijk,Links,5,1,right,yes,50,rightarrow,459,false,focus,yes,870065,Chrome,109.0,Windows,10,undefined,undefined,1680 x 1050,1680 x 1050
S005,49,Mannelijk,Links,5,2,left,yes,50,leftarrow,355,false,focus,yes,871201,Chrome,109.0,Windows,10,undefined,undefined,1680 x 1050,1680 x 1050
S005,49,Mannelijk,Links,5,3,left,no,50,leftarrow,448,true,focus,yes,872442,Chrome,109.0,Windows,10,undefined,undefined,1680 x 1050,1680 x 1050
S005,49,Mannelijk,Links,5,4,right,no,50,rightarrow,357,true,focus,yes,873594,Chrome,109.0,Windows,10,undefined,undefined,1680 x 1050,1680 x 1050
S005,49,Mannelijk,Links,5,5,right,no,50,rightarrow,396,true,focus,yes,874778,Chrome,109.0,Windows,10,undefined,undefined,1680 x 1050,1680 x 1050
S005,49,Mannelijk,Links,5,6,left,no,50,leftarrow,391,true,focus,yes,875954,Chrome,109.0,Windows,10,undefined,undefined,1680 x 1050,1680 x 1050
S005,49,Mannelijk,Links,5,7,left,no,50,leftarrow,440,true,focus,yes,877178,Chrome,109.0,Windows,10,undefined,undefined,1680 x 1050,1680 x 1050
S005,49,Mannelijk,Links,5,8,right,no,50,rightarrow,383,true,focus,yes,878345,Chrome,109.0,Windows,10,undefined,undefined,1680 x 1050,1680 x 1050
S005,49,Mannelijk,Links,5,9,right,yes,50,rightarrow,368,false,focus,yes,879497,Chrome,109.0,Windows,10,undefined,undefined,1680 x 1050,1680 x 1050
S005,49,Mannelijk,Links,5,10,right,no,50,rightarrow,340,true,focus,yes,880602,Chrome,109.0,Windows,10,undefined,undefined,1680 x 1050,1680 x 1050
S005,49,Mannelijk,Links,5,11,left,yes,50,leftarrow,368,false,focus,yes,881762,Chrome,109.0,Windows,10,undefined,undefined,1680 x 1050,1680 x 1050
S005,49,Mannelijk,Links,5,12,left,no,50,leftarrow,413,true,focus,yes,882970,Chrome,109.0,Windows,10,undefined,undefined,1680 x 1050,1680 x 1050
S005,49,Mannelijk,Links,5,13,right,no,50,rightarrow,367,true,focus,yes,884130,Chrome,109.0,Windows,10,undefined,undefined,1680 x 1050,1680 x 1050
S005,49,Mannelijk,Links,5,14,left,no,50,leftarrow,402,true,focus,yes,885329,Chrome,109.0,Windows,10,undefined,undefined,1680 x 1050,1680 x 1050
S005,49,Mannelijk,Links,5,15,right,no,50,rightarrow,321,true,focus,yes,886441,Chrome,109.0,Windows,10,undefined,undefined,1680 x 1050,1680 x 1050
S005,49,Mannelijk,Links,5,16,left,no,50,leftarrow,394,true,focus,yes,887626,Chrome,109.0,Windows,10,undefined,undefined,1680 x 1050,1680 x 1050
S005,49,Mannelijk,Links,5,17,left,yes,50,rightarrow,273,false,focus,yes,888666,Chrome,109.0,Windows,10,undefined,undefined,1680 x 1050,1680 x 1050
S005,49,Mannelijk,Links,5,18,left,no,50,leftarrow,420,true,focus,yes,889881,Chrome,109.0,Windows,10,undefined,undefined,1680 x 1050,1680 x 1050
S005,49,Mannelijk,Links,5,19,right,no,50,rightarrow,357,true,focus,yes,891034,Chrome,109.0,Windows,10,undefined,undefined,1680 x 1050,1680 x 1050
S005,49,Mannelijk,Links,5,20,right,no,50,rightarrow,496,true,focus,yes,892314,Chrome,109.0,Windows,10,undefined,undefined,1680 x 1050,1680 x 1050
S005,49,Mannelijk,Links,5,21,left,no,50,undefined,null,false,focus,yes,894370,Chrome,109.0,Windows,10,undefined,undefined,1680 x 1050,1680 x 1050
S005,49,Mannelijk,Links,5,22,left,no,50,leftarrow,514,true,focus,yes,895674,Chrome,109.0,Windows,10,undefined,undefined,1680 x 1050,1680 x 1050
S005,49,Mannelijk,Links,5,23,right,yes,50,rightarrow,383,false,focus,yes,896833,Chrome,109.0,Windows,10,undefined,undefined,1680 x 1050,1680 x 1050
S005,49,Mannelijk,Links,5,24,right,no,50,rightarrow,365,true,focus,yes,897994,Chrome,109.0,Windows,10,undefined,undefined,1680 x 1050,1680 x 1050
S005,49,Mannelijk,Links,5,25,left,no,50,leftarrow,439,true,focus,yes,899202,Chrome,109.0,Windows,10,undefined,undefined,1680 x 1050,1680 x 1050
S005,49,Mannelijk,Links,5,26,right,yes,50,rightarrow,374,false,focus,yes,900362,Chrome,109.0,Windows,10,undefined,undefined,1680 x 1050,1680 x 1050
S005,49,Mannelijk,Links,5,27,left,yes,50,undefined,null,true,focus,yes,902409,Chrome,109.0,Windows,10,undefined,undefined,1680 x 1050,1680 x 1050
S005,49,Mannelijk,Links,5,28,left,no,100,leftarrow,437,true,focus,yes,903634,Chrome,109.0,Windows,10,undefined,undefined,1680 x 1050,1680 x 1050
S005,49,Mannelijk,Links,5,29,left,no,100,leftarrow,474,true,focus,yes,904898,Chrome,109.0,Windows,10,undefined,undefined,1680 x 1050,1680 x 1050
S005,49,Mannelijk,Links,5,30,right,no,100,rightarrow,446,true,focus,yes,906129,Chrome,109.0,Windows,10,undefined,undefined,1680 x 1050,1680 x 1050
S005,49,Mannelijk,Links,5,31,right,no,100,rightarrow,348,true,focus,yes,907257,Chrome,109.0,Windows,10,undefined,undefined,1680 x 1050,1680 x 1050
S005,49,Mannelijk,Links,5,32,right,no,100,rightarrow,386,true,focus,yes,908410,Chrome,109.0,Windows,10,undefined,undefined,1680 x 1050,1680 x 1050
S005,49,Mannelijk,Links,5,33,left,yes,100,leftarrow,423,false,focus,yes,909626,Chrome,109.0,Windows,10,undefined,undefined,1680 x 1050,1680 x 1050
S005,49,Mannelijk,Links,5,34,left,no,50,undefined,null,false,focus,yes,911657,Chrome,109.0,Windows,10,undefined,undefined,1680 x 1050,1680 x 1050
S005,49,Mannelijk,Links,5,35,right,yes,50,rightarrow,320,false,focus,yes,912762,Chrome,109.0,Windows,10,undefined,undefined,1680 x 1050,1680 x 1050
S005,49,Mannelijk,Links,5,36,right,no,50,rightarrow,369,true,focus,yes,913920,Chrome,109.0,Windows,10,undefined,undefined,1680 x 1050,1680 x 1050
S005,49,Mannelijk,Links,5,37,right,no,50,rightarrow,428,true,focus,yes,915121,Chrome,109.0,Windows,10,undefined,undefined,1680 x 1050,1680 x 1050
S005,49,Mannelijk,Links,5,38,left,no,50,leftarrow,447,true,focus,yes,916338,Chrome,109.0,Windows,10,undefined,undefined,1680 x 1050,1680 x 1050
S005,49,Mannelijk,Links,5,39,right,no,50,rightarrow,423,true,focus,yes,917553,Chrome,109.0,Windows,10,undefined,undefined,1680 x 1050,1680 x 1050
S005,49,Mannelijk,Links,5,40,left,no,50,leftarrow,410,true,focus,yes,918746,Chrome,109.0,Windows,10,undefined,undefined,1680 x 1050,1680 x 1050
S005,49,Mannelijk,Links,5,41,right,no,50,rightarrow,399,true,focus,yes,919929,Chrome,109.0,Windows,10,undefined,undefined,1680 x 1050,1680 x 1050
S005,49,Mannelijk,Links,5,42,right,no,50,rightarrow,485,true,focus,yes,921210,Chrome,109.0,Windows,10,undefined,undefined,1680 x 1050,1680 x 1050
S005,49,Mannelijk,Links,5,43,left,no,50,leftarrow,443,true,focus,yes,922442,Chrome,109.0,Windows,10,undefined,undefined,1680 x 1050,1680 x 1050
S005,49,Mannelijk,Links,5,44,right,yes,50,rightarrow,353,false,focus,yes,923594,Chrome,109.0,Windows,10,undefined,undefined,1680 x 1050,1680 x 1050
S005,49,Mannelijk,Links,5,45,left,yes,50,leftarrow,437,false,focus,yes,924818,Chrome,109.0,Windows,10,undefined,undefined,1680 x 1050,1680 x 1050
S005,49,Mannelijk,Links,5,46,left,no,50,leftarrow,464,true,focus,yes,926074,Chrome,109.0,Windows,10,undefined,undefined,1680 x 1050,1680 x 1050
S005,49,Mannelijk,Links,5,47,left,no,50,leftarrow,481,true,focus,yes,927322,Chrome,109.0,Windows,10,undefined,undefined,1680 x 1050,1680 x 1050
S005,49,Mannelijk,Links,5,48,right,no,50,rightarrow,433,true,focus,yes,928546,Chrome,109.0,Windows,10,undefined,undefined,1680 x 1050,1680 x 1050
S005,49,Mannelijk,Links,5,49,right,yes,50,rightarrow,437,false,focus,yes,929778,Chrome,109.0,Windows,10,undefined,undefined,1680 x 1050,1680 x 1050
S005,49,Mannelijk,Links,5,50,left,yes,50,leftarrow,441,false,focus,yes,931010,Chrome,109.0,Windows,10,undefined,undefined,1680 x 1050,1680 x 1050
S005,49,Mannelijk,Links,5,51,left,no,50,leftarrow,420,true,focus,yes,932226,Chrome,109.0,Windows,10,undefined,undefined,1680 x 1050,1680 x 1050
S005,49,Mannelijk,Links,5,52,right,no,50,rightarrow,396,true,focus,yes,933409,Chrome,109.0,Windows,10,undefined,undefined,1680 x 1050,1680 x 1050
S005,49,Mannelijk,Links,5,53,left,no,50,leftarrow,406,true,focus,yes,934594,Chrome,109.0,Windows,10,undefined,undefined,1680 x 1050,1680 x 1050
S005,49,Mannelijk,Links,5,54,right,no,50,rightarrow,332,true,focus,yes,935714,Chrome,109.0,Windows,10,undefined,undefined,1680 x 1050,1680 x 1050
S005,49,Mannelijk,Links,5,55,left,no,50,leftarrow,385,true,focus,yes,936866,Chrome,109.0,Windows,10,undefined,undefined,1680 x 1050,1680 x 1050
S005,49,Mannelijk,Links,5,56,right,no,50,rightarrow,389,true,focus,yes,938034,Chrome,109.0,Windows,10,undefined,undefined,1680 x 1050,1680 x 1050
S005,49,Mannelijk,Links,5,57,left,yes,50,leftarrow,437,false,focus,yes,939258,Chrome,109.0,Windows,10,undefined,undefined,1680 x 1050,1680 x 1050
S005,49,Mannelijk,Links,5,58,right,no,50,rightarrow,418,true,focus,yes,940465,Chrome,109.0,Windows,10,undefined,undefined,1680 x 1050,1680 x 1050
S005,49,Mannelijk,Links,5,59,left,no,50,leftarrow,380,true,focus,yes,941610,Chrome,109.0,Windows,10,undefined,undefined,1680 x 1050,1680 x 1050
S005,49,Mannelijk,Links,5,60,right,no,50,rightarrow,343,true,focus,yes,942738,Chrome,109.0,Windows,10,undefined,undefined,1680 x 1050,1680 x 1050
S005,49,Mannelijk,Links,5,61,left,no,50,leftarrow,417,true,focus,yes,943946,Chrome,109.0,Windows,10,undefined,undefined,1680 x 1050,1680 x 1050
S005,49,Mannelijk,Links,5,62,right,no,50,rightarrow,355,true,focus,yes,945090,Chrome,109.0,Windows,10,undefined,undefined,1680 x 1050,1680 x 1050
S005,49,Mannelijk,Links,5,63,left,no,50,undefined,null,false,focus,yes,947121,Chrome,109.0,Windows,10,undefined,undefined,1680 x 1050,1680 x 1050
S005,49,Mannelijk,Links,5,64,right,yes,50,rightarrow,317,false,focus,yes,948226,Chrome,109.0,Windows,10,undefined,undefined,1680 x 1050,1680 x 1050
S005,49,Mannelijk,Links,5,65,right,no,50,rightarrow,342,true,focus,yes,949347,Chrome,109.0,Windows,10,undefined,undefined,1680 x 1050,1680 x 1050
S005,49,Mannelijk,Links,5,66,left,no,50,leftarrow,455,true,focus,yes,950586,Chrome,109.0,Windows,10,undefined,undefined,1680 x 1050,1680 x 1050
S005,49,Mannelijk,Links,5,67,left,no,50,leftarrow,433,true,focus,yes,951802,Chrome,109.0,Windows,10,undefined,undefined,1680 x 1050,1680 x 1050
S005,49,Mannelijk,Links,5,68,right,no,50,rightarrow,341,true,focus,yes,952938,Chrome,109.0,Windows,10,undefined,undefined,1680 x 1050,1680 x 1050
S005,49,Mannelijk,Links,5,69,right,no,50,rightarrow,371,true,focus,yes,954098,Chrome,109.0,Windows,10,undefined,undefined,1680 x 1050,1680 x 1050
S005,49,Mannelijk,Links,5,70,left,no,50,undefined,null,false,focus,yes,956118,Chrome,109.0,Windows,10,undefined,undefined,1680 x 1050,1680 x 1050
S005,49,Mannelijk,Links,5,71,left,yes,50,rightarrow,272,false,focus,yes,957178,Chrome,109.0,Windows,10,undefined,undefined,1680 x 1050,1680 x 1050
S005,49,Mannelijk,Links,5,72,right,yes,50,rightarrow,555,false,focus,yes,958514,Chrome,109.0,Windows,10,undefined,undefined,1680 x 1050,1680 x 1050
S005,49,Mannelijk,Links,5,73,right,no,50,rightarrow,456,true,focus,yes,959738,Chrome,109.0,Windows,10,undefined,undefined,1680 x 1050,1680 x 1050
S005,49,Mannelijk,Links,5,74,left,no,50,undefined,null,false,focus,yes,961792,Chrome,109.0,Windows,10,undefined,undefined,1680 x 1050,1680 x 1050
S005,49,Mannelijk,Links,5,75,left,yes,50,undefined,null,true,focus,yes,963840,Chrome,109.0,Windows,10,undefined,undefined,1680 x 1050,1680 x 1050
S005,49,Mannelijk,Links,5,76,right,no,100,rightarrow,391,true,focus,yes,965003,Chrome,109.0,Windows,10,undefined,undefined,1680 x 1050,1680 x 1050
S005,49,Mannelijk,Links,5,77,left,no,100,undefined,null,false,focus,yes,967038,Chrome,109.0,Windows,10,undefined,undefined,1680 x 1050,1680 x 1050
S005,49,Mannelijk,Links,5,78,right,yes,100,rightarrow,393,false,focus,yes,968218,Chrome,109.0,Windows,10,undefined,undefined,1680 x 1050,1680 x 1050
S005,49,Mannelijk,Links,5,79,right,no,50,rightarrow,427,true,focus,yes,969427,Chrome,109.0,Windows,10,undefined,undefined,1680 x 1050,1680 x 1050
S005,49,Mannelijk,Links,5,80,left,no,50,undefined,null,false,focus,yes,971462,Chrome,109.0,Windows,10,undefined,undefined,1680 x 1050,1680 x 1050
S005,49,Mannelijk,Links,5,81,right,yes,50,rightarrow,391,false,focus,yes,972642,Chrome,109.0,Windows,10,undefined,undefined,1680 x 1050,1680 x 1050
S005,49,Mannelijk,Links,5,82,left,no,50,leftarrow,395,true,focus,yes,973826,Chrome,109.0,Windows,10,undefined,undefined,1680 x 1050,1680 x 1050
S005,49,Mannelijk,Links,5,83,left,no,50,undefined,null,false,focus,yes,975874,Chrome,109.0,Windows,10,undefined,undefined,1680 x 1050,1680 x 1050
S005,49,Mannelijk,Links,5,84,right,no,50,rightarrow,350,true,focus,yes,977010,Chrome,109.0,Windows,10,undefined,undefined,1680 x 1050,1680 x 1050
S005,49,Mannelijk,Links,5,85,right,no,50,rightarrow,422,true,focus,yes,978226,Chrome,109.0,Windows,10,undefined,undefined,1680 x 1050,1680 x 1050
S005,49,Mannelijk,Links,5,86,left,no,50,leftarrow,419,true,focus,yes,979434,Chrome,109.0,Windows,10,undefined,undefined,1680 x 1050,1680 x 1050
S005,49,Mannelijk,Links,5,87,right,no,50,rightarrow,368,true,focus,yes,980594,Chrome,109.0,Windows,10,undefined,undefined,1680 x 1050,1680 x 1050
S005,49,Mannelijk,Links,5,88,left,yes,50,leftarrow,466,false,focus,yes,981858,Chrome,109.0,Windows,10,undefined,undefined,1680 x 1050,1680 x 1050
S005,49,Mannelijk,Links,5,89,left,no,50,undefined,null,false,focus,yes,983909,Chrome,109.0,Windows,10,undefined,undefined,1680 x 1050,1680 x 1050
S005,49,Mannelijk,Links,5,90,left,no,50,undefined,null,false,focus,yes,985953,Chrome,109.0,Windows,10,undefined,undefined,1680 x 1050,1680 x 1050
S005,49,Mannelijk,Links,5,91,right,no,50,rightarrow,353,true,focus,yes,987098,Chrome,109.0,Windows,10,undefined,undefined,1680 x 1050,1680 x 1050
S005,49,Mannelijk,Links,5,92,right,no,50,rightarrow,430,true,focus,yes,988322,Chrome,109.0,Windows,10,undefined,undefined,1680 x 1050,1680 x 1050
S005,49,Mannelijk,Links,5,93,left,yes,50,leftarrow,425,false,focus,yes,989513,Chrome,109.0,Windows,10,undefined,undefined,1680 x 1050,1680 x 1050
S005,49,Mannelijk,Links,5,94,right,yes,50,rightarrow,384,false,focus,yes,990665,Chrome,109.0,Windows,10,undefined,undefined,1680 x 1050,1680 x 1050
S005,49,Mannelijk,Links,5,95,left,no,50,leftarrow,455,true,focus,yes,991914,Chrome,109.0,Windows,10,undefined,undefined,1680 x 1050,1680 x 1050
S005,49,Mannelijk,Links,5,96,right,no,50,rightarrow,416,true,focus,yes,993114,Chrome,109.0,Windows,10,undefined,undefined,1680 x 1050,1680 x 1050
S005,49,Mannelijk,Links,5,97,left,no,50,undefined,null,false,focus,yes,995154,Chrome,109.0,Windows,10,undefined,undefined,1680 x 1050,1680 x 1050
S005,49,Mannelijk,Links,5,98,right,no,50,rightarrow,354,true,focus,yes,996298,Chrome,109.0,Windows,10,undefined,undefined,1680 x 1050,1680 x 1050
S005,49,Mannelijk,Links,5,99,right,no,50,rightarrow,517,true,focus,yes,997578,Chrome,109.0,Windows,10,undefined,undefined,1680 x 1050,1680 x 1050
S005,49,Mannelijk,Links,5,100,left,yes,50,undefined,null,true,focus,yes,999633,Chrome,109.0,Windows,10,undefined,undefined,1680 x 1050,1680 x 1050
S005,49,Mannelijk,Links,5,101,left,no,100,leftarrow,516,true,focus,yes,1000937,Chrome,109.0,Windows,10,undefined,undefined,1680 x 1050,1680 x 1050
S005,49,Mannelijk,Links,5,102,right,yes,100,rightarrow,420,false,focus,yes,1002146,Chrome,109.0,Windows,10,undefined,undefined,1680 x 1050,1680 x 1050
S005,49,Mannelijk,Links,5,103,left,no,50,undefined,null,false,focus,yes,1004198,Chrome,109.0,Windows,10,undefined,undefined,1680 x 1050,1680 x 1050
S005,49,Mannelijk,Links,5,104,right,no,50,rightarrow,336,true,focus,yes,1005322,Chrome,109.0,Windows,10,undefined,undefined,1680 x 1050,1680 x 1050
S005,49,Mannelijk,Links,5,105,right,no,50,rightarrow,419,true,focus,yes,1006506,Chrome,109.0,Windows,10,undefined,undefined,1680 x 1050,1680 x 1050
S005,49,Mannelijk,Links,5,106,left,no,50,leftarrow,407,true,focus,yes,1007690,Chrome,109.0,Windows,10,undefined,undefined,1680 x 1050,1680 x 1050
S005,49,Mannelijk,Links,5,107,left,yes,50,leftarrow,387,false,focus,yes,1008866,Chrome,109.0,Windows,10,undefined,undefined,1680 x 1050,1680 x 1050
S005,49,Mannelijk,Links,5,108,left,no,50,leftarrow,432,true,focus,yes,1010090,Chrome,109.0,Windows,10,undefined,undefined,1680 x 1050,1680 x 1050
S005,49,Mannelijk,Links,5,109,right,no,50,rightarrow,514,true,focus,yes,1011394,Chrome,109.0,Windows,10,undefined,undefined,1680 x 1050,1680 x 1050
S005,49,Mannelijk,Links,5,110,left,no,50,leftarrow,477,true,focus,yes,1012657,Chrome,109.0,Windows,10,undefined,undefined,1680 x 1050,1680 x 1050
S005,49,Mannelijk,Links,5,111,right,no,50,rightarrow,403,true,focus,yes,1013858,Chrome,109.0,Windows,10,undefined,undefined,1680 x 1050,1680 x 1050
S005,49,Mannelijk,Links,5,112,right,yes,50,rightarrow,437,false,focus,yes,1015090,Chrome,109.0,Windows,10,undefined,undefined,1680 x 1050,1680 x 1050
S005,49,Mannelijk,Links,5,113,right,no,50,rightarrow,385,true,focus,yes,1016266,Chrome,109.0,Windows,10,undefined,undefined,1680 x 1050,1680 x 1050
S005,49,Mannelijk,Links,5,114,left,no,50,leftarrow,422,true,focus,yes,1017450,Chrome,109.0,Windows,10,undefined,undefined,1680 x 1050,1680 x 1050
S005,49,Mannelijk,Links,5,115,left,no,50,leftarrow,402,true,focus,yes,1018642,Chrome,109.0,Windows,10,undefined,undefined,1680 x 1050,1680 x 1050
S005,49,Mannelijk,Links,5,116,right,no,50,rightarrow,365,true,focus,yes,1019802,Chrome,109.0,Windows,10,undefined,undefined,1680 x 1050,1680 x 1050
S005,49,Mannelijk,Links,5,117,left,yes,50,leftarrow,424,false,focus,yes,1020994,Chrome,109.0,Windows,10,undefined,undefined,1680 x 1050,1680 x 1050
S005,49,Mannelijk,Links,5,118,right,yes,50,rightarrow,388,false,focus,yes,1022170,Chrome,109.0,Windows,10,undefined,undefined,1680 x 1050,1680 x 1050
S005,49,Mannelijk,Links,5,119,right,no,50,rightarrow,447,true,focus,yes,1023409,Chrome,109.0,Windows,10,undefined,undefined,1680 x 1050,1680 x 1050
S005,49,Mannelijk,Links,5,120,left,no,50,leftarrow,423,true,focus,yes,1024626,Chrome,109.0,Windows,10,undefined,undefined,1680 x 1050,1680 x 1050
S005,49,Mannelijk,Links,5,121,right,no,50,rightarrow,382,true,focus,yes,1025794,Chrome,109.0,Windows,10,undefined,undefined,1680 x 1050,1680 x 1050
S005,49,Mannelijk,Links,5,122,left,no,50,leftarrow,411,true,focus,yes,1027002,Chrome,109.0,Windows,10,undefined,undefined,1680 x 1050,1680 x 1050
S005,49,Mannelijk,Links,5,123,left,no,50,leftarrow,449,true,focus,yes,1028218,Chrome,109.0,Windows,10,undefined,undefined,1680 x 1050,1680 x 1050
S005,49,Mannelijk,Links,5,124,left,no,50,leftarrow,404,true,focus,yes,1029410,Chrome,109.0,Windows,10,undefined,undefined,1680 x 1050,1680 x 1050
S005,49,Mannelijk,Links,5,125,left,yes,50,leftarrow,422,false,focus,yes,1030626,Chrome,109.0,Windows,10,undefined,undefined,1680 x 1050,1680 x 1050
S005,49,Mannelijk,Links,5,126,right,no,50,rightarrow,397,true,focus,yes,1031810,Chrome,109.0,Windows,10,undefined,undefined,1680 x 1050,1680 x 1050
S005,49,Mannelijk,Links,5,127,right,yes,50,rightarrow,440,false,focus,yes,1033017,Chrome,109.0,Windows,10,undefined,undefined,1680 x 1050,1680 x 1050
S005,49,Mannelijk,Links,5,128,right,no,50,rightarrow,417,true,focus,yes,1034218,Chrome,109.0,Windows,10,undefined,undefined,1680 x 1050,1680 x 1050
S005,49,Mannelijk,Links,6,1,right,no,50,rightarrow,423,true,focus,yes,1097538,Chrome,109.0,Windows,10,undefined,undefined,1680 x 1050,1680 x 1050
S005,49,Mannelijk,Links,6,2,right,yes,50,rightarrow,444,false,focus,yes,1098770,Chrome,109.0,Windows,10,undefined,undefined,1680 x 1050,1680 x 1050
S005,49,Mannelijk,Links,6,3,right,no,50,rightarrow,366,true,focus,yes,1099930,Chrome,109.0,Windows,10,undefined,undefined,1680 x 1050,1680 x 1050
S005,49,Mannelijk,Links,6,4,right,no,50,rightarrow,329,true,focus,yes,1101041,Chrome,109.0,Windows,10,undefined,undefined,1680 x 1050,1680 x 1050
S005,49,Mannelijk,Links,6,5,left,no,50,leftarrow,406,true,focus,yes,1102234,Chrome,109.0,Windows,10,undefined,undefined,1680 x 1050,1680 x 1050
S005,49,Mannelijk,Links,6,6,left,no,50,leftarrow,380,true,focus,yes,1103402,Chrome,109.0,Windows,10,undefined,undefined,1680 x 1050,1680 x 1050
S005,49,Mannelijk,Links,6,7,left,no,50,undefined,null,false,focus,yes,1105442,Chrome,109.0,Windows,10,undefined,undefined,1680 x 1050,1680 x 1050
S005,49,Mannelijk,Links,6,8,left,yes,50,rightarrow,90,false,focus,yes,1106306,Chrome,109.0,Windows,10,undefined,undefined,1680 x 1050,1680 x 1050
S005,49,Mannelijk,Links,6,9,right,no,50,rightarrow,384,true,focus,yes,1107482,Chrome,109.0,Windows,10,undefined,undefined,1680 x 1050,1680 x 1050
S005,49,Mannelijk,Links,6,10,left,no,50,leftarrow,408,true,focus,yes,1108666,Chrome,109.0,Windows,10,undefined,undefined,1680 x 1050,1680 x 1050
S005,49,Mannelijk,Links,6,11,left,no,50,undefined,null,false,focus,yes,1110699,Chrome,109.0,Windows,10,undefined,undefined,1680 x 1050,1680 x 1050
S005,49,Mannelijk,Links,6,12,left,no,50,undefined,null,false,focus,yes,1112745,Chrome,109.0,Windows,10,undefined,undefined,1680 x 1050,1680 x 1050
S005,49,Mannelijk,Links,6,13,right,no,50,rightarrow,312,true,focus,yes,1113843,Chrome,109.0,Windows,10,undefined,undefined,1680 x 1050,1680 x 1050
S005,49,Mannelijk,Links,6,14,right,no,50,rightarrow,586,true,focus,yes,1115203,Chrome,109.0,Windows,10,undefined,undefined,1680 x 1050,1680 x 1050
S005,49,Mannelijk,Links,6,15,right,yes,50,rightarrow,429,false,focus,yes,1116418,Chrome,109.0,Windows,10,undefined,undefined,1680 x 1050,1680 x 1050
S005,49,Mannelijk,Links,6,16,left,yes,50,undefined,null,true,focus,yes,1118475,Chrome,109.0,Windows,10,undefined,undefined,1680 x 1050,1680 x 1050
S005,49,Mannelijk,Links,6,17,left,no,100,undefined,null,false,focus,yes,1120504,Chrome,109.0,Windows,10,undefined,undefined,1680 x 1050,1680 x 1050
S005,49,Mannelijk,Links,6,18,left,no,100,undefined,null,false,focus,yes,1122537,Chrome,109.0,Windows,10,undefined,undefined,1680 x 1050,1680 x 1050
S005,49,Mannelijk,Links,6,19,right,no,100,rightarrow,345,true,focus,yes,1123666,Chrome,109.0,Windows,10,undefined,undefined,1680 x 1050,1680 x 1050
S005,49,Mannelijk,Links,6,20,right,yes,100,rightarrow,370,false,focus,yes,1124818,Chrome,109.0,Windows,10,undefined,undefined,1680 x 1050,1680 x 1050
S005,49,Mannelijk,Links,6,21,left,no,50,undefined,null,false,focus,yes,1126877,Chrome,109.0,Windows,10,undefined,undefined,1680 x 1050,1680 x 1050
S005,49,Mannelijk,Links,6,22,left,yes,50,leftarrow,449,false,focus,yes,1128114,Chrome,109.0,Windows,10,undefined,undefined,1680 x 1050,1680 x 1050
S005,49,Mannelijk,Links,6,23,right,no,50,rightarrow,421,true,focus,yes,1129322,Chrome,109.0,Windows,10,undefined,undefined,1680 x 1050,1680 x 1050
S005,49,Mannelijk,Links,6,24,right,no,50,rightarrow,362,true,focus,yes,1130474,Chrome,109.0,Windows,10,undefined,undefined,1680 x 1050,1680 x 1050
S005,49,Mannelijk,Links,6,25,right,no,50,rightarrow,370,true,focus,yes,1131626,Chrome,109.0,Windows,10,undefined,undefined,1680 x 1050,1680 x 1050
S005,49,Mannelijk,Links,6,26,right,no,50,rightarrow,366,true,focus,yes,1132787,Chrome,109.0,Windows,10,undefined,undefined,1680 x 1050,1680 x 1050
S005,49,Mannelijk,Links,6,27,right,yes,50,rightarrow,420,false,focus,yes,1133971,Chrome,109.0,Windows,10,undefined,undefined,1680 x 1050,1680 x 1050
S005,49,Mannelijk,Links,6,28,left,no,50,undefined,null,false,focus,yes,1136005,Chrome,109.0,Windows,10,undefined,undefined,1680 x 1050,1680 x 1050
S005,49,Mannelijk,Links,6,29,right,no,50,rightarrow,312,true,focus,yes,1137105,Chrome,109.0,Windows,10,undefined,undefined,1680 x 1050,1680 x 1050
S005,49,Mannelijk,Links,6,30,left,no,50,undefined,null,false,focus,yes,1139140,Chrome,109.0,Windows,10,undefined,undefined,1680 x 1050,1680 x 1050
S005,49,Mannelijk,Links,6,31,left,yes,50,undefined,null,true,focus,yes,1141188,Chrome,109.0,Windows,10,undefined,undefined,1680 x 1050,1680 x 1050
S005,49,Mannelijk,Links,6,32,left,no,100,undefined,null,false,focus,yes,1143221,Chrome,109.0,Windows,10,undefined,undefined,1680 x 1050,1680 x 1050
S005,49,Mannelijk,Links,6,33,right,yes,100,rightarrow,424,false,focus,yes,1144418,Chrome,109.0,Windows,10,undefined,undefined,1680 x 1050,1680 x 1050
