participantID;age;gender;handedness;block_i;trial_i;stim;signal;SSD;response;rt;correct;focus;Fullscreen;time_elapsed;browser_name;browser_version;os_name;os_version;tablet;mobile;screen_resolution;window_resolution
H038;22;Vrouwelijk;Rechts;0;1;left;no;200;leftarrow;434;true;focus;yes;101109;Chrome;112.0;Windows;10;undefined;undefined;1536 x 864;1536 x 864
H038;22;Vrouwelijk;Rechts;0;2;right;yes;200;rightarrow;393;false;focus;yes;103048;Chrome;112.0;Windows;10;undefined;undefined;1536 x 864;1536 x 864
H038;22;Vrouwelijk;Rechts;0;3;left;no;150;leftarrow;350;true;focus;yes;104940;Chrome;112.0;Windows;10;undefined;undefined;1536 x 864;1536 x 864
H038;22;Vrouwelijk;Rechts;0;4;right;no;150;rightarrow;392;true;focus;yes;106848;Chrome;112.0;Windows;10;undefined;undefined;1536 x 864;1536 x 864
H038;22;Vrouwelijk;Rechts;0;5;right;no;150;rightarrow;528;true;focus;yes;108900;Chrome;112.0;Windows;10;undefined;undefined;1536 x 864;1536 x 864
H038;22;Vrouwelijk;Rechts;0;6;right;no;150;rightarrow;449;true;focus;yes;110881;Chrome;112.0;Windows;10;undefined;undefined;1536 x 864;1536 x 864
H038;22;Vrouwelijk;Rechts;0;7;left;no;150;leftarrow;509;true;focus;yes;112910;Chrome;112.0;Windows;10;undefined;undefined;1536 x 864;1536 x 864
H038;22;Vrouwelijk;Rechts;0;8;left;yes;150;leftarrow;348;false;focus;yes;114796;Chrome;112.0;Windows;10;undefined;undefined;1536 x 864;1536 x 864
H038;22;Vrouwelijk;Rechts;1;1;left;no;100;leftarrow;934;true;focus;yes;171982;Chrome;112.0;Windows;10;undefined;undefined;1536 x 864;1536 x 864
H038;22;Vrouwelijk;Rechts;1;2;left;yes;100;leftarrow;826;false;focus;yes;173586;Chrome;112.0;Windows;10;undefined;undefined;1536 x 864;1536 x 864
H038;22;Vrouwelijk;Rechts;1;3;right;no;50;rightarrow;507;true;focus;yes;174875;Chrome;112.0;Windows;10;undefined;undefined;1536 x 864;1536 x 864
H038;22;Vrouwelijk;Rechts;1;4;left;no;50;leftarrow;538;true;focus;yes;176199;Chrome;112.0;Windows;10;undefined;undefined;1536 x 864;1536 x 864
H038;22;Vrouwelijk;Rechts;1;5;right;no;50;rightarrow;317;true;focus;yes;177296;Chrome;112.0;Windows;10;undefined;undefined;1536 x 864;1536 x 864
H038;22;Vrouwelijk;Rechts;1;6;right;no;50;rightarrow;439;true;focus;yes;178517;Chrome;112.0;Windows;10;undefined;undefined;1536 x 864;1536 x 864
H038;22;Vrouwelijk;Rechts;1;7;right;yes;50;rightarrow;583;false;focus;yes;179859;Chrome;112.0;Windows;10;undefined;undefined;1536 x 864;1536 x 864
H038;22;Vrouwelijk;Rechts;1;8;left;no;50;leftarrow;411;true;focus;yes;181055;Chrome;112.0;Windows;10;undefined;undefined;1536 x 864;1536 x 864
H038;22;Vrouwelijk;Rechts;1;9;right;no;50;rightarrow;368;true;focus;yes;182205;Chrome;112.0;Windows;10;undefined;undefined;1536 x 864;1536 x 864
H038;22;Vrouwelijk;Rechts;1;10;left;yes;50;undefined;null;true;focus;yes;184222;Chrome;112.0;Windows;10;undefined;undefined;1536 x 864;1536 x 864
H038;22;Vrouwelijk;Rechts;1;11;left;no;100;leftarrow;463;true;focus;yes;185472;Chrome;112.0;Windows;10;undefined;undefined;1536 x 864;1536 x 864
H038;22;Vrouwelijk;Rechts;1;12;right;no;100;rightarrow;437;true;focus;yes;186684;Chrome;112.0;Windows;10;undefined;undefined;1536 x 864;1536 x 864
H038;22;Vrouwelijk;Rechts;1;13;right;no;100;rightarrow;422;true;focus;yes;187875;Chrome;112.0;Windows;10;undefined;undefined;1536 x 864;1536 x 864
H038;22;Vrouwelijk;Rechts;1;14;left;no;100;leftarrow;373;true;focus;yes;189034;Chrome;112.0;Windows;10;undefined;undefined;1536 x 864;1536 x 864
H038;22;Vrouwelijk;Rechts;1;15;left;no;100;leftarrow;420;true;focus;yes;190237;Chrome;112.0;Windows;10;undefined;undefined;1536 x 864;1536 x 864
H038;22;Vrouwelijk;Rechts;1;16;right;yes;100;undefined;null;true;focus;yes;192250;Chrome;112.0;Windows;10;undefined;undefined;1536 x 864;1536 x 864
H038;22;Vrouwelijk;Rechts;1;17;left;no;150;leftarrow;287;true;focus;yes;193309;Chrome;112.0;Windows;10;undefined;undefined;1536 x 864;1536 x 864
H038;22;Vrouwelijk;Rechts;1;18;left;no;150;leftarrow;378;true;focus;yes;194458;Chrome;112.0;Windows;10;undefined;undefined;1536 x 864;1536 x 864
H038;22;Vrouwelijk;Rechts;1;19;left;yes;150;leftarrow;380;false;focus;yes;195619;Chrome;112.0;Windows;10;undefined;undefined;1536 x 864;1536 x 864
H038;22;Vrouwelijk;Rechts;1;20;right;yes;100;undefined;null;true;focus;yes;197653;Chrome;112.0;Windows;10;undefined;undefined;1536 x 864;1536 x 864
H038;22;Vrouwelijk;Rechts;1;21;right;no;150;rightarrow;372;true;focus;yes;198808;Chrome;112.0;Windows;10;undefined;undefined;1536 x 864;1536 x 864
H038;22;Vrouwelijk;Rechts;1;22;left;no;150;leftarrow;372;true;focus;yes;199959;Chrome;112.0;Windows;10;undefined;undefined;1536 x 864;1536 x 864
H038;22;Vrouwelijk;Rechts;1;23;right;no;150;rightarrow;655;true;focus;yes;201391;Chrome;112.0;Windows;10;undefined;undefined;1536 x 864;1536 x 864
H038;22;Vrouwelijk;Rechts;1;24;right;no;150;rightarrow;406;true;focus;yes;202570;Chrome;112.0;Windows;10;undefined;undefined;1536 x 864;1536 x 864
H038;22;Vrouwelijk;Rechts;1;25;left;no;150;leftarrow;347;true;focus;yes;203698;Chrome;112.0;Windows;10;undefined;undefined;1536 x 864;1536 x 864
H038;22;Vrouwelijk;Rechts;1;26;right;no;150;rightarrow;356;true;focus;yes;204835;Chrome;112.0;Windows;10;undefined;undefined;1536 x 864;1536 x 864
H038;22;Vrouwelijk;Rechts;1;27;right;no;150;rightarrow;489;true;focus;yes;206096;Chrome;112.0;Windows;10;undefined;undefined;1536 x 864;1536 x 864
H038;22;Vrouwelijk;Rechts;1;28;left;no;150;leftarrow;487;true;focus;yes;207367;Chrome;112.0;Windows;10;undefined;undefined;1536 x 864;1536 x 864
H038;22;Vrouwelijk;Rechts;1;29;left;yes;150;undefined;null;true;focus;yes;209403;Chrome;112.0;Windows;10;undefined;undefined;1536 x 864;1536 x 864
H038;22;Vrouwelijk;Rechts;1;30;left;no;200;leftarrow;563;true;focus;yes;210725;Chrome;112.0;Windows;10;undefined;undefined;1536 x 864;1536 x 864
H038;22;Vrouwelijk;Rechts;1;31;right;no;200;rightarrow;394;true;focus;yes;211886;Chrome;112.0;Windows;10;undefined;undefined;1536 x 864;1536 x 864
H038;22;Vrouwelijk;Rechts;1;32;right;yes;200;undefined;null;true;focus;yes;213924;Chrome;112.0;Windows;10;undefined;undefined;1536 x 864;1536 x 864
H038;22;Vrouwelijk;Rechts;1;33;right;yes;250;rightarrow;489;false;focus;yes;215184;Chrome;112.0;Windows;10;undefined;undefined;1536 x 864;1536 x 864
H038;22;Vrouwelijk;Rechts;1;34;left;no;200;leftarrow;670;true;focus;yes;216635;Chrome;112.0;Windows;10;undefined;undefined;1536 x 864;1536 x 864
H038;22;Vrouwelijk;Rechts;1;35;left;no;200;leftarrow;561;true;focus;yes;217972;Chrome;112.0;Windows;10;undefined;undefined;1536 x 864;1536 x 864
H038;22;Vrouwelijk;Rechts;1;36;right;no;200;rightarrow;531;true;focus;yes;219272;Chrome;112.0;Windows;10;undefined;undefined;1536 x 864;1536 x 864
H038;22;Vrouwelijk;Rechts;1;37;right;no;200;rightarrow;986;true;focus;yes;221014;Chrome;112.0;Windows;10;undefined;undefined;1536 x 864;1536 x 864
H038;22;Vrouwelijk;Rechts;1;38;left;yes;200;undefined;null;true;focus;yes;223035;Chrome;112.0;Windows;10;undefined;undefined;1536 x 864;1536 x 864
H038;22;Vrouwelijk;Rechts;1;39;right;no;250;rightarrow;361;true;focus;yes;224180;Chrome;112.0;Windows;10;undefined;undefined;1536 x 864;1536 x 864
H038;22;Vrouwelijk;Rechts;1;40;left;no;250;leftarrow;381;true;focus;yes;225339;Chrome;112.0;Windows;10;undefined;undefined;1536 x 864;1536 x 864
H038;22;Vrouwelijk;Rechts;1;41;right;yes;250;rightarrow;439;false;focus;yes;226565;Chrome;112.0;Windows;10;undefined;undefined;1536 x 864;1536 x 864
H038;22;Vrouwelijk;Rechts;1;42;left;no;200;leftarrow;394;true;focus;yes;227718;Chrome;112.0;Windows;10;undefined;undefined;1536 x 864;1536 x 864
H038;22;Vrouwelijk;Rechts;1;43;left;no;200;leftarrow;641;true;focus;yes;229125;Chrome;112.0;Windows;10;undefined;undefined;1536 x 864;1536 x 864
H038;22;Vrouwelijk;Rechts;1;44;right;no;200;rightarrow;589;true;focus;yes;230475;Chrome;112.0;Windows;10;undefined;undefined;1536 x 864;1536 x 864
H038;22;Vrouwelijk;Rechts;1;45;right;no;200;rightarrow;1023;true;focus;yes;232283;Chrome;112.0;Windows;10;undefined;undefined;1536 x 864;1536 x 864
H038;22;Vrouwelijk;Rechts;1;46;left;no;200;leftarrow;480;true;focus;yes;233533;Chrome;112.0;Windows;10;undefined;undefined;1536 x 864;1536 x 864
H038;22;Vrouwelijk;Rechts;1;47;right;no;200;rightarrow;613;true;focus;yes;234916;Chrome;112.0;Windows;10;undefined;undefined;1536 x 864;1536 x 864
H038;22;Vrouwelijk;Rechts;1;48;left;yes;200;leftarrow;500;false;focus;yes;236194;Chrome;112.0;Windows;10;undefined;undefined;1536 x 864;1536 x 864
H038;22;Vrouwelijk;Rechts;1;49;right;no;150;rightarrow;740;true;focus;yes;237709;Chrome;112.0;Windows;10;undefined;undefined;1536 x 864;1536 x 864
H038;22;Vrouwelijk;Rechts;1;50;left;no;150;leftarrow;374;true;focus;yes;238868;Chrome;112.0;Windows;10;undefined;undefined;1536 x 864;1536 x 864
H038;22;Vrouwelijk;Rechts;1;51;right;yes;150;undefined;null;true;focus;yes;240887;Chrome;112.0;Windows;10;undefined;undefined;1536 x 864;1536 x 864
H038;22;Vrouwelijk;Rechts;1;52;left;no;200;leftarrow;381;true;focus;yes;242040;Chrome;112.0;Windows;10;undefined;undefined;1536 x 864;1536 x 864
H038;22;Vrouwelijk;Rechts;1;53;left;no;200;leftarrow;366;true;focus;yes;243186;Chrome;112.0;Windows;10;undefined;undefined;1536 x 864;1536 x 864
H038;22;Vrouwelijk;Rechts;1;54;left;yes;200;leftarrow;385;false;focus;yes;244354;Chrome;112.0;Windows;10;undefined;undefined;1536 x 864;1536 x 864
H038;22;Vrouwelijk;Rechts;1;55;right;no;150;rightarrow;538;true;focus;yes;245653;Chrome;112.0;Windows;10;undefined;undefined;1536 x 864;1536 x 864
H038;22;Vrouwelijk;Rechts;1;56;right;no;150;rightarrow;435;true;focus;yes;246874;Chrome;112.0;Windows;10;undefined;undefined;1536 x 864;1536 x 864
H038;22;Vrouwelijk;Rechts;1;57;right;yes;150;undefined;null;true;focus;yes;248925;Chrome;112.0;Windows;10;undefined;undefined;1536 x 864;1536 x 864
H038;22;Vrouwelijk;Rechts;1;58;left;no;200;leftarrow;398;true;focus;yes;250110;Chrome;112.0;Windows;10;undefined;undefined;1536 x 864;1536 x 864
H038;22;Vrouwelijk;Rechts;1;59;right;no;200;rightarrow;527;true;focus;yes;251414;Chrome;112.0;Windows;10;undefined;undefined;1536 x 864;1536 x 864
H038;22;Vrouwelijk;Rechts;1;60;left;yes;200;undefined;null;true;focus;yes;253441;Chrome;112.0;Windows;10;undefined;undefined;1536 x 864;1536 x 864
H038;22;Vrouwelijk;Rechts;1;61;left;no;250;leftarrow;472;true;focus;yes;254684;Chrome;112.0;Windows;10;undefined;undefined;1536 x 864;1536 x 864
H038;22;Vrouwelijk;Rechts;1;62;left;no;250;leftarrow;464;true;focus;yes;255932;Chrome;112.0;Windows;10;undefined;undefined;1536 x 864;1536 x 864
H038;22;Vrouwelijk;Rechts;1;63;right;no;250;rightarrow;692;true;focus;yes;257401;Chrome;112.0;Windows;10;undefined;undefined;1536 x 864;1536 x 864
H038;22;Vrouwelijk;Rechts;1;64;right;no;250;rightarrow;897;true;focus;yes;259083;Chrome;112.0;Windows;10;undefined;undefined;1536 x 864;1536 x 864
H038;22;Vrouwelijk;Rechts;1;65;right;yes;250;rightarrow;443;false;focus;yes;260303;Chrome;112.0;Windows;10;undefined;undefined;1536 x 864;1536 x 864
H038;22;Vrouwelijk;Rechts;1;66;left;no;200;leftarrow;515;true;focus;yes;261596;Chrome;112.0;Windows;10;undefined;undefined;1536 x 864;1536 x 864
H038;22;Vrouwelijk;Rechts;1;67;right;no;200;rightarrow;444;true;focus;yes;262796;Chrome;112.0;Windows;10;undefined;undefined;1536 x 864;1536 x 864
H038;22;Vrouwelijk;Rechts;1;68;left;no;200;leftarrow;392;true;focus;yes;263969;Chrome;112.0;Windows;10;undefined;undefined;1536 x 864;1536 x 864
H038;22;Vrouwelijk;Rechts;1;69;left;no;200;leftarrow;394;true;focus;yes;265148;Chrome;112.0;Windows;10;undefined;undefined;1536 x 864;1536 x 864
H038;22;Vrouwelijk;Rechts;1;70;left;yes;200;leftarrow;359;false;focus;yes;266281;Chrome;112.0;Windows;10;undefined;undefined;1536 x 864;1536 x 864
H038;22;Vrouwelijk;Rechts;1;71;right;no;150;rightarrow;589;true;focus;yes;267634;Chrome;112.0;Windows;10;undefined;undefined;1536 x 864;1536 x 864
H038;22;Vrouwelijk;Rechts;1;72;right;no;150;rightarrow;521;true;focus;yes;268926;Chrome;112.0;Windows;10;undefined;undefined;1536 x 864;1536 x 864
H038;22;Vrouwelijk;Rechts;1;73;right;no;150;rightarrow;455;true;focus;yes;270156;Chrome;112.0;Windows;10;undefined;undefined;1536 x 864;1536 x 864
H038;22;Vrouwelijk;Rechts;1;74;left;no;150;leftarrow;583;true;focus;yes;271520;Chrome;112.0;Windows;10;undefined;undefined;1536 x 864;1536 x 864
H038;22;Vrouwelijk;Rechts;1;75;right;no;150;rightarrow;817;true;focus;yes;273122;Chrome;112.0;Windows;10;undefined;undefined;1536 x 864;1536 x 864
H038;22;Vrouwelijk;Rechts;1;76;right;yes;150;undefined;null;true;focus;yes;275153;Chrome;112.0;Windows;10;undefined;undefined;1536 x 864;1536 x 864
H038;22;Vrouwelijk;Rechts;1;77;left;yes;200;leftarrow;427;false;focus;yes;276362;Chrome;112.0;Windows;10;undefined;undefined;1536 x 864;1536 x 864
H038;22;Vrouwelijk;Rechts;1;78;left;no;150;rightarrow;393;false;focus;yes;277517;Chrome;112.0;Windows;10;undefined;undefined;1536 x 864;1536 x 864
H038;22;Vrouwelijk;Rechts;1;79;left;no;150;leftarrow;425;true;focus;yes;278710;Chrome;112.0;Windows;10;undefined;undefined;1536 x 864;1536 x 864
H038;22;Vrouwelijk;Rechts;1;80;right;no;150;rightarrow;400;true;focus;yes;279891;Chrome;112.0;Windows;10;undefined;undefined;1536 x 864;1536 x 864
H038;22;Vrouwelijk;Rechts;1;81;left;no;150;leftarrow;400;true;focus;yes;281047;Chrome;112.0;Windows;10;undefined;undefined;1536 x 864;1536 x 864
H038;22;Vrouwelijk;Rechts;1;82;left;yes;150;leftarrow;393;false;focus;yes;282201;Chrome;112.0;Windows;10;undefined;undefined;1536 x 864;1536 x 864
H038;22;Vrouwelijk;Rechts;1;83;right;yes;100;undefined;null;true;focus;yes;284244;Chrome;112.0;Windows;10;undefined;undefined;1536 x 864;1536 x 864
H038;22;Vrouwelijk;Rechts;1;84;left;no;150;leftarrow;379;true;focus;yes;285394;Chrome;112.0;Windows;10;undefined;undefined;1536 x 864;1536 x 864
H038;22;Vrouwelijk;Rechts;1;85;left;no;150;leftarrow;452;true;focus;yes;286610;Chrome;112.0;Windows;10;undefined;undefined;1536 x 864;1536 x 864
H038;22;Vrouwelijk;Rechts;1;86;right;no;150;rightarrow;433;true;focus;yes;287825;Chrome;112.0;Windows;10;undefined;undefined;1536 x 864;1536 x 864
H038;22;Vrouwelijk;Rechts;1;87;right;no;150;rightarrow;433;true;focus;yes;289030;Chrome;112.0;Windows;10;undefined;undefined;1536 x 864;1536 x 864
H038;22;Vrouwelijk;Rechts;1;88;right;no;150;rightarrow;395;true;focus;yes;290197;Chrome;112.0;Windows;10;undefined;undefined;1536 x 864;1536 x 864
H038;22;Vrouwelijk;Rechts;1;89;left;no;150;leftarrow;559;true;focus;yes;291532;Chrome;112.0;Windows;10;undefined;undefined;1536 x 864;1536 x 864
H038;22;Vrouwelijk;Rechts;1;90;left;no;150;leftarrow;485;true;focus;yes;292788;Chrome;112.0;Windows;10;undefined;undefined;1536 x 864;1536 x 864
H038;22;Vrouwelijk;Rechts;1;91;left;yes;150;undefined;null;true;focus;yes;294831;Chrome;112.0;Windows;10;undefined;undefined;1536 x 864;1536 x 864
H038;22;Vrouwelijk;Rechts;1;92;right;no;200;rightarrow;609;true;focus;yes;296225;Chrome;112.0;Windows;10;undefined;undefined;1536 x 864;1536 x 864
H038;22;Vrouwelijk;Rechts;1;93;right;no;200;rightarrow;404;true;focus;yes;297399;Chrome;112.0;Windows;10;undefined;undefined;1536 x 864;1536 x 864
H038;22;Vrouwelijk;Rechts;1;94;left;no;200;leftarrow;669;true;focus;yes;298854;Chrome;112.0;Windows;10;undefined;undefined;1536 x 864;1536 x 864
H038;22;Vrouwelijk;Rechts;1;95;right;no;200;rightarrow;430;true;focus;yes;300046;Chrome;112.0;Windows;10;undefined;undefined;1536 x 864;1536 x 864
H038;22;Vrouwelijk;Rechts;1;96;right;yes;200;rightarrow;383;false;focus;yes;301195;Chrome;112.0;Windows;10;undefined;undefined;1536 x 864;1536 x 864
H038;22;Vrouwelijk;Rechts;1;97;left;yes;150;undefined;null;true;focus;yes;303216;Chrome;112.0;Windows;10;undefined;undefined;1536 x 864;1536 x 864
H038;22;Vrouwelijk;Rechts;1;98;left;no;200;leftarrow;457;true;focus;yes;304446;Chrome;112.0;Windows;10;undefined;undefined;1536 x 864;1536 x 864
H038;22;Vrouwelijk;Rechts;1;99;right;no;200;rightarrow;456;true;focus;yes;305686;Chrome;112.0;Windows;10;undefined;undefined;1536 x 864;1536 x 864
H038;22;Vrouwelijk;Rechts;1;100;left;no;200;leftarrow;382;true;focus;yes;306835;Chrome;112.0;Windows;10;undefined;undefined;1536 x 864;1536 x 864
H038;22;Vrouwelijk;Rechts;1;101;left;no;200;leftarrow;377;true;focus;yes;307995;Chrome;112.0;Windows;10;undefined;undefined;1536 x 864;1536 x 864
H038;22;Vrouwelijk;Rechts;1;102;right;no;200;leftarrow;441;false;focus;yes;309204;Chrome;112.0;Windows;10;undefined;undefined;1536 x 864;1536 x 864
H038;22;Vrouwelijk;Rechts;1;103;right;no;200;rightarrow;440;true;focus;yes;310427;Chrome;112.0;Windows;10;undefined;undefined;1536 x 864;1536 x 864
H038;22;Vrouwelijk;Rechts;1;104;right;yes;200;rightarrow;437;false;focus;yes;311651;Chrome;112.0;Windows;10;undefined;undefined;1536 x 864;1536 x 864
H038;22;Vrouwelijk;Rechts;1;105;right;yes;150;rightarrow;380;false;focus;yes;312805;Chrome;112.0;Windows;10;undefined;undefined;1536 x 864;1536 x 864
H038;22;Vrouwelijk;Rechts;1;106;left;no;100;leftarrow;496;true;focus;yes;314088;Chrome;112.0;Windows;10;undefined;undefined;1536 x 864;1536 x 864
H038;22;Vrouwelijk;Rechts;1;107;right;no;100;leftarrow;667;false;focus;yes;315528;Chrome;112.0;Windows;10;undefined;undefined;1536 x 864;1536 x 864
H038;22;Vrouwelijk;Rechts;1;108;right;no;100;rightarrow;426;true;focus;yes;316733;Chrome;112.0;Windows;10;undefined;undefined;1536 x 864;1536 x 864
H038;22;Vrouwelijk;Rechts;1;109;left;yes;100;undefined;null;true;focus;yes;318757;Chrome;112.0;Windows;10;undefined;undefined;1536 x 864;1536 x 864
H038;22;Vrouwelijk;Rechts;1;110;left;no;150;leftarrow;409;true;focus;yes;319938;Chrome;112.0;Windows;10;undefined;undefined;1536 x 864;1536 x 864
H038;22;Vrouwelijk;Rechts;1;111;right;no;150;rightarrow;605;true;focus;yes;321326;Chrome;112.0;Windows;10;undefined;undefined;1536 x 864;1536 x 864
H038;22;Vrouwelijk;Rechts;1;112;left;no;150;leftarrow;433;true;focus;yes;322521;Chrome;112.0;Windows;10;undefined;undefined;1536 x 864;1536 x 864
H038;22;Vrouwelijk;Rechts;1;113;left;yes;150;leftarrow;466;false;focus;yes;323752;Chrome;112.0;Windows;10;undefined;undefined;1536 x 864;1536 x 864
H038;22;Vrouwelijk;Rechts;1;114;right;yes;100;undefined;null;true;focus;yes;325789;Chrome;112.0;Windows;10;undefined;undefined;1536 x 864;1536 x 864
H038;22;Vrouwelijk;Rechts;1;115;right;no;150;rightarrow;472;true;focus;yes;327050;Chrome;112.0;Windows;10;undefined;undefined;1536 x 864;1536 x 864
H038;22;Vrouwelijk;Rechts;1;116;left;no;150;leftarrow;391;true;focus;yes;328226;Chrome;112.0;Windows;10;undefined;undefined;1536 x 864;1536 x 864
H038;22;Vrouwelijk;Rechts;1;117;right;no;150;rightarrow;668;true;focus;yes;329679;Chrome;112.0;Windows;10;undefined;undefined;1536 x 864;1536 x 864
H038;22;Vrouwelijk;Rechts;1;118;left;no;150;leftarrow;556;true;focus;yes;330999;Chrome;112.0;Windows;10;undefined;undefined;1536 x 864;1536 x 864
H038;22;Vrouwelijk;Rechts;1;119;left;no;150;leftarrow;348;true;focus;yes;332120;Chrome;112.0;Windows;10;undefined;undefined;1536 x 864;1536 x 864
H038;22;Vrouwelijk;Rechts;1;120;right;no;150;rightarrow;394;true;focus;yes;333281;Chrome;112.0;Windows;10;undefined;undefined;1536 x 864;1536 x 864
H038;22;Vrouwelijk;Rechts;1;121;right;no;150;rightarrow;375;true;focus;yes;334432;Chrome;112.0;Windows;10;undefined;undefined;1536 x 864;1536 x 864
H038;22;Vrouwelijk;Rechts;1;122;left;no;150;leftarrow;387;true;focus;yes;335579;Chrome;112.0;Windows;10;undefined;undefined;1536 x 864;1536 x 864
H038;22;Vrouwelijk;Rechts;1;123;left;no;150;leftarrow;505;true;focus;yes;336847;Chrome;112.0;Windows;10;undefined;undefined;1536 x 864;1536 x 864
H038;22;Vrouwelijk;Rechts;1;124;right;no;150;rightarrow;388;true;focus;yes;338002;Chrome;112.0;Windows;10;undefined;undefined;1536 x 864;1536 x 864
H038;22;Vrouwelijk;Rechts;1;125;left;yes;150;undefined;null;true;focus;yes;340040;Chrome;112.0;Windows;10;undefined;undefined;1536 x 864;1536 x 864
H038;22;Vrouwelijk;Rechts;1;126;left;no;200;leftarrow;404;true;focus;yes;341231;Chrome;112.0;Windows;10;undefined;undefined;1536 x 864;1536 x 864
H038;22;Vrouwelijk;Rechts;1;127;right;yes;200;rightarrow;472;false;focus;yes;342465;Chrome;112.0;Windows;10;undefined;undefined;1536 x 864;1536 x 864
H038;22;Vrouwelijk;Rechts;1;128;right;no;150;rightarrow;405;true;focus;yes;343643;Chrome;112.0;Windows;10;undefined;undefined;1536 x 864;1536 x 864
H038;22;Vrouwelijk;Rechts;2;1;right;no;150;rightarrow;417;true;focus;yes;393779;Chrome;112.0;Windows;10;undefined;undefined;1536 x 864;1536 x 864
H038;22;Vrouwelijk;Rechts;2;2;left;no;150;leftarrow;362;true;focus;yes;394928;Chrome;112.0;Windows;10;undefined;undefined;1536 x 864;1536 x 864
H038;22;Vrouwelijk;Rechts;2;3;left;no;150;leftarrow;375;true;focus;yes;396080;Chrome;112.0;Windows;10;undefined;undefined;1536 x 864;1536 x 864
H038;22;Vrouwelijk;Rechts;2;4;left;no;150;leftarrow;313;true;focus;yes;397182;Chrome;112.0;Windows;10;undefined;undefined;1536 x 864;1536 x 864
H038;22;Vrouwelijk;Rechts;2;5;right;yes;150;rightarrow;408;false;focus;yes;398378;Chrome;112.0;Windows;10;undefined;undefined;1536 x 864;1536 x 864
H038;22;Vrouwelijk;Rechts;2;6;left;yes;100;leftarrow;328;false;focus;yes;399493;Chrome;112.0;Windows;10;undefined;undefined;1536 x 864;1536 x 864
H038;22;Vrouwelijk;Rechts;2;7;right;no;50;rightarrow;379;true;focus;yes;400651;Chrome;112.0;Windows;10;undefined;undefined;1536 x 864;1536 x 864
H038;22;Vrouwelijk;Rechts;2;8;right;no;50;rightarrow;401;true;focus;yes;401823;Chrome;112.0;Windows;10;undefined;undefined;1536 x 864;1536 x 864
H038;22;Vrouwelijk;Rechts;2;9;right;no;50;rightarrow;381;true;focus;yes;402963;Chrome;112.0;Windows;10;undefined;undefined;1536 x 864;1536 x 864
H038;22;Vrouwelijk;Rechts;2;10;right;no;50;rightarrow;366;true;focus;yes;404093;Chrome;112.0;Windows;10;undefined;undefined;1536 x 864;1536 x 864
H038;22;Vrouwelijk;Rechts;2;11;right;no;50;rightarrow;354;true;focus;yes;405225;Chrome;112.0;Windows;10;undefined;undefined;1536 x 864;1536 x 864
H038;22;Vrouwelijk;Rechts;2;12;left;yes;50;undefined;null;true;focus;yes;407254;Chrome;112.0;Windows;10;undefined;undefined;1536 x 864;1536 x 864
H038;22;Vrouwelijk;Rechts;2;13;left;no;100;leftarrow;443;true;focus;yes;408479;Chrome;112.0;Windows;10;undefined;undefined;1536 x 864;1536 x 864
H038;22;Vrouwelijk;Rechts;2;14;left;no;100;leftarrow;455;true;focus;yes;409703;Chrome;112.0;Windows;10;undefined;undefined;1536 x 864;1536 x 864
H038;22;Vrouwelijk;Rechts;2;15;left;no;100;leftarrow;527;true;focus;yes;410990;Chrome;112.0;Windows;10;undefined;undefined;1536 x 864;1536 x 864
H038;22;Vrouwelijk;Rechts;2;16;right;yes;100;undefined;null;true;focus;yes;413037;Chrome;112.0;Windows;10;undefined;undefined;1536 x 864;1536 x 864
H038;22;Vrouwelijk;Rechts;2;17;left;no;150;leftarrow;321;true;focus;yes;414136;Chrome;112.0;Windows;10;undefined;undefined;1536 x 864;1536 x 864
H038;22;Vrouwelijk;Rechts;2;18;left;yes;150;undefined;null;true;focus;yes;416153;Chrome;112.0;Windows;10;undefined;undefined;1536 x 864;1536 x 864
H038;22;Vrouwelijk;Rechts;2;19;right;no;200;rightarrow;402;true;focus;yes;417340;Chrome;112.0;Windows;10;undefined;undefined;1536 x 864;1536 x 864
H038;22;Vrouwelijk;Rechts;2;20;right;yes;200;rightarrow;427;false;focus;yes;418545;Chrome;112.0;Windows;10;undefined;undefined;1536 x 864;1536 x 864
H038;22;Vrouwelijk;Rechts;2;21;right;no;150;rightarrow;730;true;focus;yes;420042;Chrome;112.0;Windows;10;undefined;undefined;1536 x 864;1536 x 864
H038;22;Vrouwelijk;Rechts;2;22;left;no;150;leftarrow;362;true;focus;yes;421182;Chrome;112.0;Windows;10;undefined;undefined;1536 x 864;1536 x 864
H038;22;Vrouwelijk;Rechts;2;23;left;no;150;leftarrow;402;true;focus;yes;422355;Chrome;112.0;Windows;10;undefined;undefined;1536 x 864;1536 x 864
H038;22;Vrouwelijk;Rechts;2;24;right;no;150;rightarrow;386;true;focus;yes;423518;Chrome;112.0;Windows;10;undefined;undefined;1536 x 864;1536 x 864
H038;22;Vrouwelijk;Rechts;2;25;left;no;150;leftarrow;337;true;focus;yes;424634;Chrome;112.0;Windows;10;undefined;undefined;1536 x 864;1536 x 864
H038;22;Vrouwelijk;Rechts;2;26;left;no;150;leftarrow;341;true;focus;yes;425740;Chrome;112.0;Windows;10;undefined;undefined;1536 x 864;1536 x 864
H038;22;Vrouwelijk;Rechts;2;27;left;no;150;leftarrow;382;true;focus;yes;426902;Chrome;112.0;Windows;10;undefined;undefined;1536 x 864;1536 x 864
H038;22;Vrouwelijk;Rechts;2;28;right;yes;150;undefined;null;true;focus;yes;428948;Chrome;112.0;Windows;10;undefined;undefined;1536 x 864;1536 x 864
H038;22;Vrouwelijk;Rechts;2;29;right;no;200;rightarrow;410;true;focus;yes;430133;Chrome;112.0;Windows;10;undefined;undefined;1536 x 864;1536 x 864
H038;22;Vrouwelijk;Rechts;2;30;right;no;200;rightarrow;401;true;focus;yes;431316;Chrome;112.0;Windows;10;undefined;undefined;1536 x 864;1536 x 864
H038;22;Vrouwelijk;Rechts;2;31;right;no;200;rightarrow;334;true;focus;yes;432435;Chrome;112.0;Windows;10;undefined;undefined;1536 x 864;1536 x 864
H038;22;Vrouwelijk;Rechts;2;32;left;yes;200;undefined;null;true;focus;yes;434469;Chrome;112.0;Windows;10;undefined;undefined;1536 x 864;1536 x 864
H038;22;Vrouwelijk;Rechts;2;33;left;no;250;leftarrow;574;true;focus;yes;435800;Chrome;112.0;Windows;10;undefined;undefined;1536 x 864;1536 x 864
H038;22;Vrouwelijk;Rechts;2;34;left;no;250;undefined;null;false;focus;yes;437839;Chrome;112.0;Windows;10;undefined;undefined;1536 x 864;1536 x 864
H038;22;Vrouwelijk;Rechts;2;35;right;no;250;rightarrow;374;true;focus;yes;438986;Chrome;112.0;Windows;10;undefined;undefined;1536 x 864;1536 x 864
H038;22;Vrouwelijk;Rechts;2;36;left;yes;250;leftarrow;301;false;focus;yes;440061;Chrome;112.0;Windows;10;undefined;undefined;1536 x 864;1536 x 864
H038;22;Vrouwelijk;Rechts;2;37;right;no;200;rightarrow;353;true;focus;yes;441182;Chrome;112.0;Windows;10;undefined;undefined;1536 x 864;1536 x 864
H038;22;Vrouwelijk;Rechts;2;38;right;yes;200;rightarrow;413;false;focus;yes;442361;Chrome;112.0;Windows;10;undefined;undefined;1536 x 864;1536 x 864
H038;22;Vrouwelijk;Rechts;2;39;left;no;150;leftarrow;576;true;focus;yes;443706;Chrome;112.0;Windows;10;undefined;undefined;1536 x 864;1536 x 864
H038;22;Vrouwelijk;Rechts;2;40;right;no;150;rightarrow;448;true;focus;yes;444918;Chrome;112.0;Windows;10;undefined;undefined;1536 x 864;1536 x 864
H038;22;Vrouwelijk;Rechts;2;41;left;no;150;leftarrow;811;true;focus;yes;446507;Chrome;112.0;Windows;10;undefined;undefined;1536 x 864;1536 x 864
H038;22;Vrouwelijk;Rechts;2;42;right;yes;150;undefined;null;true;focus;yes;448529;Chrome;112.0;Windows;10;undefined;undefined;1536 x 864;1536 x 864
H038;22;Vrouwelijk;Rechts;2;43;right;no;200;rightarrow;1187;true;focus;yes;450499;Chrome;112.0;Windows;10;undefined;undefined;1536 x 864;1536 x 864
H038;22;Vrouwelijk;Rechts;2;44;left;yes;200;leftarrow;659;false;focus;yes;451932;Chrome;112.0;Windows;10;undefined;undefined;1536 x 864;1536 x 864
H038;22;Vrouwelijk;Rechts;2;45;right;no;150;undefined;null;false;focus;yes;453971;Chrome;112.0;Windows;10;undefined;undefined;1536 x 864;1536 x 864
H038;22;Vrouwelijk;Rechts;2;46;left;no;150;leftarrow;360;true;focus;yes;455113;Chrome;112.0;Windows;10;undefined;undefined;1536 x 864;1536 x 864
H038;22;Vrouwelijk;Rechts;2;47;right;no;150;rightarrow;385;true;focus;yes;456260;Chrome;112.0;Windows;10;undefined;undefined;1536 x 864;1536 x 864
H038;22;Vrouwelijk;Rechts;2;48;left;no;150;leftarrow;671;true;focus;yes;457707;Chrome;112.0;Windows;10;undefined;undefined;1536 x 864;1536 x 864
H038;22;Vrouwelijk;Rechts;2;49;right;yes;150;rightarrow;337;false;focus;yes;458822;Chrome;112.0;Windows;10;undefined;undefined;1536 x 864;1536 x 864
H038;22;Vrouwelijk;Rechts;2;50;left;no;100;leftarrow;320;true;focus;yes;459923;Chrome;112.0;Windows;10;undefined;undefined;1536 x 864;1536 x 864
H038;22;Vrouwelijk;Rechts;2;51;left;no;100;leftarrow;505;true;focus;yes;461205;Chrome;112.0;Windows;10;undefined;undefined;1536 x 864;1536 x 864
H038;22;Vrouwelijk;Rechts;2;52;right;no;100;rightarrow;747;true;focus;yes;462716;Chrome;112.0;Windows;10;undefined;undefined;1536 x 864;1536 x 864
H038;22;Vrouwelijk;Rechts;2;53;left;yes;100;leftarrow;414;false;focus;yes;463909;Chrome;112.0;Windows;10;undefined;undefined;1536 x 864;1536 x 864
H038;22;Vrouwelijk;Rechts;2;54;left;no;50;leftarrow;343;true;focus;yes;465032;Chrome;112.0;Windows;10;undefined;undefined;1536 x 864;1536 x 864
H038;22;Vrouwelijk;Rechts;2;55;right;no;50;rightarrow;304;true;focus;yes;466107;Chrome;112.0;Windows;10;undefined;undefined;1536 x 864;1536 x 864
H038;22;Vrouwelijk;Rechts;2;56;right;no;50;rightarrow;343;true;focus;yes;467215;Chrome;112.0;Windows;10;undefined;undefined;1536 x 864;1536 x 864
H038;22;Vrouwelijk;Rechts;2;57;left;no;50;leftarrow;352;true;focus;yes;468330;Chrome;112.0;Windows;10;undefined;undefined;1536 x 864;1536 x 864
H038;22;Vrouwelijk;Rechts;2;58;left;no;50;leftarrow;461;true;focus;yes;469567;Chrome;112.0;Windows;10;undefined;undefined;1536 x 864;1536 x 864
H038;22;Vrouwelijk;Rechts;2;59;right;no;50;rightarrow;320;true;focus;yes;470652;Chrome;112.0;Windows;10;undefined;undefined;1536 x 864;1536 x 864
H038;22;Vrouwelijk;Rechts;2;60;right;no;50;rightarrow;400;true;focus;yes;471829;Chrome;112.0;Windows;10;undefined;undefined;1536 x 864;1536 x 864
H038;22;Vrouwelijk;Rechts;2;61;left;no;50;leftarrow;314;true;focus;yes;472918;Chrome;112.0;Windows;10;undefined;undefined;1536 x 864;1536 x 864
H038;22;Vrouwelijk;Rechts;2;62;right;yes;50;undefined;null;true;focus;yes;474957;Chrome;112.0;Windows;10;undefined;undefined;1536 x 864;1536 x 864
H038;22;Vrouwelijk;Rechts;2;63;left;yes;100;leftarrow;285;false;focus;yes;476012;Chrome;112.0;Windows;10;undefined;undefined;1536 x 864;1536 x 864
H038;22;Vrouwelijk;Rechts;2;64;right;no;50;rightarrow;329;true;focus;yes;477122;Chrome;112.0;Windows;10;undefined;undefined;1536 x 864;1536 x 864
H038;22;Vrouwelijk;Rechts;2;65;left;no;50;leftarrow;308;true;focus;yes;478201;Chrome;112.0;Windows;10;undefined;undefined;1536 x 864;1536 x 864
H038;22;Vrouwelijk;Rechts;2;66;left;no;50;leftarrow;425;true;focus;yes;479401;Chrome;112.0;Windows;10;undefined;undefined;1536 x 864;1536 x 864
H038;22;Vrouwelijk;Rechts;2;67;right;no;50;rightarrow;427;true;focus;yes;480611;Chrome;112.0;Windows;10;undefined;undefined;1536 x 864;1536 x 864
H038;22;Vrouwelijk;Rechts;2;68;right;no;50;rightarrow;414;true;focus;yes;481789;Chrome;112.0;Windows;10;undefined;undefined;1536 x 864;1536 x 864
H038;22;Vrouwelijk;Rechts;2;69;right;yes;50;undefined;null;true;focus;yes;483809;Chrome;112.0;Windows;10;undefined;undefined;1536 x 864;1536 x 864
H038;22;Vrouwelijk;Rechts;2;70;left;yes;100;leftarrow;371;false;focus;yes;484966;Chrome;112.0;Windows;10;undefined;undefined;1536 x 864;1536 x 864
H038;22;Vrouwelijk;Rechts;2;71;left;no;50;leftarrow;357;true;focus;yes;486097;Chrome;112.0;Windows;10;undefined;undefined;1536 x 864;1536 x 864
H038;22;Vrouwelijk;Rechts;2;72;right;no;50;rightarrow;360;true;focus;yes;487232;Chrome;112.0;Windows;10;undefined;undefined;1536 x 864;1536 x 864
H038;22;Vrouwelijk;Rechts;2;73;right;yes;50;undefined;null;true;focus;yes;489262;Chrome;112.0;Windows;10;undefined;undefined;1536 x 864;1536 x 864
H038;22;Vrouwelijk;Rechts;2;74;right;no;100;rightarrow;396;true;focus;yes;490432;Chrome;112.0;Windows;10;undefined;undefined;1536 x 864;1536 x 864
H038;22;Vrouwelijk;Rechts;2;75;left;no;100;leftarrow;331;true;focus;yes;491529;Chrome;112.0;Windows;10;undefined;undefined;1536 x 864;1536 x 864
H038;22;Vrouwelijk;Rechts;2;76;right;no;100;rightarrow;307;true;focus;yes;492613;Chrome;112.0;Windows;10;undefined;undefined;1536 x 864;1536 x 864
H038;22;Vrouwelijk;Rechts;2;77;left;no;100;leftarrow;382;true;focus;yes;493772;Chrome;112.0;Windows;10;undefined;undefined;1536 x 864;1536 x 864
H038;22;Vrouwelijk;Rechts;2;78;left;yes;100;leftarrow;310;false;focus;yes;494861;Chrome;112.0;Windows;10;undefined;undefined;1536 x 864;1536 x 864
H038;22;Vrouwelijk;Rechts;2;79;right;no;50;rightarrow;359;true;focus;yes;496007;Chrome;112.0;Windows;10;undefined;undefined;1536 x 864;1536 x 864
H038;22;Vrouwelijk;Rechts;2;80;left;no;50;leftarrow;277;true;focus;yes;497045;Chrome;112.0;Windows;10;undefined;undefined;1536 x 864;1536 x 864
H038;22;Vrouwelijk;Rechts;2;81;left;no;50;leftarrow;280;true;focus;yes;498101;Chrome;112.0;Windows;10;undefined;undefined;1536 x 864;1536 x 864
H038;22;Vrouwelijk;Rechts;2;82;right;no;50;rightarrow;377;true;focus;yes;499239;Chrome;112.0;Windows;10;undefined;undefined;1536 x 864;1536 x 864
H038;22;Vrouwelijk;Rechts;2;83;right;no;50;leftarrow;247;false;focus;yes;500258;Chrome;112.0;Windows;10;undefined;undefined;1536 x 864;1536 x 864
H038;22;Vrouwelijk;Rechts;2;84;left;yes;50;leftarrow;258;false;focus;yes;501291;Chrome;112.0;Windows;10;undefined;undefined;1536 x 864;1536 x 864
H038;22;Vrouwelijk;Rechts;2;85;right;yes;50;undefined;null;true;focus;yes;503336;Chrome;112.0;Windows;10;undefined;undefined;1536 x 864;1536 x 864
H038;22;Vrouwelijk;Rechts;2;86;right;no;100;rightarrow;490;true;focus;yes;504606;Chrome;112.0;Windows;10;undefined;undefined;1536 x 864;1536 x 864
H038;22;Vrouwelijk;Rechts;2;87;left;no;100;leftarrow;516;true;focus;yes;505903;Chrome;112.0;Windows;10;undefined;undefined;1536 x 864;1536 x 864
H038;22;Vrouwelijk;Rechts;2;88;left;no;100;leftarrow;494;true;focus;yes;507166;Chrome;112.0;Windows;10;undefined;undefined;1536 x 864;1536 x 864
H038;22;Vrouwelijk;Rechts;2;89;right;yes;100;rightarrow;351;false;focus;yes;508281;Chrome;112.0;Windows;10;undefined;undefined;1536 x 864;1536 x 864
H038;22;Vrouwelijk;Rechts;2;90;right;no;50;rightarrow;372;true;focus;yes;509420;Chrome;112.0;Windows;10;undefined;undefined;1536 x 864;1536 x 864
H038;22;Vrouwelijk;Rechts;2;91;right;no;50;rightarrow;330;true;focus;yes;510521;Chrome;112.0;Windows;10;undefined;undefined;1536 x 864;1536 x 864
H038;22;Vrouwelijk;Rechts;2;92;left;no;50;leftarrow;362;true;focus;yes;511676;Chrome;112.0;Windows;10;undefined;undefined;1536 x 864;1536 x 864
H038;22;Vrouwelijk;Rechts;2;93;left;no;50;leftarrow;305;true;focus;yes;512771;Chrome;112.0;Windows;10;undefined;undefined;1536 x 864;1536 x 864
H038;22;Vrouwelijk;Rechts;2;94;left;no;50;leftarrow;452;true;focus;yes;513985;Chrome;112.0;Windows;10;undefined;undefined;1536 x 864;1536 x 864
H038;22;Vrouwelijk;Rechts;2;95;right;no;50;rightarrow;301;true;focus;yes;515047;Chrome;112.0;Windows;10;undefined;undefined;1536 x 864;1536 x 864
H038;22;Vrouwelijk;Rechts;2;96;left;yes;50;undefined;null;true;focus;yes;517090;Chrome;112.0;Windows;10;undefined;undefined;1536 x 864;1536 x 864
H038;22;Vrouwelijk;Rechts;2;97;left;no;100;leftarrow;401;true;focus;yes;518264;Chrome;112.0;Windows;10;undefined;undefined;1536 x 864;1536 x 864
H038;22;Vrouwelijk;Rechts;2;98;right;no;100;rightarrow;329;true;focus;yes;519351;Chrome;112.0;Windows;10;undefined;undefined;1536 x 864;1536 x 864
H038;22;Vrouwelijk;Rechts;2;99;right;no;100;rightarrow;368;true;focus;yes;520490;Chrome;112.0;Windows;10;undefined;undefined;1536 x 864;1536 x 864
H038;22;Vrouwelijk;Rechts;2;100;right;yes;100;undefined;null;true;focus;yes;522520;Chrome;112.0;Windows;10;undefined;undefined;1536 x 864;1536 x 864
H038;22;Vrouwelijk;Rechts;2;101;left;no;150;leftarrow;485;true;focus;yes;523779;Chrome;112.0;Windows;10;undefined;undefined;1536 x 864;1536 x 864
H038;22;Vrouwelijk;Rechts;2;102;left;no;150;leftarrow;352;true;focus;yes;524889;Chrome;112.0;Windows;10;undefined;undefined;1536 x 864;1536 x 864
H038;22;Vrouwelijk;Rechts;2;103;right;no;150;rightarrow;348;true;focus;yes;526003;Chrome;112.0;Windows;10;undefined;undefined;1536 x 864;1536 x 864
H038;22;Vrouwelijk;Rechts;2;104;left;yes;150;leftarrow;377;false;focus;yes;527148;Chrome;112.0;Windows;10;undefined;undefined;1536 x 864;1536 x 864
H038;22;Vrouwelijk;Rechts;2;105;right;no;100;rightarrow;343;true;focus;yes;528263;Chrome;112.0;Windows;10;undefined;undefined;1536 x 864;1536 x 864
H038;22;Vrouwelijk;Rechts;2;106;left;yes;100;leftarrow;281;false;focus;yes;529333;Chrome;112.0;Windows;10;undefined;undefined;1536 x 864;1536 x 864
H038;22;Vrouwelijk;Rechts;2;107;right;yes;50;undefined;null;true;focus;yes;531369;Chrome;112.0;Windows;10;undefined;undefined;1536 x 864;1536 x 864
H038;22;Vrouwelijk;Rechts;2;108;right;no;100;rightarrow;387;true;focus;yes;532544;Chrome;112.0;Windows;10;undefined;undefined;1536 x 864;1536 x 864
H038;22;Vrouwelijk;Rechts;2;109;right;no;100;rightarrow;415;true;focus;yes;533736;Chrome;112.0;Windows;10;undefined;undefined;1536 x 864;1536 x 864
H038;22;Vrouwelijk;Rechts;2;110;left;no;100;leftarrow;350;true;focus;yes;534863;Chrome;112.0;Windows;10;undefined;undefined;1536 x 864;1536 x 864
H038;22;Vrouwelijk;Rechts;2;111;left;no;100;leftarrow;296;true;focus;yes;535925;Chrome;112.0;Windows;10;undefined;undefined;1536 x 864;1536 x 864
H038;22;Vrouwelijk;Rechts;2;112;left;no;100;leftarrow;429;true;focus;yes;537129;Chrome;112.0;Windows;10;undefined;undefined;1536 x 864;1536 x 864
H038;22;Vrouwelijk;Rechts;2;113;right;yes;100;undefined;null;true;focus;yes;539155;Chrome;112.0;Windows;10;undefined;undefined;1536 x 864;1536 x 864
H038;22;Vrouwelijk;Rechts;2;114;left;no;150;leftarrow;575;true;focus;yes;540515;Chrome;112.0;Windows;10;undefined;undefined;1536 x 864;1536 x 864
H038;22;Vrouwelijk;Rechts;2;115;left;yes;150;undefined;null;true;focus;yes;542550;Chrome;112.0;Windows;10;undefined;undefined;1536 x 864;1536 x 864
H038;22;Vrouwelijk;Rechts;2;116;right;no;200;rightarrow;332;true;focus;yes;543668;Chrome;112.0;Windows;10;undefined;undefined;1536 x 864;1536 x 864
H038;22;Vrouwelijk;Rechts;2;117;right;no;200;rightarrow;430;true;focus;yes;544866;Chrome;112.0;Windows;10;undefined;undefined;1536 x 864;1536 x 864
H038;22;Vrouwelijk;Rechts;2;118;left;no;200;leftarrow;302;true;focus;yes;545931;Chrome;112.0;Windows;10;undefined;undefined;1536 x 864;1536 x 864
H038;22;Vrouwelijk;Rechts;2;119;right;no;200;rightarrow;359;true;focus;yes;547076;Chrome;112.0;Windows;10;undefined;undefined;1536 x 864;1536 x 864
H038;22;Vrouwelijk;Rechts;2;120;left;no;200;leftarrow;318;true;focus;yes;548165;Chrome;112.0;Windows;10;undefined;undefined;1536 x 864;1536 x 864
H038;22;Vrouwelijk;Rechts;2;121;right;yes;200;rightarrow;389;false;focus;yes;549336;Chrome;112.0;Windows;10;undefined;undefined;1536 x 864;1536 x 864
H038;22;Vrouwelijk;Rechts;2;122;left;no;150;leftarrow;331;true;focus;yes;550424;Chrome;112.0;Windows;10;undefined;undefined;1536 x 864;1536 x 864
H038;22;Vrouwelijk;Rechts;2;123;right;no;150;rightarrow;333;true;focus;yes;551542;Chrome;112.0;Windows;10;undefined;undefined;1536 x 864;1536 x 864
H038;22;Vrouwelijk;Rechts;2;124;left;yes;150;undefined;null;true;focus;yes;553565;Chrome;112.0;Windows;10;undefined;undefined;1536 x 864;1536 x 864
H038;22;Vrouwelijk;Rechts;2;125;right;no;200;rightarrow;547;true;focus;yes;554899;Chrome;112.0;Windows;10;undefined;undefined;1536 x 864;1536 x 864
H038;22;Vrouwelijk;Rechts;2;126;left;no;200;leftarrow;433;true;focus;yes;556108;Chrome;112.0;Windows;10;undefined;undefined;1536 x 864;1536 x 864
H038;22;Vrouwelijk;Rechts;2;127;right;no;200;rightarrow;327;true;focus;yes;557199;Chrome;112.0;Windows;10;undefined;undefined;1536 x 864;1536 x 864
H038;22;Vrouwelijk;Rechts;2;128;left;no;200;leftarrow;310;true;focus;yes;558285;Chrome;112.0;Windows;10;undefined;undefined;1536 x 864;1536 x 864
H038;22;Vrouwelijk;Rechts;3;1;right;no;200;rightarrow;393;true;focus;yes;583945;Chrome;112.0;Windows;10;undefined;undefined;1536 x 864;1536 x 864
H038;22;Vrouwelijk;Rechts;3;2;left;no;200;leftarrow;294;true;focus;yes;585023;Chrome;112.0;Windows;10;undefined;undefined;1536 x 864;1536 x 864
H038;22;Vrouwelijk;Rechts;3;3;right;no;200;rightarrow;336;true;focus;yes;586123;Chrome;112.0;Windows;10;undefined;undefined;1536 x 864;1536 x 864
H038;22;Vrouwelijk;Rechts;3;4;left;no;200;leftarrow;289;true;focus;yes;587187;Chrome;112.0;Windows;10;undefined;undefined;1536 x 864;1536 x 864
H038;22;Vrouwelijk;Rechts;3;5;left;no;200;rightarrow;286;false;focus;yes;588235;Chrome;112.0;Windows;10;undefined;undefined;1536 x 864;1536 x 864
H038;22;Vrouwelijk;Rechts;3;6;right;yes;200;rightarrow;350;false;focus;yes;589367;Chrome;112.0;Windows;10;undefined;undefined;1536 x 864;1536 x 864
H038;22;Vrouwelijk;Rechts;3;7;right;no;150;rightarrow;398;true;focus;yes;590542;Chrome;112.0;Windows;10;undefined;undefined;1536 x 864;1536 x 864
H038;22;Vrouwelijk;Rechts;3;8;left;yes;150;leftarrow;319;false;focus;yes;591645;Chrome;112.0;Windows;10;undefined;undefined;1536 x 864;1536 x 864
H038;22;Vrouwelijk;Rechts;3;9;right;yes;100;undefined;null;true;focus;yes;593693;Chrome;112.0;Windows;10;undefined;undefined;1536 x 864;1536 x 864
H038;22;Vrouwelijk;Rechts;3;10;left;no;150;leftarrow;318;true;focus;yes;594795;Chrome;112.0;Windows;10;undefined;undefined;1536 x 864;1536 x 864
H038;22;Vrouwelijk;Rechts;3;11;right;no;150;rightarrow;358;true;focus;yes;595918;Chrome;112.0;Windows;10;undefined;undefined;1536 x 864;1536 x 864
H038;22;Vrouwelijk;Rechts;3;12;right;no;150;rightarrow;407;true;focus;yes;597086;Chrome;112.0;Windows;10;undefined;undefined;1536 x 864;1536 x 864
H038;22;Vrouwelijk;Rechts;3;13;left;no;150;leftarrow;357;true;focus;yes;598231;Chrome;112.0;Windows;10;undefined;undefined;1536 x 864;1536 x 864
H038;22;Vrouwelijk;Rechts;3;14;right;no;150;rightarrow;354;true;focus;yes;599373;Chrome;112.0;Windows;10;undefined;undefined;1536 x 864;1536 x 864
H038;22;Vrouwelijk;Rechts;3;15;left;no;150;leftarrow;321;true;focus;yes;600458;Chrome;112.0;Windows;10;undefined;undefined;1536 x 864;1536 x 864
H038;22;Vrouwelijk;Rechts;3;16;left;yes;150;undefined;null;true;focus;yes;602500;Chrome;112.0;Windows;10;undefined;undefined;1536 x 864;1536 x 864
H038;22;Vrouwelijk;Rechts;3;17;left;no;200;leftarrow;329;true;focus;yes;603602;Chrome;112.0;Windows;10;undefined;undefined;1536 x 864;1536 x 864
H038;22;Vrouwelijk;Rechts;3;18;right;yes;200;rightarrow;475;false;focus;yes;604837;Chrome;112.0;Windows;10;undefined;undefined;1536 x 864;1536 x 864
H038;22;Vrouwelijk;Rechts;3;19;right;no;150;rightarrow;464;true;focus;yes;606082;Chrome;112.0;Windows;10;undefined;undefined;1536 x 864;1536 x 864
H038;22;Vrouwelijk;Rechts;3;20;right;no;150;rightarrow;589;true;focus;yes;607446;Chrome;112.0;Windows;10;undefined;undefined;1536 x 864;1536 x 864
H038;22;Vrouwelijk;Rechts;3;21;left;yes;150;leftarrow;343;false;focus;yes;608550;Chrome;112.0;Windows;10;undefined;undefined;1536 x 864;1536 x 864
H038;22;Vrouwelijk;Rechts;3;22;left;no;100;leftarrow;400;true;focus;yes;609712;Chrome;112.0;Windows;10;undefined;undefined;1536 x 864;1536 x 864
H038;22;Vrouwelijk;Rechts;3;23;left;no;100;leftarrow;414;true;focus;yes;610904;Chrome;112.0;Windows;10;undefined;undefined;1536 x 864;1536 x 864
H038;22;Vrouwelijk;Rechts;3;24;right;no;100;rightarrow;402;true;focus;yes;612076;Chrome;112.0;Windows;10;undefined;undefined;1536 x 864;1536 x 864
H038;22;Vrouwelijk;Rechts;3;25;left;no;100;leftarrow;551;true;focus;yes;613406;Chrome;112.0;Windows;10;undefined;undefined;1536 x 864;1536 x 864
H038;22;Vrouwelijk;Rechts;3;26;right;no;100;rightarrow;388;true;focus;yes;614578;Chrome;112.0;Windows;10;undefined;undefined;1536 x 864;1536 x 864
H038;22;Vrouwelijk;Rechts;3;27;left;yes;100;leftarrow;390;false;focus;yes;615743;Chrome;112.0;Windows;10;undefined;undefined;1536 x 864;1536 x 864
H038;22;Vrouwelijk;Rechts;3;28;right;no;50;rightarrow;394;true;focus;yes;616907;Chrome;112.0;Windows;10;undefined;undefined;1536 x 864;1536 x 864
H038;22;Vrouwelijk;Rechts;3;29;left;no;50;leftarrow;415;true;focus;yes;618091;Chrome;112.0;Windows;10;undefined;undefined;1536 x 864;1536 x 864
H038;22;Vrouwelijk;Rechts;3;30;right;no;50;rightarrow;392;true;focus;yes;619252;Chrome;112.0;Windows;10;undefined;undefined;1536 x 864;1536 x 864
H038;22;Vrouwelijk;Rechts;3;31;left;no;50;leftarrow;706;true;focus;yes;620739;Chrome;112.0;Windows;10;undefined;undefined;1536 x 864;1536 x 864
H038;22;Vrouwelijk;Rechts;3;32;right;yes;50;undefined;null;true;focus;yes;622781;Chrome;112.0;Windows;10;undefined;undefined;1536 x 864;1536 x 864
H038;22;Vrouwelijk;Rechts;3;33;right;yes;100;rightarrow;406;false;focus;yes;623971;Chrome;112.0;Windows;10;undefined;undefined;1536 x 864;1536 x 864
H038;22;Vrouwelijk;Rechts;3;34;left;no;50;leftarrow;512;true;focus;yes;625263;Chrome;112.0;Windows;10;undefined;undefined;1536 x 864;1536 x 864
H038;22;Vrouwelijk;Rechts;3;35;left;no;50;leftarrow;426;true;focus;yes;626455;Chrome;112.0;Windows;10;undefined;undefined;1536 x 864;1536 x 864
H038;22;Vrouwelijk;Rechts;3;36;left;no;50;leftarrow;399;true;focus;yes;627634;Chrome;112.0;Windows;10;undefined;undefined;1536 x 864;1536 x 864
H038;22;Vrouwelijk;Rechts;3;37;right;no;50;rightarrow;465;true;focus;yes;628882;Chrome;112.0;Windows;10;undefined;undefined;1536 x 864;1536 x 864
H038;22;Vrouwelijk;Rechts;3;38;right;no;50;rightarrow;461;true;focus;yes;630104;Chrome;112.0;Windows;10;undefined;undefined;1536 x 864;1536 x 864
H038;22;Vrouwelijk;Rechts;3;39;right;no;50;rightarrow;712;true;focus;yes;631600;Chrome;112.0;Windows;10;undefined;undefined;1536 x 864;1536 x 864
H038;22;Vrouwelijk;Rechts;3;40;left;yes;50;undefined;null;true;focus;yes;633619;Chrome;112.0;Windows;10;undefined;undefined;1536 x 864;1536 x 864
H038;22;Vrouwelijk;Rechts;3;41;right;no;100;rightarrow;350;true;focus;yes;634740;Chrome;112.0;Windows;10;undefined;undefined;1536 x 864;1536 x 864
H038;22;Vrouwelijk;Rechts;3;42;left;no;100;leftarrow;371;true;focus;yes;635875;Chrome;112.0;Windows;10;undefined;undefined;1536 x 864;1536 x 864
H038;22;Vrouwelijk;Rechts;3;43;left;yes;100;rightarrow;338;false;focus;yes;636986;Chrome;112.0;Windows;10;undefined;undefined;1536 x 864;1536 x 864
H038;22;Vrouwelijk;Rechts;3;44;right;no;50;rightarrow;625;true;focus;yes;638392;Chrome;112.0;Windows;10;undefined;undefined;1536 x 864;1536 x 864
H038;22;Vrouwelijk;Rechts;3;45;right;yes;50;undefined;null;true;focus;yes;640424;Chrome;112.0;Windows;10;undefined;undefined;1536 x 864;1536 x 864
H038;22;Vrouwelijk;Rechts;3;46;right;no;100;rightarrow;342;true;focus;yes;641538;Chrome;112.0;Windows;10;undefined;undefined;1536 x 864;1536 x 864
H038;22;Vrouwelijk;Rechts;3;47;left;no;100;leftarrow;308;true;focus;yes;642621;Chrome;112.0;Windows;10;undefined;undefined;1536 x 864;1536 x 864
H038;22;Vrouwelijk;Rechts;3;48;left;no;100;leftarrow;309;true;focus;yes;643709;Chrome;112.0;Windows;10;undefined;undefined;1536 x 864;1536 x 864
H038;22;Vrouwelijk;Rechts;3;49;left;no;100;leftarrow;396;true;focus;yes;644882;Chrome;112.0;Windows;10;undefined;undefined;1536 x 864;1536 x 864
H038;22;Vrouwelijk;Rechts;3;50;left;no;100;leftarrow;767;true;focus;yes;646413;Chrome;112.0;Windows;10;undefined;undefined;1536 x 864;1536 x 864
H038;22;Vrouwelijk;Rechts;3;51;left;no;100;leftarrow;462;true;focus;yes;647648;Chrome;112.0;Windows;10;undefined;undefined;1536 x 864;1536 x 864
H038;22;Vrouwelijk;Rechts;3;52;right;no;100;undefined;null;false;focus;yes;649670;Chrome;112.0;Windows;10;undefined;undefined;1536 x 864;1536 x 864
H038;22;Vrouwelijk;Rechts;3;53;right;no;100;rightarrow;428;true;focus;yes;650868;Chrome;112.0;Windows;10;undefined;undefined;1536 x 864;1536 x 864
H038;22;Vrouwelijk;Rechts;3;54;right;yes;100;rightarrow;359;false;focus;yes;652012;Chrome;112.0;Windows;10;undefined;undefined;1536 x 864;1536 x 864
H038;22;Vrouwelijk;Rechts;3;55;right;no;50;rightarrow;399;true;focus;yes;653184;Chrome;112.0;Windows;10;undefined;undefined;1536 x 864;1536 x 864
H038;22;Vrouwelijk;Rechts;3;56;left;yes;50;leftarrow;559;false;focus;yes;654519;Chrome;112.0;Windows;10;undefined;undefined;1536 x 864;1536 x 864
H038;22;Vrouwelijk;Rechts;3;57;left;no;50;leftarrow;351;true;focus;yes;655659;Chrome;112.0;Windows;10;undefined;undefined;1536 x 864;1536 x 864
H038;22;Vrouwelijk;Rechts;3;58;left;no;50;leftarrow;325;true;focus;yes;656748;Chrome;112.0;Windows;10;undefined;undefined;1536 x 864;1536 x 864
H038;22;Vrouwelijk;Rechts;3;59;left;no;50;leftarrow;309;true;focus;yes;657831;Chrome;112.0;Windows;10;undefined;undefined;1536 x 864;1536 x 864
H038;22;Vrouwelijk;Rechts;3;60;right;no;50;rightarrow;480;true;focus;yes;659085;Chrome;112.0;Windows;10;undefined;undefined;1536 x 864;1536 x 864
H038;22;Vrouwelijk;Rechts;3;61;right;no;50;rightarrow;432;true;focus;yes;660300;Chrome;112.0;Windows;10;undefined;undefined;1536 x 864;1536 x 864
H038;22;Vrouwelijk;Rechts;3;62;right;no;50;rightarrow;431;true;focus;yes;661507;Chrome;112.0;Windows;10;undefined;undefined;1536 x 864;1536 x 864
H038;22;Vrouwelijk;Rechts;3;63;left;yes;50;undefined;null;true;focus;yes;663541;Chrome;112.0;Windows;10;undefined;undefined;1536 x 864;1536 x 864
H038;22;Vrouwelijk;Rechts;3;64;right;yes;100;rightarrow;418;false;focus;yes;664745;Chrome;112.0;Windows;10;undefined;undefined;1536 x 864;1536 x 864
H038;22;Vrouwelijk;Rechts;3;65;right;no;50;rightarrow;387;true;focus;yes;665893;Chrome;112.0;Windows;10;undefined;undefined;1536 x 864;1536 x 864
H038;22;Vrouwelijk;Rechts;3;66;left;yes;50;rightarrow;315;false;focus;yes;666983;Chrome;112.0;Windows;10;undefined;undefined;1536 x 864;1536 x 864
H038;22;Vrouwelijk;Rechts;3;67;right;no;50;rightarrow;332;true;focus;yes;668100;Chrome;112.0;Windows;10;undefined;undefined;1536 x 864;1536 x 864
H038;22;Vrouwelijk;Rechts;3;68;right;no;50;rightarrow;457;true;focus;yes;669329;Chrome;112.0;Windows;10;undefined;undefined;1536 x 864;1536 x 864
H038;22;Vrouwelijk;Rechts;3;69;left;no;50;leftarrow;421;true;focus;yes;670533;Chrome;112.0;Windows;10;undefined;undefined;1536 x 864;1536 x 864
H038;22;Vrouwelijk;Rechts;3;70;left;no;50;leftarrow;406;true;focus;yes;671711;Chrome;112.0;Windows;10;undefined;undefined;1536 x 864;1536 x 864
H038;22;Vrouwelijk;Rechts;3;71;right;yes;50;undefined;null;true;focus;yes;673748;Chrome;112.0;Windows;10;undefined;undefined;1536 x 864;1536 x 864
H038;22;Vrouwelijk;Rechts;3;72;left;no;100;leftarrow;367;true;focus;yes;674903;Chrome;112.0;Windows;10;undefined;undefined;1536 x 864;1536 x 864
H038;22;Vrouwelijk;Rechts;3;73;left;no;100;leftarrow;371;true;focus;yes;676055;Chrome;112.0;Windows;10;undefined;undefined;1536 x 864;1536 x 864
H038;22;Vrouwelijk;Rechts;3;74;left;yes;100;leftarrow;387;false;focus;yes;677219;Chrome;112.0;Windows;10;undefined;undefined;1536 x 864;1536 x 864
H038;22;Vrouwelijk;Rechts;3;75;left;no;50;leftarrow;350;true;focus;yes;678351;Chrome;112.0;Windows;10;undefined;undefined;1536 x 864;1536 x 864
H038;22;Vrouwelijk;Rechts;3;76;right;yes;50;undefined;null;true;focus;yes;680391;Chrome;112.0;Windows;10;undefined;undefined;1536 x 864;1536 x 864
H038;22;Vrouwelijk;Rechts;3;77;right;no;100;rightarrow;407;true;focus;yes;681586;Chrome;112.0;Windows;10;undefined;undefined;1536 x 864;1536 x 864
H038;22;Vrouwelijk;Rechts;3;78;left;no;100;leftarrow;299;true;focus;yes;682669;Chrome;112.0;Windows;10;undefined;undefined;1536 x 864;1536 x 864
H038;22;Vrouwelijk;Rechts;3;79;right;no;100;rightarrow;376;true;focus;yes;683826;Chrome;112.0;Windows;10;undefined;undefined;1536 x 864;1536 x 864
H038;22;Vrouwelijk;Rechts;3;80;right;no;100;rightarrow;399;true;focus;yes;685012;Chrome;112.0;Windows;10;undefined;undefined;1536 x 864;1536 x 864
H038;22;Vrouwelijk;Rechts;3;81;right;no;100;rightarrow;378;true;focus;yes;686174;Chrome;112.0;Windows;10;undefined;undefined;1536 x 864;1536 x 864
H038;22;Vrouwelijk;Rechts;3;82;left;no;100;leftarrow;492;true;focus;yes;687430;Chrome;112.0;Windows;10;undefined;undefined;1536 x 864;1536 x 864
H038;22;Vrouwelijk;Rechts;3;83;right;yes;100;rightarrow;349;false;focus;yes;688545;Chrome;112.0;Windows;10;undefined;undefined;1536 x 864;1536 x 864
H038;22;Vrouwelijk;Rechts;3;84;left;no;50;leftarrow;320;true;focus;yes;689646;Chrome;112.0;Windows;10;undefined;undefined;1536 x 864;1536 x 864
H038;22;Vrouwelijk;Rechts;3;85;right;no;50;rightarrow;419;true;focus;yes;690830;Chrome;112.0;Windows;10;undefined;undefined;1536 x 864;1536 x 864
H038;22;Vrouwelijk;Rechts;3;86;right;no;50;rightarrow;399;true;focus;yes;691990;Chrome;112.0;Windows;10;undefined;undefined;1536 x 864;1536 x 864
H038;22;Vrouwelijk;Rechts;3;87;left;no;50;leftarrow;387;true;focus;yes;693160;Chrome;112.0;Windows;10;undefined;undefined;1536 x 864;1536 x 864
H038;22;Vrouwelijk;Rechts;3;88;left;yes;50;leftarrow;353;false;focus;yes;694274;Chrome;112.0;Windows;10;undefined;undefined;1536 x 864;1536 x 864
H038;22;Vrouwelijk;Rechts;3;89;left;no;50;leftarrow;343;true;focus;yes;695396;Chrome;112.0;Windows;10;undefined;undefined;1536 x 864;1536 x 864
H038;22;Vrouwelijk;Rechts;3;90;right;yes;50;undefined;null;true;focus;yes;697433;Chrome;112.0;Windows;10;undefined;undefined;1536 x 864;1536 x 864
H038;22;Vrouwelijk;Rechts;3;91;left;no;100;leftarrow;354;true;focus;yes;698559;Chrome;112.0;Windows;10;undefined;undefined;1536 x 864;1536 x 864
H038;22;Vrouwelijk;Rechts;3;92;left;no;100;leftarrow;359;true;focus;yes;699690;Chrome;112.0;Windows;10;undefined;undefined;1536 x 864;1536 x 864
H038;22;Vrouwelijk;Rechts;3;93;left;yes;100;leftarrow;309;false;focus;yes;700789;Chrome;112.0;Windows;10;undefined;undefined;1536 x 864;1536 x 864
H038;22;Vrouwelijk;Rechts;3;94;right;no;50;rightarrow;360;true;focus;yes;701932;Chrome;112.0;Windows;10;undefined;undefined;1536 x 864;1536 x 864
H038;22;Vrouwelijk;Rechts;3;95;right;no;50;rightarrow;474;true;focus;yes;703194;Chrome;112.0;Windows;10;undefined;undefined;1536 x 864;1536 x 864
H038;22;Vrouwelijk;Rechts;3;96;right;no;50;rightarrow;355;true;focus;yes;704325;Chrome;112.0;Windows;10;undefined;undefined;1536 x 864;1536 x 864
H038;22;Vrouwelijk;Rechts;3;97;left;no;50;leftarrow;377;true;focus;yes;705492;Chrome;112.0;Windows;10;undefined;undefined;1536 x 864;1536 x 864
H038;22;Vrouwelijk;Rechts;3;98;right;no;50;rightarrow;329;true;focus;yes;706608;Chrome;112.0;Windows;10;undefined;undefined;1536 x 864;1536 x 864
H038;22;Vrouwelijk;Rechts;3;99;left;yes;50;leftarrow;339;false;focus;yes;707733;Chrome;112.0;Windows;10;undefined;undefined;1536 x 864;1536 x 864
H038;22;Vrouwelijk;Rechts;3;100;left;no;50;leftarrow;436;true;focus;yes;708935;Chrome;112.0;Windows;10;undefined;undefined;1536 x 864;1536 x 864
H038;22;Vrouwelijk;Rechts;3;101;right;no;50;rightarrow;362;true;focus;yes;710072;Chrome;112.0;Windows;10;undefined;undefined;1536 x 864;1536 x 864
H038;22;Vrouwelijk;Rechts;3;102;left;no;50;leftarrow;301;true;focus;yes;711161;Chrome;112.0;Windows;10;undefined;undefined;1536 x 864;1536 x 864
H038;22;Vrouwelijk;Rechts;3;103;right;no;50;rightarrow;391;true;focus;yes;712339;Chrome;112.0;Windows;10;undefined;undefined;1536 x 864;1536 x 864
H038;22;Vrouwelijk;Rechts;3;104;right;yes;50;undefined;null;true;focus;yes;714380;Chrome;112.0;Windows;10;undefined;undefined;1536 x 864;1536 x 864
H038;22;Vrouwelijk;Rechts;3;105;right;no;100;rightarrow;449;true;focus;yes;715617;Chrome;112.0;Windows;10;undefined;undefined;1536 x 864;1536 x 864
H038;22;Vrouwelijk;Rechts;3;106;left;yes;100;undefined;null;true;focus;yes;717641;Chrome;112.0;Windows;10;undefined;undefined;1536 x 864;1536 x 864
H038;22;Vrouwelijk;Rechts;3;107;left;no;150;leftarrow;758;true;focus;yes;719186;Chrome;112.0;Windows;10;undefined;undefined;1536 x 864;1536 x 864
H038;22;Vrouwelijk;Rechts;3;108;right;no;150;undefined;null;false;focus;yes;721218;Chrome;112.0;Windows;10;undefined;undefined;1536 x 864;1536 x 864
H038;22;Vrouwelijk;Rechts;3;109;right;yes;150;rightarrow;668;false;focus;yes;722675;Chrome;112.0;Windows;10;undefined;undefined;1536 x 864;1536 x 864
H038;22;Vrouwelijk;Rechts;3;110;right;no;100;rightarrow;339;true;focus;yes;723788;Chrome;112.0;Windows;10;undefined;undefined;1536 x 864;1536 x 864
H038;22;Vrouwelijk;Rechts;3;111;left;no;100;rightarrow;423;false;focus;yes;725001;Chrome;112.0;Windows;10;undefined;undefined;1536 x 864;1536 x 864
H038;22;Vrouwelijk;Rechts;3;112;left;no;100;leftarrow;335;true;focus;yes;726123;Chrome;112.0;Windows;10;undefined;undefined;1536 x 864;1536 x 864
H038;22;Vrouwelijk;Rechts;3;113;left;no;100;leftarrow;300;true;focus;yes;727186;Chrome;112.0;Windows;10;undefined;undefined;1536 x 864;1536 x 864
H038;22;Vrouwelijk;Rechts;3;114;right;no;100;rightarrow;434;true;focus;yes;728408;Chrome;112.0;Windows;10;undefined;undefined;1536 x 864;1536 x 864
H038;22;Vrouwelijk;Rechts;3;115;right;no;100;rightarrow;373;true;focus;yes;729568;Chrome;112.0;Windows;10;undefined;undefined;1536 x 864;1536 x 864
H038;22;Vrouwelijk;Rechts;3;116;right;yes;100;rightarrow;457;false;focus;yes;730787;Chrome;112.0;Windows;10;undefined;undefined;1536 x 864;1536 x 864
H038;22;Vrouwelijk;Rechts;3;117;left;yes;50;undefined;null;true;focus;yes;732830;Chrome;112.0;Windows;10;undefined;undefined;1536 x 864;1536 x 864
H038;22;Vrouwelijk;Rechts;3;118;left;no;100;leftarrow;346;true;focus;yes;733963;Chrome;112.0;Windows;10;undefined;undefined;1536 x 864;1536 x 864
H038;22;Vrouwelijk;Rechts;3;119;right;no;100;rightarrow;366;true;focus;yes;735112;Chrome;112.0;Windows;10;undefined;undefined;1536 x 864;1536 x 864
H038;22;Vrouwelijk;Rechts;3;120;left;no;100;leftarrow;332;true;focus;yes;736211;Chrome;112.0;Windows;10;undefined;undefined;1536 x 864;1536 x 864
H038;22;Vrouwelijk;Rechts;3;121;left;no;100;leftarrow;352;true;focus;yes;737330;Chrome;112.0;Windows;10;undefined;undefined;1536 x 864;1536 x 864
H038;22;Vrouwelijk;Rechts;3;122;left;yes;100;leftarrow;350;false;focus;yes;738444;Chrome;112.0;Windows;10;undefined;undefined;1536 x 864;1536 x 864
H038;22;Vrouwelijk;Rechts;3;123;right;no;50;rightarrow;383;true;focus;yes;739611;Chrome;112.0;Windows;10;undefined;undefined;1536 x 864;1536 x 864
H038;22;Vrouwelijk;Rechts;3;124;left;no;50;leftarrow;320;true;focus;yes;740710;Chrome;112.0;Windows;10;undefined;undefined;1536 x 864;1536 x 864
H038;22;Vrouwelijk;Rechts;3;125;right;no;50;rightarrow;358;true;focus;yes;741846;Chrome;112.0;Windows;10;undefined;undefined;1536 x 864;1536 x 864
H038;22;Vrouwelijk;Rechts;3;126;right;yes;50;undefined;null;true;focus;yes;743876;Chrome;112.0;Windows;10;undefined;undefined;1536 x 864;1536 x 864
H038;22;Vrouwelijk;Rechts;3;127;right;no;100;rightarrow;396;true;focus;yes;745060;Chrome;112.0;Windows;10;undefined;undefined;1536 x 864;1536 x 864
H038;22;Vrouwelijk;Rechts;3;128;left;no;100;leftarrow;372;true;focus;yes;746217;Chrome;112.0;Windows;10;undefined;undefined;1536 x 864;1536 x 864
H038;22;Vrouwelijk;Rechts;4;1;left;no;100;leftarrow;351;true;focus;yes;770102;Chrome;112.0;Windows;10;undefined;undefined;1536 x 864;1536 x 864
H038;22;Vrouwelijk;Rechts;4;2;left;no;100;leftarrow;279;true;focus;yes;771157;Chrome;112.0;Windows;10;undefined;undefined;1536 x 864;1536 x 864
H038;22;Vrouwelijk;Rechts;4;3;left;yes;100;leftarrow;302;false;focus;yes;772242;Chrome;112.0;Windows;10;undefined;undefined;1536 x 864;1536 x 864
H038;22;Vrouwelijk;Rechts;4;4;right;no;50;rightarrow;410;true;focus;yes;773420;Chrome;112.0;Windows;10;undefined;undefined;1536 x 864;1536 x 864
H038;22;Vrouwelijk;Rechts;4;5;right;yes;50;rightarrow;295;false;focus;yes;774497;Chrome;112.0;Windows;10;undefined;undefined;1536 x 864;1536 x 864
H038;22;Vrouwelijk;Rechts;4;6;left;no;50;leftarrow;329;true;focus;yes;775600;Chrome;112.0;Windows;10;undefined;undefined;1536 x 864;1536 x 864
H038;22;Vrouwelijk;Rechts;4;7;right;no;50;rightarrow;438;true;focus;yes;776812;Chrome;112.0;Windows;10;undefined;undefined;1536 x 864;1536 x 864
H038;22;Vrouwelijk;Rechts;4;8;right;no;50;rightarrow;409;true;focus;yes;777993;Chrome;112.0;Windows;10;undefined;undefined;1536 x 864;1536 x 864
H038;22;Vrouwelijk;Rechts;4;9;left;no;50;leftarrow;942;true;focus;yes;779716;Chrome;112.0;Windows;10;undefined;undefined;1536 x 864;1536 x 864
H038;22;Vrouwelijk;Rechts;4;10;right;no;50;rightarrow;381;true;focus;yes;780867;Chrome;112.0;Windows;10;undefined;undefined;1536 x 864;1536 x 864
H038;22;Vrouwelijk;Rechts;4;11;left;no;50;leftarrow;399;true;focus;yes;782033;Chrome;112.0;Windows;10;undefined;undefined;1536 x 864;1536 x 864
H038;22;Vrouwelijk;Rechts;4;12;right;yes;50;undefined;null;true;focus;yes;784068;Chrome;112.0;Windows;10;undefined;undefined;1536 x 864;1536 x 864
H038;22;Vrouwelijk;Rechts;4;13;left;no;100;leftarrow;372;true;focus;yes;785213;Chrome;112.0;Windows;10;undefined;undefined;1536 x 864;1536 x 864
H038;22;Vrouwelijk;Rechts;4;14;right;no;100;rightarrow;655;true;focus;yes;786642;Chrome;112.0;Windows;10;undefined;undefined;1536 x 864;1536 x 864
H038;22;Vrouwelijk;Rechts;4;15;left;yes;100;leftarrow;369;false;focus;yes;787792;Chrome;112.0;Windows;10;undefined;undefined;1536 x 864;1536 x 864
H038;22;Vrouwelijk;Rechts;4;16;right;no;50;rightarrow;511;true;focus;yes;789079;Chrome;112.0;Windows;10;undefined;undefined;1536 x 864;1536 x 864
H038;22;Vrouwelijk;Rechts;4;17;left;yes;50;undefined;null;true;focus;yes;791119;Chrome;112.0;Windows;10;undefined;undefined;1536 x 864;1536 x 864
H038;22;Vrouwelijk;Rechts;4;18;left;no;100;leftarrow;376;true;focus;yes;792282;Chrome;112.0;Windows;10;undefined;undefined;1536 x 864;1536 x 864
H038;22;Vrouwelijk;Rechts;4;19;right;no;100;rightarrow;387;true;focus;yes;793456;Chrome;112.0;Windows;10;undefined;undefined;1536 x 864;1536 x 864
H038;22;Vrouwelijk;Rechts;4;20;right;yes;100;undefined;null;true;focus;yes;795483;Chrome;112.0;Windows;10;undefined;undefined;1536 x 864;1536 x 864
H038;22;Vrouwelijk;Rechts;4;21;right;no;150;rightarrow;563;true;focus;yes;796819;Chrome;112.0;Windows;10;undefined;undefined;1536 x 864;1536 x 864
H038;22;Vrouwelijk;Rechts;4;22;left;no;150;leftarrow;865;true;focus;yes;798444;Chrome;112.0;Windows;10;undefined;undefined;1536 x 864;1536 x 864
H038;22;Vrouwelijk;Rechts;4;23;left;no;150;leftarrow;332;true;focus;yes;799563;Chrome;112.0;Windows;10;undefined;undefined;1536 x 864;1536 x 864
H038;22;Vrouwelijk;Rechts;4;24;right;no;150;rightarrow;423;true;focus;yes;800755;Chrome;112.0;Windows;10;undefined;undefined;1536 x 864;1536 x 864
H038;22;Vrouwelijk;Rechts;4;25;left;yes;150;leftarrow;338;false;focus;yes;801862;Chrome;112.0;Windows;10;undefined;undefined;1536 x 864;1536 x 864
H038;22;Vrouwelijk;Rechts;4;26;right;no;100;rightarrow;342;true;focus;yes;802988;Chrome;112.0;Windows;10;undefined;undefined;1536 x 864;1536 x 864
H038;22;Vrouwelijk;Rechts;4;27;left;no;100;leftarrow;387;true;focus;yes;804159;Chrome;112.0;Windows;10;undefined;undefined;1536 x 864;1536 x 864
H038;22;Vrouwelijk;Rechts;4;28;left;no;100;leftarrow;386;true;focus;yes;805318;Chrome;112.0;Windows;10;undefined;undefined;1536 x 864;1536 x 864
H038;22;Vrouwelijk;Rechts;4;29;right;yes;100;rightarrow;408;false;focus;yes;806513;Chrome;112.0;Windows;10;undefined;undefined;1536 x 864;1536 x 864
H038;22;Vrouwelijk;Rechts;4;30;right;no;50;rightarrow;451;true;focus;yes;807752;Chrome;112.0;Windows;10;undefined;undefined;1536 x 864;1536 x 864
H038;22;Vrouwelijk;Rechts;4;31;right;no;50;rightarrow;355;true;focus;yes;808881;Chrome;112.0;Windows;10;undefined;undefined;1536 x 864;1536 x 864
H038;22;Vrouwelijk;Rechts;4;32;left;no;50;leftarrow;486;true;focus;yes;810146;Chrome;112.0;Windows;10;undefined;undefined;1536 x 864;1536 x 864
H038;22;Vrouwelijk;Rechts;4;33;left;no;50;leftarrow;497;true;focus;yes;811431;Chrome;112.0;Windows;10;undefined;undefined;1536 x 864;1536 x 864
H038;22;Vrouwelijk;Rechts;4;34;left;no;50;leftarrow;267;true;focus;yes;812487;Chrome;112.0;Windows;10;undefined;undefined;1536 x 864;1536 x 864
H038;22;Vrouwelijk;Rechts;4;35;right;no;50;rightarrow;496;true;focus;yes;813759;Chrome;112.0;Windows;10;undefined;undefined;1536 x 864;1536 x 864
H038;22;Vrouwelijk;Rechts;4;36;left;no;50;leftarrow;364;true;focus;yes;814898;Chrome;112.0;Windows;10;undefined;undefined;1536 x 864;1536 x 864
H038;22;Vrouwelijk;Rechts;4;37;left;yes;50;undefined;null;true;focus;yes;816942;Chrome;112.0;Windows;10;undefined;undefined;1536 x 864;1536 x 864
H038;22;Vrouwelijk;Rechts;4;38;right;no;100;rightarrow;401;true;focus;yes;818116;Chrome;112.0;Windows;10;undefined;undefined;1536 x 864;1536 x 864
H038;22;Vrouwelijk;Rechts;4;39;right;yes;100;rightarrow;354;false;focus;yes;819246;Chrome;112.0;Windows;10;undefined;undefined;1536 x 864;1536 x 864
H038;22;Vrouwelijk;Rechts;4;40;right;no;50;rightarrow;381;true;focus;yes;820409;Chrome;112.0;Windows;10;undefined;undefined;1536 x 864;1536 x 864
H038;22;Vrouwelijk;Rechts;4;41;left;no;50;leftarrow;388;true;focus;yes;821564;Chrome;112.0;Windows;10;undefined;undefined;1536 x 864;1536 x 864
H038;22;Vrouwelijk;Rechts;4;42;right;no;50;rightarrow;398;true;focus;yes;822737;Chrome;112.0;Windows;10;undefined;undefined;1536 x 864;1536 x 864
H038;22;Vrouwelijk;Rechts;4;43;right;no;50;rightarrow;568;true;focus;yes;824088;Chrome;112.0;Windows;10;undefined;undefined;1536 x 864;1536 x 864
H038;22;Vrouwelijk;Rechts;4;44;left;no;50;leftarrow;371;true;focus;yes;825226;Chrome;112.0;Windows;10;undefined;undefined;1536 x 864;1536 x 864
H038;22;Vrouwelijk;Rechts;4;45;left;no;50;leftarrow;339;true;focus;yes;826328;Chrome;112.0;Windows;10;undefined;undefined;1536 x 864;1536 x 864
H038;22;Vrouwelijk;Rechts;4;46;right;no;50;rightarrow;382;true;focus;yes;827500;Chrome;112.0;Windows;10;undefined;undefined;1536 x 864;1536 x 864
H038;22;Vrouwelijk;Rechts;4;47;left;yes;50;leftarrow;320;false;focus;yes;828608;Chrome;112.0;Windows;10;undefined;undefined;1536 x 864;1536 x 864
H038;22;Vrouwelijk;Rechts;4;48;right;yes;50;undefined;null;true;focus;yes;830643;Chrome;112.0;Windows;10;undefined;undefined;1536 x 864;1536 x 864
H038;22;Vrouwelijk;Rechts;4;49;left;no;100;leftarrow;437;true;focus;yes;831866;Chrome;112.0;Windows;10;undefined;undefined;1536 x 864;1536 x 864
H038;22;Vrouwelijk;Rechts;4;50;left;no;100;leftarrow;385;true;focus;yes;833022;Chrome;112.0;Windows;10;undefined;undefined;1536 x 864;1536 x 864
H038;22;Vrouwelijk;Rechts;4;51;left;no;100;leftarrow;355;true;focus;yes;834156;Chrome;112.0;Windows;10;undefined;undefined;1536 x 864;1536 x 864
H038;22;Vrouwelijk;Rechts;4;52;right;no;100;rightarrow;433;true;focus;yes;835360;Chrome;112.0;Windows;10;undefined;undefined;1536 x 864;1536 x 864
H038;22;Vrouwelijk;Rechts;4;53;right;no;100;rightarrow;676;true;focus;yes;836797;Chrome;112.0;Windows;10;undefined;undefined;1536 x 864;1536 x 864
H038;22;Vrouwelijk;Rechts;4;54;left;yes;100;undefined;null;true;focus;yes;838841;Chrome;112.0;Windows;10;undefined;undefined;1536 x 864;1536 x 864
H038;22;Vrouwelijk;Rechts;4;55;right;no;150;rightarrow;594;true;focus;yes;840208;Chrome;112.0;Windows;10;undefined;undefined;1536 x 864;1536 x 864
H038;22;Vrouwelijk;Rechts;4;56;right;yes;150;undefined;null;true;focus;yes;842258;Chrome;112.0;Windows;10;undefined;undefined;1536 x 864;1536 x 864
H038;22;Vrouwelijk;Rechts;4;57;left;no;200;leftarrow;394;true;focus;yes;843426;Chrome;112.0;Windows;10;undefined;undefined;1536 x 864;1536 x 864
H038;22;Vrouwelijk;Rechts;4;58;left;no;200;leftarrow;366;true;focus;yes;844561;Chrome;112.0;Windows;10;undefined;undefined;1536 x 864;1536 x 864
H038;22;Vrouwelijk;Rechts;4;59;left;no;200;leftarrow;400;true;focus;yes;845737;Chrome;112.0;Windows;10;undefined;undefined;1536 x 864;1536 x 864
H038;22;Vrouwelijk;Rechts;4;60;left;yes;200;undefined;null;true;focus;yes;847759;Chrome;112.0;Windows;10;undefined;undefined;1536 x 864;1536 x 864
H038;22;Vrouwelijk;Rechts;4;61;right;no;250;rightarrow;369;true;focus;yes;848917;Chrome;112.0;Windows;10;undefined;undefined;1536 x 864;1536 x 864
H038;22;Vrouwelijk;Rechts;4;62;right;no;250;rightarrow;477;true;focus;yes;850172;Chrome;112.0;Windows;10;undefined;undefined;1536 x 864;1536 x 864
H038;22;Vrouwelijk;Rechts;4;63;right;yes;250;rightarrow;358;false;focus;yes;851300;Chrome;112.0;Windows;10;undefined;undefined;1536 x 864;1536 x 864
H038;22;Vrouwelijk;Rechts;4;64;right;no;200;rightarrow;351;true;focus;yes;852426;Chrome;112.0;Windows;10;undefined;undefined;1536 x 864;1536 x 864
H038;22;Vrouwelijk;Rechts;4;65;left;yes;200;leftarrow;329;false;focus;yes;853536;Chrome;112.0;Windows;10;undefined;undefined;1536 x 864;1536 x 864
H038;22;Vrouwelijk;Rechts;4;66;left;no;150;leftarrow;589;true;focus;yes;854915;Chrome;112.0;Windows;10;undefined;undefined;1536 x 864;1536 x 864
H038;22;Vrouwelijk;Rechts;4;67;right;no;150;leftarrow;310;false;focus;yes;855997;Chrome;112.0;Windows;10;undefined;undefined;1536 x 864;1536 x 864
H038;22;Vrouwelijk;Rechts;4;68;left;no;150;leftarrow;290;true;focus;yes;857065;Chrome;112.0;Windows;10;undefined;undefined;1536 x 864;1536 x 864
H038;22;Vrouwelijk;Rechts;4;69;right;yes;150;rightarrow;339;false;focus;yes;858181;Chrome;112.0;Windows;10;undefined;undefined;1536 x 864;1536 x 864
H038;22;Vrouwelijk;Rechts;4;70;right;no;100;rightarrow;384;true;focus;yes;859330;Chrome;112.0;Windows;10;undefined;undefined;1536 x 864;1536 x 864
H038;22;Vrouwelijk;Rechts;4;71;right;no;100;rightarrow;413;true;focus;yes;860520;Chrome;112.0;Windows;10;undefined;undefined;1536 x 864;1536 x 864
H038;22;Vrouwelijk;Rechts;4;72;left;no;100;leftarrow;422;true;focus;yes;861724;Chrome;112.0;Windows;10;undefined;undefined;1536 x 864;1536 x 864
H038;22;Vrouwelijk;Rechts;4;76;left;no;100;leftarrow;405;true;focus;yes;867314;Chrome;112.0;Windows;10;undefined;undefined;1536 x 864;1536 x 864
H038;22;Vrouwelijk;Rechts;4;74;left;yes;50;undefined;null;true;focus;yes;864958;Chrome;112.0;Windows;10;undefined;undefined;1536 x 864;1536 x 864
H038;22;Vrouwelijk;Rechts;4;75;left;no;100;leftarrow;383;true;focus;yes;866128;Chrome;112.0;Windows;10;undefined;undefined;1536 x 864;1536 x 864
H038;22;Vrouwelijk;Rechts;4;73;right;yes;100;rightarrow;412;false;focus;yes;862926;Chrome;112.0;Windows;10;undefined;undefined;1536 x 864;1536 x 864
H038;22;Vrouwelijk;Rechts;4;77;right;no;100;rightarrow;389;true;focus;yes;868479;Chrome;112.0;Windows;10;undefined;undefined;1536 x 864;1536 x 864
H038;22;Vrouwelijk;Rechts;4;78;left;no;100;leftarrow;321;true;focus;yes;869589;Chrome;112.0;Windows;10;undefined;undefined;1536 x 864;1536 x 864
H038;22;Vrouwelijk;Rechts;4;79;right;no;100;rightarrow;333;true;focus;yes;870701;Chrome;112.0;Windows;10;undefined;undefined;1536 x 864;1536 x 864
H038;22;Vrouwelijk;Rechts;4;80;right;no;100;rightarrow;345;true;focus;yes;871814;Chrome;112.0;Windows;10;undefined;undefined;1536 x 864;1536 x 864
H038;22;Vrouwelijk;Rechts;4;81;left;no;100;leftarrow;371;true;focus;yes;872967;Chrome;112.0;Windows;10;undefined;undefined;1536 x 864;1536 x 864
H038;22;Vrouwelijk;Rechts;4;82;right;yes;100;undefined;null;true;focus;yes;875013;Chrome;112.0;Windows;10;undefined;undefined;1536 x 864;1536 x 864
H038;22;Vrouwelijk;Rechts;4;83;left;no;150;leftarrow;403;true;focus;yes;876201;Chrome;112.0;Windows;10;undefined;undefined;1536 x 864;1536 x 864
H038;22;Vrouwelijk;Rechts;4;84;right;no;150;rightarrow;346;true;focus;yes;877338;Chrome;112.0;Windows;10;undefined;undefined;1536 x 864;1536 x 864
H038;22;Vrouwelijk;Rechts;4;85;left;yes;150;leftarrow;337;false;focus;yes;878457;Chrome;112.0;Windows;10;undefined;undefined;1536 x 864;1536 x 864
H038;22;Vrouwelijk;Rechts;4;86;right;no;100;rightarrow;388;true;focus;yes;879628;Chrome;112.0;Windows;10;undefined;undefined;1536 x 864;1536 x 864
H038;22;Vrouwelijk;Rechts;4;87;left;no;100;leftarrow;360;true;focus;yes;880750;Chrome;112.0;Windows;10;undefined;undefined;1536 x 864;1536 x 864
H038;22;Vrouwelijk;Rechts;4;88;right;no;100;rightarrow;372;true;focus;yes;881912;Chrome;112.0;Windows;10;undefined;undefined;1536 x 864;1536 x 864
H038;22;Vrouwelijk;Rechts;4;89;left;no;100;leftarrow;364;true;focus;yes;883065;Chrome;112.0;Windows;10;undefined;undefined;1536 x 864;1536 x 864
H038;22;Vrouwelijk;Rechts;4;90;left;no;100;rightarrow;269;false;focus;yes;884102;Chrome;112.0;Windows;10;undefined;undefined;1536 x 864;1536 x 864
H038;22;Vrouwelijk;Rechts;4;91;left;no;100;leftarrow;383;true;focus;yes;885266;Chrome;112.0;Windows;10;undefined;undefined;1536 x 864;1536 x 864
H038;22;Vrouwelijk;Rechts;4;92;right;no;100;rightarrow;355;true;focus;yes;886399;Chrome;112.0;Windows;10;undefined;undefined;1536 x 864;1536 x 864
H038;22;Vrouwelijk;Rechts;4;93;right;no;100;rightarrow;520;true;focus;yes;887694;Chrome;112.0;Windows;10;undefined;undefined;1536 x 864;1536 x 864
H038;22;Vrouwelijk;Rechts;4;94;right;yes;100;undefined;null;true;focus;yes;889734;Chrome;112.0;Windows;10;undefined;undefined;1536 x 864;1536 x 864
H038;22;Vrouwelijk;Rechts;4;95;left;yes;150;leftarrow;376;false;focus;yes;890880;Chrome;112.0;Windows;10;undefined;undefined;1536 x 864;1536 x 864
H038;22;Vrouwelijk;Rechts;4;96;right;no;100;rightarrow;390;true;focus;yes;892056;Chrome;112.0;Windows;10;undefined;undefined;1536 x 864;1536 x 864
H038;22;Vrouwelijk;Rechts;4;97;left;no;100;leftarrow;343;true;focus;yes;893189;Chrome;112.0;Windows;10;undefined;undefined;1536 x 864;1536 x 864
H038;22;Vrouwelijk;Rechts;4;98;left;no;100;rightarrow;312;false;focus;yes;894287;Chrome;112.0;Windows;10;undefined;undefined;1536 x 864;1536 x 864
H038;22;Vrouwelijk;Rechts;4;99;left;yes;100;leftarrow;380;false;focus;yes;895452;Chrome;112.0;Windows;10;undefined;undefined;1536 x 864;1536 x 864
H038;22;Vrouwelijk;Rechts;4;100;left;no;50;leftarrow;373;true;focus;yes;896604;Chrome;112.0;Windows;10;undefined;undefined;1536 x 864;1536 x 864
H038;22;Vrouwelijk;Rechts;4;101;right;no;50;leftarrow;376;false;focus;yes;897770;Chrome;112.0;Windows;10;undefined;undefined;1536 x 864;1536 x 864
H038;22;Vrouwelijk;Rechts;4;102;right;yes;50;rightarrow;396;false;focus;yes;898953;Chrome;112.0;Windows;10;undefined;undefined;1536 x 864;1536 x 864
H038;22;Vrouwelijk;Rechts;4;103;right;no;50;rightarrow;516;true;focus;yes;900249;Chrome;112.0;Windows;10;undefined;undefined;1536 x 864;1536 x 864
H038;22;Vrouwelijk;Rechts;4;104;right;no;50;rightarrow;403;true;focus;yes;901425;Chrome;112.0;Windows;10;undefined;undefined;1536 x 864;1536 x 864
H038;22;Vrouwelijk;Rechts;4;105;left;no;50;leftarrow;656;true;focus;yes;902859;Chrome;112.0;Windows;10;undefined;undefined;1536 x 864;1536 x 864
H038;22;Vrouwelijk;Rechts;4;106;right;no;50;rightarrow;350;true;focus;yes;903984;Chrome;112.0;Windows;10;undefined;undefined;1536 x 864;1536 x 864
H038;22;Vrouwelijk;Rechts;4;107;left;no;50;leftarrow;396;true;focus;yes;905153;Chrome;112.0;Windows;10;undefined;undefined;1536 x 864;1536 x 864
H038;22;Vrouwelijk;Rechts;4;108;right;no;50;rightarrow;436;true;focus;yes;906367;Chrome;112.0;Windows;10;undefined;undefined;1536 x 864;1536 x 864
H038;22;Vrouwelijk;Rechts;4;109;left;no;50;leftarrow;430;true;focus;yes;907574;Chrome;112.0;Windows;10;undefined;undefined;1536 x 864;1536 x 864
H038;22;Vrouwelijk;Rechts;4;110;left;yes;50;undefined;null;true;focus;yes;909612;Chrome;112.0;Windows;10;undefined;undefined;1536 x 864;1536 x 864
H038;22;Vrouwelijk;Rechts;4;111;right;no;100;rightarrow;426;true;focus;yes;910812;Chrome;112.0;Windows;10;undefined;undefined;1536 x 864;1536 x 864
H038;22;Vrouwelijk;Rechts;4;112;right;yes;100;undefined;null;true;focus;yes;912844;Chrome;112.0;Windows;10;undefined;undefined;1536 x 864;1536 x 864
H038;22;Vrouwelijk;Rechts;4;113;right;no;150;rightarrow;402;true;focus;yes;914031;Chrome;112.0;Windows;10;undefined;undefined;1536 x 864;1536 x 864
H038;22;Vrouwelijk;Rechts;4;114;left;yes;150;leftarrow;394;false;focus;yes;915202;Chrome;112.0;Windows;10;undefined;undefined;1536 x 864;1536 x 864
H038;22;Vrouwelijk;Rechts;4;115;right;no;100;rightarrow;460;true;focus;yes;916425;Chrome;112.0;Windows;10;undefined;undefined;1536 x 864;1536 x 864
H038;22;Vrouwelijk;Rechts;4;116;left;no;100;leftarrow;329;true;focus;yes;917524;Chrome;112.0;Windows;10;undefined;undefined;1536 x 864;1536 x 864
H038;22;Vrouwelijk;Rechts;4;117;right;no;100;rightarrow;308;true;focus;yes;918595;Chrome;112.0;Windows;10;undefined;undefined;1536 x 864;1536 x 864
H038;22;Vrouwelijk;Rechts;4;118;right;yes;100;undefined;null;true;focus;yes;920627;Chrome;112.0;Windows;10;undefined;undefined;1536 x 864;1536 x 864
H038;22;Vrouwelijk;Rechts;4;119;left;no;150;leftarrow;338;true;focus;yes;921739;Chrome;112.0;Windows;10;undefined;undefined;1536 x 864;1536 x 864
H038;22;Vrouwelijk;Rechts;4;120;left;no;150;leftarrow;373;true;focus;yes;922878;Chrome;112.0;Windows;10;undefined;undefined;1536 x 864;1536 x 864
H038;22;Vrouwelijk;Rechts;4;121;right;no;150;rightarrow;444;true;focus;yes;924109;Chrome;112.0;Windows;10;undefined;undefined;1536 x 864;1536 x 864
H038;22;Vrouwelijk;Rechts;4;122;right;no;150;rightarrow;378;true;focus;yes;925255;Chrome;112.0;Windows;10;undefined;undefined;1536 x 864;1536 x 864
H038;22;Vrouwelijk;Rechts;4;123;left;no;150;leftarrow;544;true;focus;yes;926575;Chrome;112.0;Windows;10;undefined;undefined;1536 x 864;1536 x 864
H038;22;Vrouwelijk;Rechts;4;124;left;yes;150;leftarrow;399;false;focus;yes;927749;Chrome;112.0;Windows;10;undefined;undefined;1536 x 864;1536 x 864
H038;22;Vrouwelijk;Rechts;4;125;left;no;100;leftarrow;346;true;focus;yes;928878;Chrome;112.0;Windows;10;undefined;undefined;1536 x 864;1536 x 864
H038;22;Vrouwelijk;Rechts;4;126;right;yes;100;undefined;null;true;focus;yes;930918;Chrome;112.0;Windows;10;undefined;undefined;1536 x 864;1536 x 864
H038;22;Vrouwelijk;Rechts;4;127;right;no;150;rightarrow;443;true;focus;yes;932148;Chrome;112.0;Windows;10;undefined;undefined;1536 x 864;1536 x 864
H038;22;Vrouwelijk;Rechts;4;128;left;no;150;leftarrow;389;true;focus;yes;933323;Chrome;112.0;Windows;10;undefined;undefined;1536 x 864;1536 x 864
H038;22;Vrouwelijk;Rechts;5;1;right;no;150;rightarrow;384;true;focus;yes;974563;Chrome;112.0;Windows;10;undefined;undefined;1536 x 864;1536 x 864
H038;22;Vrouwelijk;Rechts;5;2;left;no;150;leftarrow;304;true;focus;yes;975643;Chrome;112.0;Windows;10;undefined;undefined;1536 x 864;1536 x 864
H038;22;Vrouwelijk;Rechts;5;3;left;no;150;leftarrow;344;true;focus;yes;976762;Chrome;112.0;Windows;10;undefined;undefined;1536 x 864;1536 x 864
H038;22;Vrouwelijk;Rechts;5;4;left;yes;150;leftarrow;281;false;focus;yes;977829;Chrome;112.0;Windows;10;undefined;undefined;1536 x 864;1536 x 864
H038;22;Vrouwelijk;Rechts;5;5;right;no;100;rightarrow;540;true;focus;yes;979157;Chrome;112.0;Windows;10;undefined;undefined;1536 x 864;1536 x 864
H038;22;Vrouwelijk;Rechts;5;6;right;no;100;rightarrow;511;true;focus;yes;980435;Chrome;112.0;Windows;10;undefined;undefined;1536 x 864;1536 x 864
H038;22;Vrouwelijk;Rechts;5;7;right;yes;100;rightarrow;399;false;focus;yes;981613;Chrome;112.0;Windows;10;undefined;undefined;1536 x 864;1536 x 864
H038;22;Vrouwelijk;Rechts;5;8;left;no;50;leftarrow;325;true;focus;yes;982717;Chrome;112.0;Windows;10;undefined;undefined;1536 x 864;1536 x 864
H038;22;Vrouwelijk;Rechts;5;9;left;yes;50;undefined;null;true;focus;yes;984758;Chrome;112.0;Windows;10;undefined;undefined;1536 x 864;1536 x 864
H038;22;Vrouwelijk;Rechts;5;10;left;no;100;leftarrow;351;true;focus;yes;985893;Chrome;112.0;Windows;10;undefined;undefined;1536 x 864;1536 x 864
H038;22;Vrouwelijk;Rechts;5;11;right;no;100;leftarrow;260;false;focus;yes;986930;Chrome;112.0;Windows;10;undefined;undefined;1536 x 864;1536 x 864
H038;22;Vrouwelijk;Rechts;5;12;left;no;100;leftarrow;313;true;focus;yes;988022;Chrome;112.0;Windows;10;undefined;undefined;1536 x 864;1536 x 864
H038;22;Vrouwelijk;Rechts;5;13;right;no;100;rightarrow;341;true;focus;yes;989152;Chrome;112.0;Windows;10;undefined;undefined;1536 x 864;1536 x 864
H038;22;Vrouwelijk;Rechts;5;14;right;no;100;rightarrow;313;true;focus;yes;990241;Chrome;112.0;Windows;10;undefined;undefined;1536 x 864;1536 x 864
H038;22;Vrouwelijk;Rechts;5;15;right;yes;100;rightarrow;376;false;focus;yes;991378;Chrome;112.0;Windows;10;undefined;undefined;1536 x 864;1536 x 864
H038;22;Vrouwelijk;Rechts;5;16;left;no;50;leftarrow;386;true;focus;yes;992540;Chrome;112.0;Windows;10;undefined;undefined;1536 x 864;1536 x 864
H038;22;Vrouwelijk;Rechts;5;17;left;no;50;leftarrow;380;true;focus;yes;993697;Chrome;112.0;Windows;10;undefined;undefined;1536 x 864;1536 x 864
H038;22;Vrouwelijk;Rechts;5;18;left;no;50;leftarrow;724;true;focus;yes;995194;Chrome;112.0;Windows;10;undefined;undefined;1536 x 864;1536 x 864
H038;22;Vrouwelijk;Rechts;5;19;right;no;50;rightarrow;453;true;focus;yes;996428;Chrome;112.0;Windows;10;undefined;undefined;1536 x 864;1536 x 864
H038;22;Vrouwelijk;Rechts;5;20;right;yes;50;undefined;null;true;focus;yes;998469;Chrome;112.0;Windows;10;undefined;undefined;1536 x 864;1536 x 864
H038;22;Vrouwelijk;Rechts;5;21;left;no;100;leftarrow;409;true;focus;yes;999654;Chrome;112.0;Windows;10;undefined;undefined;1536 x 864;1536 x 864
H038;22;Vrouwelijk;Rechts;5;22;right;no;100;rightarrow;373;true;focus;yes;1000812;Chrome;112.0;Windows;10;undefined;undefined;1536 x 864;1536 x 864
H038;22;Vrouwelijk;Rechts;5;23;left;yes;100;leftarrow;374;false;focus;yes;1001962;Chrome;112.0;Windows;10;undefined;undefined;1536 x 864;1536 x 864
H038;22;Vrouwelijk;Rechts;5;24;right;no;50;rightarrow;406;true;focus;yes;1003146;Chrome;112.0;Windows;10;undefined;undefined;1536 x 864;1536 x 864
H038;22;Vrouwelijk;Rechts;5;25;right;no;50;rightarrow;447;true;focus;yes;1004369;Chrome;112.0;Windows;10;undefined;undefined;1536 x 864;1536 x 864
H038;22;Vrouwelijk;Rechts;5;26;right;no;50;rightarrow;431;true;focus;yes;1005583;Chrome;112.0;Windows;10;undefined;undefined;1536 x 864;1536 x 864
H038;22;Vrouwelijk;Rechts;5;27;right;yes;50;undefined;null;true;focus;yes;1007614;Chrome;112.0;Windows;10;undefined;undefined;1536 x 864;1536 x 864
H038;22;Vrouwelijk;Rechts;5;28;left;yes;100;undefined;null;true;focus;yes;1009659;Chrome;112.0;Windows;10;undefined;undefined;1536 x 864;1536 x 864
H038;22;Vrouwelijk;Rechts;5;29;left;no;150;leftarrow;363;true;focus;yes;1010798;Chrome;112.0;Windows;10;undefined;undefined;1536 x 864;1536 x 864
H038;22;Vrouwelijk;Rechts;5;30;left;no;150;leftarrow;368;true;focus;yes;1011941;Chrome;112.0;Windows;10;undefined;undefined;1536 x 864;1536 x 864
H038;22;Vrouwelijk;Rechts;5;31;left;no;150;leftarrow;395;true;focus;yes;1013103;Chrome;112.0;Windows;10;undefined;undefined;1536 x 864;1536 x 864
H038;22;Vrouwelijk;Rechts;5;32;right;no;150;rightarrow;709;true;focus;yes;1014596;Chrome;112.0;Windows;10;undefined;undefined;1536 x 864;1536 x 864
H038;22;Vrouwelijk;Rechts;5;33;right;no;150;rightarrow;361;true;focus;yes;1015724;Chrome;112.0;Windows;10;undefined;undefined;1536 x 864;1536 x 864
H038;22;Vrouwelijk;Rechts;5;34;right;no;150;rightarrow;305;true;focus;yes;1016818;Chrome;112.0;Windows;10;undefined;undefined;1536 x 864;1536 x 864
H038;22;Vrouwelijk;Rechts;5;35;left;no;150;leftarrow;354;true;focus;yes;1017949;Chrome;112.0;Windows;10;undefined;undefined;1536 x 864;1536 x 864
H038;22;Vrouwelijk;Rechts;5;36;right;yes;150;undefined;null;true;focus;yes;1019981;Chrome;112.0;Windows;10;undefined;undefined;1536 x 864;1536 x 864
H038;22;Vrouwelijk;Rechts;5;37;left;no;200;leftarrow;294;true;focus;yes;1021048;Chrome;112.0;Windows;10;undefined;undefined;1536 x 864;1536 x 864
H038;22;Vrouwelijk;Rechts;5;38;left;yes;200;leftarrow;330;false;focus;yes;1022152;Chrome;112.0;Windows;10;undefined;undefined;1536 x 864;1536 x 864
H038;22;Vrouwelijk;Rechts;5;39;right;no;150;rightarrow;464;true;focus;yes;1023402;Chrome;112.0;Windows;10;undefined;undefined;1536 x 864;1536 x 864
H038;22;Vrouwelijk;Rechts;5;40;left;no;150;leftarrow;363;true;focus;yes;1024548;Chrome;112.0;Windows;10;undefined;undefined;1536 x 864;1536 x 864
H038;22;Vrouwelijk;Rechts;5;41;left;no;150;leftarrow;408;true;focus;yes;1025727;Chrome;112.0;Windows;10;undefined;undefined;1536 x 864;1536 x 864
H038;22;Vrouwelijk;Rechts;5;42;right;yes;150;rightarrow;373;false;focus;yes;1026883;Chrome;112.0;Windows;10;undefined;undefined;1536 x 864;1536 x 864
H038;22;Vrouwelijk;Rechts;5;43;left;no;100;leftarrow;372;true;focus;yes;1028035;Chrome;112.0;Windows;10;undefined;undefined;1536 x 864;1536 x 864
H038;22;Vrouwelijk;Rechts;5;44;right;no;100;rightarrow;601;true;focus;yes;1029426;Chrome;112.0;Windows;10;undefined;undefined;1536 x 864;1536 x 864
H038;22;Vrouwelijk;Rechts;5;45;left;no;100;leftarrow;335;true;focus;yes;1030530;Chrome;112.0;Windows;10;undefined;undefined;1536 x 864;1536 x 864
H038;22;Vrouwelijk;Rechts;5;46;right;no;100;rightarrow;398;true;focus;yes;1031712;Chrome;112.0;Windows;10;undefined;undefined;1536 x 864;1536 x 864
H038;22;Vrouwelijk;Rechts;5;47;left;yes;100;leftarrow;325;false;focus;yes;1032820;Chrome;112.0;Windows;10;undefined;undefined;1536 x 864;1536 x 864
H038;22;Vrouwelijk;Rechts;5;48;right;no;50;rightarrow;382;true;focus;yes;1033992;Chrome;112.0;Windows;10;undefined;undefined;1536 x 864;1536 x 864
H038;22;Vrouwelijk;Rechts;5;49;left;no;50;leftarrow;349;true;focus;yes;1035122;Chrome;112.0;Windows;10;undefined;undefined;1536 x 864;1536 x 864
H038;22;Vrouwelijk;Rechts;5;50;left;yes;50;undefined;null;true;focus;yes;1037149;Chrome;112.0;Windows;10;undefined;undefined;1536 x 864;1536 x 864
H038;22;Vrouwelijk;Rechts;5;51;right;no;100;rightarrow;360;true;focus;yes;1038282;Chrome;112.0;Windows;10;undefined;undefined;1536 x 864;1536 x 864
H038;22;Vrouwelijk;Rechts;5;52;left;no;100;leftarrow;585;true;focus;yes;1039656;Chrome;112.0;Windows;10;undefined;undefined;1536 x 864;1536 x 864
H038;22;Vrouwelijk;Rechts;5;53;right;yes;100;undefined;null;true;focus;yes;1041686;Chrome;112.0;Windows;10;undefined;undefined;1536 x 864;1536 x 864
H038;22;Vrouwelijk;Rechts;5;54;left;no;150;leftarrow;354;true;focus;yes;1042823;Chrome;112.0;Windows;10;undefined;undefined;1536 x 864;1536 x 864
H038;22;Vrouwelijk;Rechts;5;55;right;no;150;rightarrow;370;true;focus;yes;1043972;Chrome;112.0;Windows;10;undefined;undefined;1536 x 864;1536 x 864
H038;22;Vrouwelijk;Rechts;5;56;right;no;150;rightarrow;530;true;focus;yes;1045289;Chrome;112.0;Windows;10;undefined;undefined;1536 x 864;1536 x 864
H038;22;Vrouwelijk;Rechts;5;57;right;no;150;rightarrow;427;true;focus;yes;1046497;Chrome;112.0;Windows;10;undefined;undefined;1536 x 864;1536 x 864
H038;22;Vrouwelijk;Rechts;5;58;left;no;150;leftarrow;391;true;focus;yes;1047668;Chrome;112.0;Windows;10;undefined;undefined;1536 x 864;1536 x 864
H038;22;Vrouwelijk;Rechts;5;59;right;no;150;rightarrow;615;true;focus;yes;1049063;Chrome;112.0;Windows;10;undefined;undefined;1536 x 864;1536 x 864
H038;22;Vrouwelijk;Rechts;5;60;left;no;150;leftarrow;315;true;focus;yes;1050148;Chrome;112.0;Windows;10;undefined;undefined;1536 x 864;1536 x 864
H038;22;Vrouwelijk;Rechts;5;61;right;no;150;rightarrow;367;true;focus;yes;1051286;Chrome;112.0;Windows;10;undefined;undefined;1536 x 864;1536 x 864
H038;22;Vrouwelijk;Rechts;5;62;right;yes;150;rightarrow;312;false;focus;yes;1052384;Chrome;112.0;Windows;10;undefined;undefined;1536 x 864;1536 x 864
H038;22;Vrouwelijk;Rechts;5;63;left;no;100;leftarrow;279;true;focus;yes;1053446;Chrome;112.0;Windows;10;undefined;undefined;1536 x 864;1536 x 864
H038;22;Vrouwelijk;Rechts;5;64;left;yes;100;undefined;null;true;focus;yes;1055486;Chrome;112.0;Windows;10;undefined;undefined;1536 x 864;1536 x 864
H038;22;Vrouwelijk;Rechts;5;65;left;no;150;leftarrow;345;true;focus;yes;1056613;Chrome;112.0;Windows;10;undefined;undefined;1536 x 864;1536 x 864
H038;22;Vrouwelijk;Rechts;5;66;right;yes;150;rightarrow;378;false;focus;yes;1057766;Chrome;112.0;Windows;10;undefined;undefined;1536 x 864;1536 x 864
H038;22;Vrouwelijk;Rechts;5;67;right;no;100;rightarrow;373;true;focus;yes;1058931;Chrome;112.0;Windows;10;undefined;undefined;1536 x 864;1536 x 864
H038;22;Vrouwelijk;Rechts;5;68;right;no;100;rightarrow;390;true;focus;yes;1060101;Chrome;112.0;Windows;10;undefined;undefined;1536 x 864;1536 x 864
H038;22;Vrouwelijk;Rechts;5;69;left;no;100;leftarrow;611;true;focus;yes;1061493;Chrome;112.0;Windows;10;undefined;undefined;1536 x 864;1536 x 864
H038;22;Vrouwelijk;Rechts;5;70;left;no;100;leftarrow;361;true;focus;yes;1062640;Chrome;112.0;Windows;10;undefined;undefined;1536 x 864;1536 x 864
H038;22;Vrouwelijk;Rechts;5;71;right;no;100;rightarrow;395;true;focus;yes;1063810;Chrome;112.0;Windows;10;undefined;undefined;1536 x 864;1536 x 864
H038;22;Vrouwelijk;Rechts;5;72;left;yes;100;leftarrow;362;false;focus;yes;1064960;Chrome;112.0;Windows;10;undefined;undefined;1536 x 864;1536 x 864
H038;22;Vrouwelijk;Rechts;5;73;right;yes;50;undefined;null;true;focus;yes;1066995;Chrome;112.0;Windows;10;undefined;undefined;1536 x 864;1536 x 864
H038;22;Vrouwelijk;Rechts;5;74;left;no;100;leftarrow;340;true;focus;yes;1068108;Chrome;112.0;Windows;10;undefined;undefined;1536 x 864;1536 x 864
H038;22;Vrouwelijk;Rechts;5;75;left;no;100;leftarrow;353;true;focus;yes;1069245;Chrome;112.0;Windows;10;undefined;undefined;1536 x 864;1536 x 864
H038;22;Vrouwelijk;Rechts;5;76;right;no;100;rightarrow;386;true;focus;yes;1070422;Chrome;112.0;Windows;10;undefined;undefined;1536 x 864;1536 x 864
H038;22;Vrouwelijk;Rechts;5;77;right;no;100;rightarrow;404;true;focus;yes;1071614;Chrome;112.0;Windows;10;undefined;undefined;1536 x 864;1536 x 864
H038;22;Vrouwelijk;Rechts;5;78;left;no;100;leftarrow;356;true;focus;yes;1072759;Chrome;112.0;Windows;10;undefined;undefined;1536 x 864;1536 x 864
H038;22;Vrouwelijk;Rechts;5;79;left;yes;100;leftarrow;334;false;focus;yes;1073876;Chrome;112.0;Windows;10;undefined;undefined;1536 x 864;1536 x 864
H038;22;Vrouwelijk;Rechts;5;80;right;no;50;rightarrow;336;true;focus;yes;1074988;Chrome;112.0;Windows;10;undefined;undefined;1536 x 864;1536 x 864
H038;22;Vrouwelijk;Rechts;5;81;right;no;50;leftarrow;289;false;focus;yes;1076038;Chrome;112.0;Windows;10;undefined;undefined;1536 x 864;1536 x 864
H038;22;Vrouwelijk;Rechts;5;82;left;no;50;leftarrow;347;true;focus;yes;1077166;Chrome;112.0;Windows;10;undefined;undefined;1536 x 864;1536 x 864
H038;22;Vrouwelijk;Rechts;5;83;right;no;50;rightarrow;344;true;focus;yes;1078288;Chrome;112.0;Windows;10;undefined;undefined;1536 x 864;1536 x 864
H038;22;Vrouwelijk;Rechts;5;84;left;no;50;leftarrow;338;true;focus;yes;1079406;Chrome;112.0;Windows;10;undefined;undefined;1536 x 864;1536 x 864
H038;22;Vrouwelijk;Rechts;5;85;left;yes;50;undefined;null;true;focus;yes;1081454;Chrome;112.0;Windows;10;undefined;undefined;1536 x 864;1536 x 864
H038;22;Vrouwelijk;Rechts;5;86;right;no;100;rightarrow;317;true;focus;yes;1082558;Chrome;112.0;Windows;10;undefined;undefined;1536 x 864;1536 x 864
H038;22;Vrouwelijk;Rechts;5;87;right;yes;100;rightarrow;375;false;focus;yes;1083709;Chrome;112.0;Windows;10;undefined;undefined;1536 x 864;1536 x 864
H038;22;Vrouwelijk;Rechts;5;88;left;no;50;leftarrow;354;true;focus;yes;1084841;Chrome;112.0;Windows;10;undefined;undefined;1536 x 864;1536 x 864
H038;22;Vrouwelijk;Rechts;5;89;left;yes;50;undefined;null;true;focus;yes;1086890;Chrome;112.0;Windows;10;undefined;undefined;1536 x 864;1536 x 864
H038;22;Vrouwelijk;Rechts;5;90;right;yes;100;rightarrow;379;false;focus;yes;1088056;Chrome;112.0;Windows;10;undefined;undefined;1536 x 864;1536 x 864
H038;22;Vrouwelijk;Rechts;5;91;left;no;50;leftarrow;367;true;focus;yes;1089215;Chrome;112.0;Windows;10;undefined;undefined;1536 x 864;1536 x 864
H038;22;Vrouwelijk;Rechts;5;92;right;no;50;rightarrow;374;true;focus;yes;1090374;Chrome;112.0;Windows;10;undefined;undefined;1536 x 864;1536 x 864
H038;22;Vrouwelijk;Rechts;5;93;right;no;50;rightarrow;552;true;focus;yes;1091710;Chrome;112.0;Windows;10;undefined;undefined;1536 x 864;1536 x 864
H038;22;Vrouwelijk;Rechts;5;94;right;no;50;rightarrow;466;true;focus;yes;1092951;Chrome;112.0;Windows;10;undefined;undefined;1536 x 864;1536 x 864
H038;22;Vrouwelijk;Rechts;5;95;left;no;50;leftarrow;391;true;focus;yes;1094126;Chrome;112.0;Windows;10;undefined;undefined;1536 x 864;1536 x 864
H038;22;Vrouwelijk;Rechts;5;96;left;no;50;leftarrow;381;true;focus;yes;1095286;Chrome;112.0;Windows;10;undefined;undefined;1536 x 864;1536 x 864
H038;22;Vrouwelijk;Rechts;5;97;right;no;50;rightarrow;457;true;focus;yes;1096535;Chrome;112.0;Windows;10;undefined;undefined;1536 x 864;1536 x 864
H038;22;Vrouwelijk;Rechts;5;98;right;no;50;rightarrow;394;true;focus;yes;1097708;Chrome;112.0;Windows;10;undefined;undefined;1536 x 864;1536 x 864
H038;22;Vrouwelijk;Rechts;5;99;left;yes;50;undefined;null;true;focus;yes;1099741;Chrome;112.0;Windows;10;undefined;undefined;1536 x 864;1536 x 864
H038;22;Vrouwelijk;Rechts;5;100;right;no;100;rightarrow;409;true;focus;yes;1100931;Chrome;112.0;Windows;10;undefined;undefined;1536 x 864;1536 x 864
H038;22;Vrouwelijk;Rechts;5;101;left;no;100;leftarrow;382;true;focus;yes;1102105;Chrome;112.0;Windows;10;undefined;undefined;1536 x 864;1536 x 864
H038;22;Vrouwelijk;Rechts;5;102;left;no;100;leftarrow;475;true;focus;yes;1103358;Chrome;112.0;Windows;10;undefined;undefined;1536 x 864;1536 x 864
H038;22;Vrouwelijk;Rechts;5;103;right;yes;100;undefined;null;true;focus;yes;1105411;Chrome;112.0;Windows;10;undefined;undefined;1536 x 864;1536 x 864
H038;22;Vrouwelijk;Rechts;5;104;left;no;150;leftarrow;314;true;focus;yes;1106508;Chrome;112.0;Windows;10;undefined;undefined;1536 x 864;1536 x 864
H038;22;Vrouwelijk;Rechts;5;105;right;no;150;rightarrow;354;true;focus;yes;1107638;Chrome;112.0;Windows;10;undefined;undefined;1536 x 864;1536 x 864
H038;22;Vrouwelijk;Rechts;5;106;left;no;150;leftarrow;330;true;focus;yes;1108756;Chrome;112.0;Windows;10;undefined;undefined;1536 x 864;1536 x 864
H038;22;Vrouwelijk;Rechts;5;107;right;no;150;rightarrow;459;true;focus;yes;1109998;Chrome;112.0;Windows;10;undefined;undefined;1536 x 864;1536 x 864
H038;22;Vrouwelijk;Rechts;5;108;right;yes;150;rightarrow;329;false;focus;yes;1111104;Chrome;112.0;Windows;10;undefined;undefined;1536 x 864;1536 x 864
H038;22;Vrouwelijk;Rechts;5;109;right;no;100;rightarrow;335;true;focus;yes;1112227;Chrome;112.0;Windows;10;undefined;undefined;1536 x 864;1536 x 864
H038;22;Vrouwelijk;Rechts;5;110;left;no;100;leftarrow;321;true;focus;yes;1113325;Chrome;112.0;Windows;10;undefined;undefined;1536 x 864;1536 x 864
H038;22;Vrouwelijk;Rechts;5;111;left;no;100;leftarrow;315;true;focus;yes;1114428;Chrome;112.0;Windows;10;undefined;undefined;1536 x 864;1536 x 864
H038;22;Vrouwelijk;Rechts;5;112;left;yes;100;leftarrow;314;false;focus;yes;1115520;Chrome;112.0;Windows;10;undefined;undefined;1536 x 864;1536 x 864
H038;22;Vrouwelijk;Rechts;5;113;right;yes;50;undefined;null;true;focus;yes;1117562;Chrome;112.0;Windows;10;undefined;undefined;1536 x 864;1536 x 864
H038;22;Vrouwelijk;Rechts;5;114;right;no;100;rightarrow;344;true;focus;yes;1118690;Chrome;112.0;Windows;10;undefined;undefined;1536 x 864;1536 x 864
H038;22;Vrouwelijk;Rechts;5;115;left;yes;100;leftarrow;402;false;focus;yes;1119869;Chrome;112.0;Windows;10;undefined;undefined;1536 x 864;1536 x 864
H038;22;Vrouwelijk;Rechts;5;116;left;no;50;leftarrow;403;true;focus;yes;1121057;Chrome;112.0;Windows;10;undefined;undefined;1536 x 864;1536 x 864
H038;22;Vrouwelijk;Rechts;5;117;left;no;50;leftarrow;346;true;focus;yes;1122188;Chrome;112.0;Windows;10;undefined;undefined;1536 x 864;1536 x 864
H038;22;Vrouwelijk;Rechts;5;118;right;no;50;rightarrow;352;true;focus;yes;1123316;Chrome;112.0;Windows;10;undefined;undefined;1536 x 864;1536 x 864
H038;22;Vrouwelijk;Rechts;5;119;left;no;50;leftarrow;344;true;focus;yes;1124449;Chrome;112.0;Windows;10;undefined;undefined;1536 x 864;1536 x 864
H038;22;Vrouwelijk;Rechts;5;120;right;no;50;rightarrow;324;true;focus;yes;1125552;Chrome;112.0;Windows;10;undefined;undefined;1536 x 864;1536 x 864
H038;22;Vrouwelijk;Rechts;5;121;right;yes;50;undefined;null;true;focus;yes;1127593;Chrome;112.0;Windows;10;undefined;undefined;1536 x 864;1536 x 864
H038;22;Vrouwelijk;Rechts;5;122;right;no;100;rightarrow;382;true;focus;yes;1128762;Chrome;112.0;Windows;10;undefined;undefined;1536 x 864;1536 x 864
H038;22;Vrouwelijk;Rechts;5;123;left;yes;100;undefined;null;true;focus;yes;1130809;Chrome;112.0;Windows;10;undefined;undefined;1536 x 864;1536 x 864
H038;22;Vrouwelijk;Rechts;5;127;left;no;150;leftarrow;339;true;focus;yes;1135409;Chrome;112.0;Windows;10;undefined;undefined;1536 x 864;1536 x 864
H038;22;Vrouwelijk;Rechts;5;124;left;no;150;leftarrow;358;true;focus;yes;1131947;Chrome;112.0;Windows;10;undefined;undefined;1536 x 864;1536 x 864
H038;22;Vrouwelijk;Rechts;5;126;right;no;150;rightarrow;400;true;focus;yes;1134286;Chrome;112.0;Windows;10;undefined;undefined;1536 x 864;1536 x 864
H038;22;Vrouwelijk;Rechts;5;128;right;no;150;rightarrow;333;true;focus;yes;1136526;Chrome;112.0;Windows;10;undefined;undefined;1536 x 864;1536 x 864
H038;22;Vrouwelijk;Rechts;5;125;left;no;150;leftarrow;386;true;focus;yes;1133111;Chrome;112.0;Windows;10;undefined;undefined;1536 x 864;1536 x 864
H038;22;Vrouwelijk;Rechts;6;1;right;yes;150;rightarrow;502;false;focus;yes;1177872;Chrome;112.0;Windows;10;undefined;undefined;1536 x 864;1536 x 864
H038;22;Vrouwelijk;Rechts;6;2;left;no;100;leftarrow;335;true;focus;yes;1178982;Chrome;112.0;Windows;10;undefined;undefined;1536 x 864;1536 x 864
H038;22;Vrouwelijk;Rechts;6;3;right;no;100;leftarrow;264;false;focus;yes;1180035;Chrome;112.0;Windows;10;undefined;undefined;1536 x 864;1536 x 864
H038;22;Vrouwelijk;Rechts;6;4;left;no;100;leftarrow;284;true;focus;yes;1181098;Chrome;112.0;Windows;10;undefined;undefined;1536 x 864;1536 x 864
H038;22;Vrouwelijk;Rechts;6;5;left;no;100;leftarrow;300;true;focus;yes;1182178;Chrome;112.0;Windows;10;undefined;undefined;1536 x 864;1536 x 864
H038;22;Vrouwelijk;Rechts;6;6;right;no;100;leftarrow;302;false;focus;yes;1183258;Chrome;112.0;Windows;10;undefined;undefined;1536 x 864;1536 x 864
H038;22;Vrouwelijk;Rechts;6;7;left;yes;100;leftarrow;253;false;focus;yes;1184286;Chrome;112.0;Windows;10;undefined;undefined;1536 x 864;1536 x 864
H038;22;Vrouwelijk;Rechts;6;8;right;no;50;rightarrow;381;true;focus;yes;1185444;Chrome;112.0;Windows;10;undefined;undefined;1536 x 864;1536 x 864
H038;22;Vrouwelijk;Rechts;6;9;left;no;50;leftarrow;302;true;focus;yes;1186535;Chrome;112.0;Windows;10;undefined;undefined;1536 x 864;1536 x 864
H038;22;Vrouwelijk;Rechts;6;10;right;yes;50;rightarrow;408;false;focus;yes;1187723;Chrome;112.0;Windows;10;undefined;undefined;1536 x 864;1536 x 864
H038;22;Vrouwelijk;Rechts;6;11;left;no;50;leftarrow;274;true;focus;yes;1188777;Chrome;112.0;Windows;10;undefined;undefined;1536 x 864;1536 x 864
H038;22;Vrouwelijk;Rechts;6;12;right;no;50;rightarrow;284;true;focus;yes;1189847;Chrome;112.0;Windows;10;undefined;undefined;1536 x 864;1536 x 864
H038;22;Vrouwelijk;Rechts;6;13;left;no;50;leftarrow;389;true;focus;yes;1191015;Chrome;112.0;Windows;10;undefined;undefined;1536 x 864;1536 x 864
H038;22;Vrouwelijk;Rechts;6;14;right;no;50;leftarrow;294;false;focus;yes;1192087;Chrome;112.0;Windows;10;undefined;undefined;1536 x 864;1536 x 864
H038;22;Vrouwelijk;Rechts;6;15;right;no;50;rightarrow;415;true;focus;yes;1193288;Chrome;112.0;Windows;10;undefined;undefined;1536 x 864;1536 x 864
H038;22;Vrouwelijk;Rechts;6;16;left;yes;50;leftarrow;319;false;focus;yes;1194394;Chrome;112.0;Windows;10;undefined;undefined;1536 x 864;1536 x 864
H038;22;Vrouwelijk;Rechts;6;17;right;yes;50;rightarrow;325;false;focus;yes;1195502;Chrome;112.0;Windows;10;undefined;undefined;1536 x 864;1536 x 864
H038;22;Vrouwelijk;Rechts;6;18;right;no;50;rightarrow;559;true;focus;yes;1196847;Chrome;112.0;Windows;10;undefined;undefined;1536 x 864;1536 x 864
H038;22;Vrouwelijk;Rechts;6;19;left;no;50;leftarrow;436;true;focus;yes;1198059;Chrome;112.0;Windows;10;undefined;undefined;1536 x 864;1536 x 864
H038;22;Vrouwelijk;Rechts;6;20;left;yes;50;undefined;null;true;focus;yes;1200092;Chrome;112.0;Windows;10;undefined;undefined;1536 x 864;1536 x 864
H038;22;Vrouwelijk;Rechts;6;21;right;no;100;rightarrow;334;true;focus;yes;1201209;Chrome;112.0;Windows;10;undefined;undefined;1536 x 864;1536 x 864
H038;22;Vrouwelijk;Rechts;6;22;left;no;100;leftarrow;356;true;focus;yes;1202344;Chrome;112.0;Windows;10;undefined;undefined;1536 x 864;1536 x 864
H038;22;Vrouwelijk;Rechts;6;23;right;no;100;rightarrow;353;true;focus;yes;1203484;Chrome;112.0;Windows;10;undefined;undefined;1536 x 864;1536 x 864
H038;22;Vrouwelijk;Rechts;6;24;left;no;100;leftarrow;370;true;focus;yes;1204645;Chrome;112.0;Windows;10;undefined;undefined;1536 x 864;1536 x 864
H038;22;Vrouwelijk;Rechts;6;25;left;yes;100;leftarrow;376;false;focus;yes;1205810;Chrome;112.0;Windows;10;undefined;undefined;1536 x 864;1536 x 864
H038;22;Vrouwelijk;Rechts;6;26;left;no;50;leftarrow;337;true;focus;yes;1206925;Chrome;112.0;Windows;10;undefined;undefined;1536 x 864;1536 x 864
H038;22;Vrouwelijk;Rechts;6;27;right;yes;50;rightarrow;380;false;focus;yes;1208084;Chrome;112.0;Windows;10;undefined;undefined;1536 x 864;1536 x 864
H038;22;Vrouwelijk;Rechts;6;28;left;no;50;leftarrow;316;true;focus;yes;1209174;Chrome;112.0;Windows;10;undefined;undefined;1536 x 864;1536 x 864
