participantID;age;gender;handedness;block_i;trial_i;stim;signal;SSD;response;rt;correct;focus;Fullscreen;time_elapsed;browser_name;browser_version;os_name;os_version;tablet;mobile;screen_resolution;window_resolution
H024;25;Mannelijk;Rechts;0;1;right;yes;200;rightarrow;504;false;focus;yes;149952;Chrome;112.0;Windows;10;undefined;undefined;1920 x 1200;1920 x 1200
H024;25;Mannelijk;Rechts;0;2;left;no;150;leftarrow;440;true;focus;yes;151900;Chrome;112.0;Windows;10;undefined;undefined;1920 x 1200;1920 x 1200
H024;25;Mannelijk;Rechts;0;3;left;yes;150;undefined;null;true;focus;yes;154657;Chrome;112.0;Windows;10;undefined;undefined;1920 x 1200;1920 x 1200
H024;25;Mannelijk;Rechts;0;4;right;no;200;rightarrow;390;true;focus;yes;156553;Chrome;112.0;Windows;10;undefined;undefined;1920 x 1200;1920 x 1200
H024;25;Mannelijk;Rechts;0;5;right;no;200;rightarrow;431;true;focus;yes;158490;Chrome;112.0;Windows;10;undefined;undefined;1920 x 1200;1920 x 1200
H024;25;Mannelijk;Rechts;0;6;left;no;200;leftarrow;398;true;focus;yes;160393;Chrome;112.0;Windows;10;undefined;undefined;1920 x 1200;1920 x 1200
H024;25;Mannelijk;Rechts;0;7;left;no;200;leftarrow;454;true;focus;yes;162352;Chrome;112.0;Windows;10;undefined;undefined;1920 x 1200;1920 x 1200
H024;25;Mannelijk;Rechts;0;8;right;no;200;rightarrow;368;true;focus;yes;164225;Chrome;112.0;Windows;10;undefined;undefined;1920 x 1200;1920 x 1200
H024;25;Mannelijk;Rechts;1;1;left;no;200;leftarrow;404;true;focus;yes;185787;Chrome;112.0;Windows;10;undefined;undefined;1920 x 1200;1920 x 1200
H024;25;Mannelijk;Rechts;1;2;right;no;200;rightarrow;361;true;focus;yes;186903;Chrome;112.0;Windows;10;undefined;undefined;1920 x 1200;1920 x 1200
H024;25;Mannelijk;Rechts;1;3;left;yes;200;leftarrow;317;false;focus;yes;187975;Chrome;112.0;Windows;10;undefined;undefined;1920 x 1200;1920 x 1200
H024;25;Mannelijk;Rechts;1;4;right;no;150;rightarrow;355;true;focus;yes;189084;Chrome;112.0;Windows;10;undefined;undefined;1920 x 1200;1920 x 1200
H024;25;Mannelijk;Rechts;1;5;left;no;150;leftarrow;366;true;focus;yes;190206;Chrome;112.0;Windows;10;undefined;undefined;1920 x 1200;1920 x 1200
H024;25;Mannelijk;Rechts;1;6;left;no;150;leftarrow;349;true;focus;yes;191310;Chrome;112.0;Windows;10;undefined;undefined;1920 x 1200;1920 x 1200
H024;25;Mannelijk;Rechts;1;7;right;no;150;rightarrow;378;true;focus;yes;192441;Chrome;112.0;Windows;10;undefined;undefined;1920 x 1200;1920 x 1200
H024;25;Mannelijk;Rechts;1;8;right;yes;150;rightarrow;387;false;focus;yes;193583;Chrome;112.0;Windows;10;undefined;undefined;1920 x 1200;1920 x 1200
H024;25;Mannelijk;Rechts;1;9;right;no;100;rightarrow;422;true;focus;yes;194760;Chrome;112.0;Windows;10;undefined;undefined;1920 x 1200;1920 x 1200
H024;25;Mannelijk;Rechts;1;10;left;no;100;leftarrow;349;true;focus;yes;195863;Chrome;112.0;Windows;10;undefined;undefined;1920 x 1200;1920 x 1200
H024;25;Mannelijk;Rechts;1;11;left;yes;100;undefined;null;true;focus;yes;197869;Chrome;112.0;Windows;10;undefined;undefined;1920 x 1200;1920 x 1200
H024;25;Mannelijk;Rechts;1;12;right;no;150;rightarrow;360;true;focus;yes;198983;Chrome;112.0;Windows;10;undefined;undefined;1920 x 1200;1920 x 1200
H024;25;Mannelijk;Rechts;1;13;right;no;150;leftarrow;299;false;focus;yes;200037;Chrome;112.0;Windows;10;undefined;undefined;1920 x 1200;1920 x 1200
H024;25;Mannelijk;Rechts;1;14;left;no;150;leftarrow;369;true;focus;yes;201159;Chrome;112.0;Windows;10;undefined;undefined;1920 x 1200;1920 x 1200
H024;25;Mannelijk;Rechts;1;15;left;no;150;leftarrow;392;true;focus;yes;202304;Chrome;112.0;Windows;10;undefined;undefined;1920 x 1200;1920 x 1200
H024;25;Mannelijk;Rechts;1;16;right;yes;150;rightarrow;351;false;focus;yes;203409;Chrome;112.0;Windows;10;undefined;undefined;1920 x 1200;1920 x 1200
H024;25;Mannelijk;Rechts;1;17;left;no;100;leftarrow;345;true;focus;yes;204509;Chrome;112.0;Windows;10;undefined;undefined;1920 x 1200;1920 x 1200
H024;25;Mannelijk;Rechts;1;18;left;no;100;leftarrow;390;true;focus;yes;205653;Chrome;112.0;Windows;10;undefined;undefined;1920 x 1200;1920 x 1200
H024;25;Mannelijk;Rechts;1;19;right;no;100;rightarrow;338;true;focus;yes;206746;Chrome;112.0;Windows;10;undefined;undefined;1920 x 1200;1920 x 1200
H024;25;Mannelijk;Rechts;1;20;left;yes;100;undefined;null;true;focus;yes;208751;Chrome;112.0;Windows;10;undefined;undefined;1920 x 1200;1920 x 1200
H024;25;Mannelijk;Rechts;1;21;right;no;150;rightarrow;359;true;focus;yes;209864;Chrome;112.0;Windows;10;undefined;undefined;1920 x 1200;1920 x 1200
H024;25;Mannelijk;Rechts;1;22;right;no;150;rightarrow;434;true;focus;yes;211053;Chrome;112.0;Windows;10;undefined;undefined;1920 x 1200;1920 x 1200
H024;25;Mannelijk;Rechts;1;23;right;yes;150;rightarrow;400;false;focus;yes;212208;Chrome;112.0;Windows;10;undefined;undefined;1920 x 1200;1920 x 1200
H024;25;Mannelijk;Rechts;1;24;left;no;100;leftarrow;330;true;focus;yes;213292;Chrome;112.0;Windows;10;undefined;undefined;1920 x 1200;1920 x 1200
H024;25;Mannelijk;Rechts;1;25;right;no;100;rightarrow;323;true;focus;yes;214368;Chrome;112.0;Windows;10;undefined;undefined;1920 x 1200;1920 x 1200
H024;25;Mannelijk;Rechts;1;26;left;yes;100;undefined;null;true;focus;yes;216373;Chrome;112.0;Windows;10;undefined;undefined;1920 x 1200;1920 x 1200
H024;25;Mannelijk;Rechts;1;27;left;no;150;leftarrow;402;true;focus;yes;217530;Chrome;112.0;Windows;10;undefined;undefined;1920 x 1200;1920 x 1200
H024;25;Mannelijk;Rechts;1;28;right;no;150;rightarrow;330;true;focus;yes;218614;Chrome;112.0;Windows;10;undefined;undefined;1920 x 1200;1920 x 1200
H024;25;Mannelijk;Rechts;1;29;left;no;150;leftarrow;330;true;focus;yes;219699;Chrome;112.0;Windows;10;undefined;undefined;1920 x 1200;1920 x 1200
H024;25;Mannelijk;Rechts;1;30;right;no;150;rightarrow;325;true;focus;yes;220778;Chrome;112.0;Windows;10;undefined;undefined;1920 x 1200;1920 x 1200
H024;25;Mannelijk;Rechts;1;31;left;no;150;leftarrow;334;true;focus;yes;221867;Chrome;112.0;Windows;10;undefined;undefined;1920 x 1200;1920 x 1200
H024;25;Mannelijk;Rechts;1;32;right;yes;150;rightarrow;272;false;focus;yes;222893;Chrome;112.0;Windows;10;undefined;undefined;1920 x 1200;1920 x 1200
H024;25;Mannelijk;Rechts;1;33;left;yes;100;undefined;null;true;focus;yes;224899;Chrome;112.0;Windows;10;undefined;undefined;1920 x 1200;1920 x 1200
H024;25;Mannelijk;Rechts;1;34;left;no;150;leftarrow;356;true;focus;yes;226009;Chrome;112.0;Windows;10;undefined;undefined;1920 x 1200;1920 x 1200
H024;25;Mannelijk;Rechts;1;35;right;no;150;rightarrow;289;true;focus;yes;227053;Chrome;112.0;Windows;10;undefined;undefined;1920 x 1200;1920 x 1200
H024;25;Mannelijk;Rechts;1;36;right;no;150;rightarrow;385;true;focus;yes;228193;Chrome;112.0;Windows;10;undefined;undefined;1920 x 1200;1920 x 1200
H024;25;Mannelijk;Rechts;1;37;right;no;150;rightarrow;407;true;focus;yes;229354;Chrome;112.0;Windows;10;undefined;undefined;1920 x 1200;1920 x 1200
H024;25;Mannelijk;Rechts;1;38;right;yes;150;undefined;null;true;focus;yes;231360;Chrome;112.0;Windows;10;undefined;undefined;1920 x 1200;1920 x 1200
H024;25;Mannelijk;Rechts;1;39;left;no;200;leftarrow;357;true;focus;yes;232471;Chrome;112.0;Windows;10;undefined;undefined;1920 x 1200;1920 x 1200
H024;25;Mannelijk;Rechts;1;40;left;no;200;leftarrow;328;true;focus;yes;233553;Chrome;112.0;Windows;10;undefined;undefined;1920 x 1200;1920 x 1200
H024;25;Mannelijk;Rechts;1;41;left;no;200;leftarrow;361;true;focus;yes;234670;Chrome;112.0;Windows;10;undefined;undefined;1920 x 1200;1920 x 1200
H024;25;Mannelijk;Rechts;1;42;left;no;200;leftarrow;373;true;focus;yes;235797;Chrome;112.0;Windows;10;undefined;undefined;1920 x 1200;1920 x 1200
H024;25;Mannelijk;Rechts;1;43;right;yes;200;rightarrow;338;false;focus;yes;236888;Chrome;112.0;Windows;10;undefined;undefined;1920 x 1200;1920 x 1200
H024;25;Mannelijk;Rechts;1;44;right;no;150;rightarrow;362;true;focus;yes;238005;Chrome;112.0;Windows;10;undefined;undefined;1920 x 1200;1920 x 1200
H024;25;Mannelijk;Rechts;1;45;left;yes;150;leftarrow;323;false;focus;yes;239082;Chrome;112.0;Windows;10;undefined;undefined;1920 x 1200;1920 x 1200
H024;25;Mannelijk;Rechts;1;46;right;no;100;rightarrow;345;true;focus;yes;240181;Chrome;112.0;Windows;10;undefined;undefined;1920 x 1200;1920 x 1200
H024;25;Mannelijk;Rechts;1;47;right;no;100;rightarrow;423;true;focus;yes;241358;Chrome;112.0;Windows;10;undefined;undefined;1920 x 1200;1920 x 1200
H024;25;Mannelijk;Rechts;1;48;left;no;100;leftarrow;377;true;focus;yes;242489;Chrome;112.0;Windows;10;undefined;undefined;1920 x 1200;1920 x 1200
H024;25;Mannelijk;Rechts;1;49;right;yes;100;rightarrow;330;false;focus;yes;243574;Chrome;112.0;Windows;10;undefined;undefined;1920 x 1200;1920 x 1200
H024;25;Mannelijk;Rechts;1;50;right;no;50;rightarrow;373;true;focus;yes;244700;Chrome;112.0;Windows;10;undefined;undefined;1920 x 1200;1920 x 1200
H024;25;Mannelijk;Rechts;1;51;left;no;50;leftarrow;517;true;focus;yes;245971;Chrome;112.0;Windows;10;undefined;undefined;1920 x 1200;1920 x 1200
H024;25;Mannelijk;Rechts;1;52;left;no;50;leftarrow;362;true;focus;yes;247088;Chrome;112.0;Windows;10;undefined;undefined;1920 x 1200;1920 x 1200
H024;25;Mannelijk;Rechts;1;53;right;no;50;rightarrow;326;true;focus;yes;248168;Chrome;112.0;Windows;10;undefined;undefined;1920 x 1200;1920 x 1200
H024;25;Mannelijk;Rechts;1;54;right;no;50;rightarrow;347;true;focus;yes;249270;Chrome;112.0;Windows;10;undefined;undefined;1920 x 1200;1920 x 1200
H024;25;Mannelijk;Rechts;1;55;left;no;50;leftarrow;335;true;focus;yes;250359;Chrome;112.0;Windows;10;undefined;undefined;1920 x 1200;1920 x 1200
H024;25;Mannelijk;Rechts;1;56;left;yes;50;undefined;null;true;focus;yes;252363;Chrome;112.0;Windows;10;undefined;undefined;1920 x 1200;1920 x 1200
H024;25;Mannelijk;Rechts;1;57;left;no;100;leftarrow;385;true;focus;yes;253503;Chrome;112.0;Windows;10;undefined;undefined;1920 x 1200;1920 x 1200
H024;25;Mannelijk;Rechts;1;58;left;no;100;leftarrow;376;true;focus;yes;254633;Chrome;112.0;Windows;10;undefined;undefined;1920 x 1200;1920 x 1200
H024;25;Mannelijk;Rechts;1;59;right;no;100;rightarrow;345;true;focus;yes;255732;Chrome;112.0;Windows;10;undefined;undefined;1920 x 1200;1920 x 1200
H024;25;Mannelijk;Rechts;1;60;right;yes;100;undefined;null;true;focus;yes;257738;Chrome;112.0;Windows;10;undefined;undefined;1920 x 1200;1920 x 1200
H024;25;Mannelijk;Rechts;1;61;left;yes;150;leftarrow;352;false;focus;yes;258844;Chrome;112.0;Windows;10;undefined;undefined;1920 x 1200;1920 x 1200
H024;25;Mannelijk;Rechts;1;62;left;no;100;leftarrow;431;true;focus;yes;260029;Chrome;112.0;Windows;10;undefined;undefined;1920 x 1200;1920 x 1200
H024;25;Mannelijk;Rechts;1;63;right;no;100;rightarrow;312;true;focus;yes;261095;Chrome;112.0;Windows;10;undefined;undefined;1920 x 1200;1920 x 1200
H024;25;Mannelijk;Rechts;1;64;right;no;100;rightarrow;395;true;focus;yes;262244;Chrome;112.0;Windows;10;undefined;undefined;1920 x 1200;1920 x 1200
H024;25;Mannelijk;Rechts;1;65;right;no;100;rightarrow;336;true;focus;yes;263335;Chrome;112.0;Windows;10;undefined;undefined;1920 x 1200;1920 x 1200
H024;25;Mannelijk;Rechts;1;66;right;no;100;rightarrow;356;true;focus;yes;264446;Chrome;112.0;Windows;10;undefined;undefined;1920 x 1200;1920 x 1200
H024;25;Mannelijk;Rechts;1;67;left;no;100;leftarrow;339;true;focus;yes;265545;Chrome;112.0;Windows;10;undefined;undefined;1920 x 1200;1920 x 1200
H024;25;Mannelijk;Rechts;1;68;right;yes;100;rightarrow;334;false;focus;yes;266634;Chrome;112.0;Windows;10;undefined;undefined;1920 x 1200;1920 x 1200
H024;25;Mannelijk;Rechts;1;69;left;no;50;leftarrow;453;true;focus;yes;267842;Chrome;112.0;Windows;10;undefined;undefined;1920 x 1200;1920 x 1200
H024;25;Mannelijk;Rechts;1;70;right;no;50;rightarrow;331;true;focus;yes;268927;Chrome;112.0;Windows;10;undefined;undefined;1920 x 1200;1920 x 1200
H024;25;Mannelijk;Rechts;1;71;left;yes;50;leftarrow;350;false;focus;yes;270031;Chrome;112.0;Windows;10;undefined;undefined;1920 x 1200;1920 x 1200
H024;25;Mannelijk;Rechts;1;72;left;no;50;leftarrow;395;true;focus;yes;271180;Chrome;112.0;Windows;10;undefined;undefined;1920 x 1200;1920 x 1200
H024;25;Mannelijk;Rechts;1;73;right;yes;50;undefined;null;true;focus;yes;273185;Chrome;112.0;Windows;10;undefined;undefined;1920 x 1200;1920 x 1200
H024;25;Mannelijk;Rechts;1;74;left;no;100;leftarrow;366;true;focus;yes;274303;Chrome;112.0;Windows;10;undefined;undefined;1920 x 1200;1920 x 1200
H024;25;Mannelijk;Rechts;1;75;left;no;100;leftarrow;391;true;focus;yes;275448;Chrome;112.0;Windows;10;undefined;undefined;1920 x 1200;1920 x 1200
H024;25;Mannelijk;Rechts;1;76;right;no;100;rightarrow;359;true;focus;yes;276569;Chrome;112.0;Windows;10;undefined;undefined;1920 x 1200;1920 x 1200
H024;25;Mannelijk;Rechts;1;77;left;yes;100;leftarrow;350;false;focus;yes;277673;Chrome;112.0;Windows;10;undefined;undefined;1920 x 1200;1920 x 1200
H024;25;Mannelijk;Rechts;1;78;right;no;50;rightarrow;344;true;focus;yes;278772;Chrome;112.0;Windows;10;undefined;undefined;1920 x 1200;1920 x 1200
H024;25;Mannelijk;Rechts;1;79;left;no;50;leftarrow;362;true;focus;yes;279889;Chrome;112.0;Windows;10;undefined;undefined;1920 x 1200;1920 x 1200
H024;25;Mannelijk;Rechts;1;80;right;no;50;rightarrow;349;true;focus;yes;280992;Chrome;112.0;Windows;10;undefined;undefined;1920 x 1200;1920 x 1200
H024;25;Mannelijk;Rechts;1;81;right;no;50;rightarrow;397;true;focus;yes;282142;Chrome;112.0;Windows;10;undefined;undefined;1920 x 1200;1920 x 1200
H024;25;Mannelijk;Rechts;1;82;right;no;50;rightarrow;398;true;focus;yes;283295;Chrome;112.0;Windows;10;undefined;undefined;1920 x 1200;1920 x 1200
H024;25;Mannelijk;Rechts;1;83;left;no;50;leftarrow;327;true;focus;yes;284376;Chrome;112.0;Windows;10;undefined;undefined;1920 x 1200;1920 x 1200
H024;25;Mannelijk;Rechts;1;84;left;yes;50;rightarrow;261;false;focus;yes;285392;Chrome;112.0;Windows;10;undefined;undefined;1920 x 1200;1920 x 1200
H024;25;Mannelijk;Rechts;1;85;left;no;50;leftarrow;390;true;focus;yes;286537;Chrome;112.0;Windows;10;undefined;undefined;1920 x 1200;1920 x 1200
H024;25;Mannelijk;Rechts;1;86;right;no;50;rightarrow;307;true;focus;yes;287599;Chrome;112.0;Windows;10;undefined;undefined;1920 x 1200;1920 x 1200
H024;25;Mannelijk;Rechts;1;87;left;no;50;leftarrow;309;true;focus;yes;288662;Chrome;112.0;Windows;10;undefined;undefined;1920 x 1200;1920 x 1200
H024;25;Mannelijk;Rechts;1;88;right;yes;50;undefined;null;true;focus;yes;290665;Chrome;112.0;Windows;10;undefined;undefined;1920 x 1200;1920 x 1200
H024;25;Mannelijk;Rechts;1;89;left;no;100;leftarrow;365;true;focus;yes;291789;Chrome;112.0;Windows;10;undefined;undefined;1920 x 1200;1920 x 1200
H024;25;Mannelijk;Rechts;1;90;left;no;100;leftarrow;426;true;focus;yes;292970;Chrome;112.0;Windows;10;undefined;undefined;1920 x 1200;1920 x 1200
H024;25;Mannelijk;Rechts;1;91;right;yes;100;rightarrow;316;false;focus;yes;294042;Chrome;112.0;Windows;10;undefined;undefined;1920 x 1200;1920 x 1200
H024;25;Mannelijk;Rechts;1;92;left;no;50;leftarrow;395;true;focus;yes;295190;Chrome;112.0;Windows;10;undefined;undefined;1920 x 1200;1920 x 1200
H024;25;Mannelijk;Rechts;1;93;right;no;50;rightarrow;362;true;focus;yes;296307;Chrome;112.0;Windows;10;undefined;undefined;1920 x 1200;1920 x 1200
H024;25;Mannelijk;Rechts;1;94;right;no;50;rightarrow;398;true;focus;yes;297460;Chrome;112.0;Windows;10;undefined;undefined;1920 x 1200;1920 x 1200
H024;25;Mannelijk;Rechts;1;95;left;yes;50;undefined;null;true;focus;yes;299466;Chrome;112.0;Windows;10;undefined;undefined;1920 x 1200;1920 x 1200
H024;25;Mannelijk;Rechts;1;96;right;no;100;rightarrow;349;true;focus;yes;300574;Chrome;112.0;Windows;10;undefined;undefined;1920 x 1200;1920 x 1200
H024;25;Mannelijk;Rechts;1;97;left;yes;100;leftarrow;320;false;focus;yes;301649;Chrome;112.0;Windows;10;undefined;undefined;1920 x 1200;1920 x 1200
H024;25;Mannelijk;Rechts;1;98;right;no;50;rightarrow;344;true;focus;yes;302747;Chrome;112.0;Windows;10;undefined;undefined;1920 x 1200;1920 x 1200
H024;25;Mannelijk;Rechts;1;99;left;no;50;leftarrow;359;true;focus;yes;303862;Chrome;112.0;Windows;10;undefined;undefined;1920 x 1200;1920 x 1200
H024;25;Mannelijk;Rechts;1;100;right;yes;50;undefined;null;true;focus;yes;305869;Chrome;112.0;Windows;10;undefined;undefined;1920 x 1200;1920 x 1200
H024;25;Mannelijk;Rechts;1;101;left;no;100;leftarrow;341;true;focus;yes;306964;Chrome;112.0;Windows;10;undefined;undefined;1920 x 1200;1920 x 1200
H024;25;Mannelijk;Rechts;1;102;right;no;100;rightarrow;329;true;focus;yes;308047;Chrome;112.0;Windows;10;undefined;undefined;1920 x 1200;1920 x 1200
H024;25;Mannelijk;Rechts;1;103;right;no;100;rightarrow;388;true;focus;yes;309190;Chrome;112.0;Windows;10;undefined;undefined;1920 x 1200;1920 x 1200
H024;25;Mannelijk;Rechts;1;104;left;no;100;leftarrow;325;true;focus;yes;310270;Chrome;112.0;Windows;10;undefined;undefined;1920 x 1200;1920 x 1200
H024;25;Mannelijk;Rechts;1;105;left;no;100;leftarrow;379;true;focus;yes;311404;Chrome;112.0;Windows;10;undefined;undefined;1920 x 1200;1920 x 1200
H024;25;Mannelijk;Rechts;1;106;right;no;100;rightarrow;356;true;focus;yes;312515;Chrome;112.0;Windows;10;undefined;undefined;1920 x 1200;1920 x 1200
H024;25;Mannelijk;Rechts;1;107;left;no;100;leftarrow;384;true;focus;yes;313654;Chrome;112.0;Windows;10;undefined;undefined;1920 x 1200;1920 x 1200
H024;25;Mannelijk;Rechts;1;108;right;no;100;rightarrow;339;true;focus;yes;314747;Chrome;112.0;Windows;10;undefined;undefined;1920 x 1200;1920 x 1200
H024;25;Mannelijk;Rechts;1;109;left;no;100;leftarrow;335;true;focus;yes;315839;Chrome;112.0;Windows;10;undefined;undefined;1920 x 1200;1920 x 1200
H024;25;Mannelijk;Rechts;1;110;left;yes;100;leftarrow;411;false;focus;yes;317006;Chrome;112.0;Windows;10;undefined;undefined;1920 x 1200;1920 x 1200
H024;25;Mannelijk;Rechts;1;111;right;yes;50;undefined;null;true;focus;yes;319011;Chrome;112.0;Windows;10;undefined;undefined;1920 x 1200;1920 x 1200
H024;25;Mannelijk;Rechts;1;112;right;no;100;rightarrow;406;true;focus;yes;320171;Chrome;112.0;Windows;10;undefined;undefined;1920 x 1200;1920 x 1200
H024;25;Mannelijk;Rechts;1;113;left;no;100;leftarrow;344;true;focus;yes;321270;Chrome;112.0;Windows;10;undefined;undefined;1920 x 1200;1920 x 1200
H024;25;Mannelijk;Rechts;1;114;right;yes;100;rightarrow;346;false;focus;yes;322371;Chrome;112.0;Windows;10;undefined;undefined;1920 x 1200;1920 x 1200
H024;25;Mannelijk;Rechts;1;115;right;no;50;rightarrow;371;true;focus;yes;323496;Chrome;112.0;Windows;10;undefined;undefined;1920 x 1200;1920 x 1200
H024;25;Mannelijk;Rechts;1;116;left;no;50;leftarrow;344;true;focus;yes;324595;Chrome;112.0;Windows;10;undefined;undefined;1920 x 1200;1920 x 1200
H024;25;Mannelijk;Rechts;1;117;left;no;50;leftarrow;402;true;focus;yes;325752;Chrome;112.0;Windows;10;undefined;undefined;1920 x 1200;1920 x 1200
H024;25;Mannelijk;Rechts;1;118;right;no;50;rightarrow;330;true;focus;yes;326836;Chrome;112.0;Windows;10;undefined;undefined;1920 x 1200;1920 x 1200
H024;25;Mannelijk;Rechts;1;119;left;yes;50;undefined;null;true;focus;yes;328840;Chrome;112.0;Windows;10;undefined;undefined;1920 x 1200;1920 x 1200
H024;25;Mannelijk;Rechts;1;120;right;no;100;rightarrow;367;true;focus;yes;329964;Chrome;112.0;Windows;10;undefined;undefined;1920 x 1200;1920 x 1200
H024;25;Mannelijk;Rechts;1;121;right;yes;100;rightarrow;368;false;focus;yes;331087;Chrome;112.0;Windows;10;undefined;undefined;1920 x 1200;1920 x 1200
H024;25;Mannelijk;Rechts;1;122;right;no;50;rightarrow;380;true;focus;yes;332221;Chrome;112.0;Windows;10;undefined;undefined;1920 x 1200;1920 x 1200
H024;25;Mannelijk;Rechts;1;123;right;no;50;rightarrow;399;true;focus;yes;333375;Chrome;112.0;Windows;10;undefined;undefined;1920 x 1200;1920 x 1200
H024;25;Mannelijk;Rechts;1;124;left;no;50;leftarrow;356;true;focus;yes;334487;Chrome;112.0;Windows;10;undefined;undefined;1920 x 1200;1920 x 1200
H024;25;Mannelijk;Rechts;1;125;left;no;50;leftarrow;385;true;focus;yes;335626;Chrome;112.0;Windows;10;undefined;undefined;1920 x 1200;1920 x 1200
H024;25;Mannelijk;Rechts;1;126;left;yes;50;undefined;null;true;focus;yes;337632;Chrome;112.0;Windows;10;undefined;undefined;1920 x 1200;1920 x 1200
H024;25;Mannelijk;Rechts;1;127;left;no;100;leftarrow;358;true;focus;yes;338745;Chrome;112.0;Windows;10;undefined;undefined;1920 x 1200;1920 x 1200
H024;25;Mannelijk;Rechts;1;128;right;no;100;rightarrow;345;true;focus;yes;339844;Chrome;112.0;Windows;10;undefined;undefined;1920 x 1200;1920 x 1200
H024;25;Mannelijk;Rechts;2;1;left;yes;100;leftarrow;418;false;focus;yes;359187;Chrome;112.0;Windows;10;undefined;undefined;1920 x 1200;1920 x 1200
H024;25;Mannelijk;Rechts;2;2;left;no;50;leftarrow;444;true;focus;yes;360386;Chrome;112.0;Windows;10;undefined;undefined;1920 x 1200;1920 x 1200
H024;25;Mannelijk;Rechts;2;3;right;no;50;rightarrow;358;true;focus;yes;361498;Chrome;112.0;Windows;10;undefined;undefined;1920 x 1200;1920 x 1200
H024;25;Mannelijk;Rechts;2;4;right;yes;50;undefined;null;true;focus;yes;363504;Chrome;112.0;Windows;10;undefined;undefined;1920 x 1200;1920 x 1200
H024;25;Mannelijk;Rechts;2;5;right;no;100;rightarrow;348;true;focus;yes;364607;Chrome;112.0;Windows;10;undefined;undefined;1920 x 1200;1920 x 1200
H024;25;Mannelijk;Rechts;2;6;left;no;100;leftarrow;363;true;focus;yes;365724;Chrome;112.0;Windows;10;undefined;undefined;1920 x 1200;1920 x 1200
H024;25;Mannelijk;Rechts;2;7;right;no;100;rightarrow;340;true;focus;yes;366819;Chrome;112.0;Windows;10;undefined;undefined;1920 x 1200;1920 x 1200
H024;25;Mannelijk;Rechts;2;8;left;no;100;leftarrow;324;true;focus;yes;367898;Chrome;112.0;Windows;10;undefined;undefined;1920 x 1200;1920 x 1200
H024;25;Mannelijk;Rechts;2;9;left;no;100;leftarrow;335;true;focus;yes;368987;Chrome;112.0;Windows;10;undefined;undefined;1920 x 1200;1920 x 1200
H024;25;Mannelijk;Rechts;2;10;right;no;100;rightarrow;318;true;focus;yes;370059;Chrome;112.0;Windows;10;undefined;undefined;1920 x 1200;1920 x 1200
H024;25;Mannelijk;Rechts;2;11;right;yes;100;rightarrow;357;false;focus;yes;371172;Chrome;112.0;Windows;10;undefined;undefined;1920 x 1200;1920 x 1200
H024;25;Mannelijk;Rechts;2;12;right;no;50;rightarrow;368;true;focus;yes;372293;Chrome;112.0;Windows;10;undefined;undefined;1920 x 1200;1920 x 1200
H024;25;Mannelijk;Rechts;2;13;left;yes;50;undefined;null;true;focus;yes;374300;Chrome;112.0;Windows;10;undefined;undefined;1920 x 1200;1920 x 1200
H024;25;Mannelijk;Rechts;2;14;left;no;100;leftarrow;365;true;focus;yes;375420;Chrome;112.0;Windows;10;undefined;undefined;1920 x 1200;1920 x 1200
H024;25;Mannelijk;Rechts;2;15;right;no;100;rightarrow;332;true;focus;yes;376506;Chrome;112.0;Windows;10;undefined;undefined;1920 x 1200;1920 x 1200
H024;25;Mannelijk;Rechts;2;16;left;no;100;leftarrow;335;true;focus;yes;377595;Chrome;112.0;Windows;10;undefined;undefined;1920 x 1200;1920 x 1200
H024;25;Mannelijk;Rechts;2;17;left;no;100;rightarrow;262;false;focus;yes;378611;Chrome;112.0;Windows;10;undefined;undefined;1920 x 1200;1920 x 1200
H024;25;Mannelijk;Rechts;2;18;right;no;100;rightarrow;367;true;focus;yes;379732;Chrome;112.0;Windows;10;undefined;undefined;1920 x 1200;1920 x 1200
H024;25;Mannelijk;Rechts;2;19;right;no;100;rightarrow;344;true;focus;yes;380831;Chrome;112.0;Windows;10;undefined;undefined;1920 x 1200;1920 x 1200
H024;25;Mannelijk;Rechts;2;20;right;yes;100;rightarrow;349;false;focus;yes;381935;Chrome;112.0;Windows;10;undefined;undefined;1920 x 1200;1920 x 1200
H024;25;Mannelijk;Rechts;2;21;left;no;50;leftarrow;321;true;focus;yes;383011;Chrome;112.0;Windows;10;undefined;undefined;1920 x 1200;1920 x 1200
H024;25;Mannelijk;Rechts;2;22;left;yes;50;undefined;null;true;focus;yes;385017;Chrome;112.0;Windows;10;undefined;undefined;1920 x 1200;1920 x 1200
H024;25;Mannelijk;Rechts;2;23;right;no;100;rightarrow;317;true;focus;yes;386088;Chrome;112.0;Windows;10;undefined;undefined;1920 x 1200;1920 x 1200
H024;25;Mannelijk;Rechts;2;24;left;no;100;leftarrow;344;true;focus;yes;387188;Chrome;112.0;Windows;10;undefined;undefined;1920 x 1200;1920 x 1200
H024;25;Mannelijk;Rechts;2;25;left;no;100;leftarrow;482;true;focus;yes;388424;Chrome;112.0;Windows;10;undefined;undefined;1920 x 1200;1920 x 1200
H024;25;Mannelijk;Rechts;2;26;left;no;100;leftarrow;367;true;focus;yes;389545;Chrome;112.0;Windows;10;undefined;undefined;1920 x 1200;1920 x 1200
H024;25;Mannelijk;Rechts;2;27;left;no;100;leftarrow;334;true;focus;yes;390635;Chrome;112.0;Windows;10;undefined;undefined;1920 x 1200;1920 x 1200
H024;25;Mannelijk;Rechts;2;28;right;no;100;rightarrow;289;true;focus;yes;391678;Chrome;112.0;Windows;10;undefined;undefined;1920 x 1200;1920 x 1200
H024;25;Mannelijk;Rechts;2;29;right;no;100;rightarrow;389;true;focus;yes;392823;Chrome;112.0;Windows;10;undefined;undefined;1920 x 1200;1920 x 1200
H024;25;Mannelijk;Rechts;2;30;right;no;100;rightarrow;403;true;focus;yes;393981;Chrome;112.0;Windows;10;undefined;undefined;1920 x 1200;1920 x 1200
H024;25;Mannelijk;Rechts;2;31;right;yes;100;undefined;null;true;focus;yes;395987;Chrome;112.0;Windows;10;undefined;undefined;1920 x 1200;1920 x 1200
H024;25;Mannelijk;Rechts;2;32;left;yes;150;leftarrow;338;false;focus;yes;397080;Chrome;112.0;Windows;10;undefined;undefined;1920 x 1200;1920 x 1200
H024;25;Mannelijk;Rechts;2;33;right;no;100;rightarrow;318;true;focus;yes;398152;Chrome;112.0;Windows;10;undefined;undefined;1920 x 1200;1920 x 1200
H024;25;Mannelijk;Rechts;2;34;right;no;100;rightarrow;339;true;focus;yes;399245;Chrome;112.0;Windows;10;undefined;undefined;1920 x 1200;1920 x 1200
H024;25;Mannelijk;Rechts;2;35;left;no;100;leftarrow;350;true;focus;yes;400349;Chrome;112.0;Windows;10;undefined;undefined;1920 x 1200;1920 x 1200
H024;25;Mannelijk;Rechts;2;36;right;yes;100;rightarrow;354;false;focus;yes;401457;Chrome;112.0;Windows;10;undefined;undefined;1920 x 1200;1920 x 1200
H024;25;Mannelijk;Rechts;2;37;right;no;50;rightarrow;375;true;focus;yes;402588;Chrome;112.0;Windows;10;undefined;undefined;1920 x 1200;1920 x 1200
H024;25;Mannelijk;Rechts;2;38;left;no;50;leftarrow;338;true;focus;yes;403682;Chrome;112.0;Windows;10;undefined;undefined;1920 x 1200;1920 x 1200
H024;25;Mannelijk;Rechts;2;39;left;no;50;leftarrow;353;true;focus;yes;404790;Chrome;112.0;Windows;10;undefined;undefined;1920 x 1200;1920 x 1200
H024;25;Mannelijk;Rechts;2;40;left;yes;50;undefined;null;true;focus;yes;406796;Chrome;112.0;Windows;10;undefined;undefined;1920 x 1200;1920 x 1200
H024;25;Mannelijk;Rechts;2;41;left;no;100;leftarrow;376;true;focus;yes;407927;Chrome;112.0;Windows;10;undefined;undefined;1920 x 1200;1920 x 1200
H024;25;Mannelijk;Rechts;2;42;left;no;100;leftarrow;393;true;focus;yes;409076;Chrome;112.0;Windows;10;undefined;undefined;1920 x 1200;1920 x 1200
H024;25;Mannelijk;Rechts;2;43;right;no;100;rightarrow;372;true;focus;yes;410202;Chrome;112.0;Windows;10;undefined;undefined;1920 x 1200;1920 x 1200
H024;25;Mannelijk;Rechts;2;44;right;no;100;rightarrow;376;true;focus;yes;411333;Chrome;112.0;Windows;10;undefined;undefined;1920 x 1200;1920 x 1200
H024;25;Mannelijk;Rechts;2;45;left;no;100;leftarrow;339;true;focus;yes;412427;Chrome;112.0;Windows;10;undefined;undefined;1920 x 1200;1920 x 1200
H024;25;Mannelijk;Rechts;2;46;right;no;100;rightarrow;381;true;focus;yes;413563;Chrome;112.0;Windows;10;undefined;undefined;1920 x 1200;1920 x 1200
H024;25;Mannelijk;Rechts;2;47;left;yes;100;leftarrow;336;false;focus;yes;414653;Chrome;112.0;Windows;10;undefined;undefined;1920 x 1200;1920 x 1200
H024;25;Mannelijk;Rechts;2;48;right;yes;50;undefined;null;true;focus;yes;416659;Chrome;112.0;Windows;10;undefined;undefined;1920 x 1200;1920 x 1200
H024;25;Mannelijk;Rechts;2;49;right;no;100;rightarrow;397;true;focus;yes;417809;Chrome;112.0;Windows;10;undefined;undefined;1920 x 1200;1920 x 1200
H024;25;Mannelijk;Rechts;2;50;left;yes;100;leftarrow;317;false;focus;yes;418880;Chrome;112.0;Windows;10;undefined;undefined;1920 x 1200;1920 x 1200
H024;25;Mannelijk;Rechts;2;51;right;yes;50;undefined;null;true;focus;yes;420889;Chrome;112.0;Windows;10;undefined;undefined;1920 x 1200;1920 x 1200
H024;25;Mannelijk;Rechts;2;52;right;no;100;rightarrow;368;true;focus;yes;422013;Chrome;112.0;Windows;10;undefined;undefined;1920 x 1200;1920 x 1200
H024;25;Mannelijk;Rechts;2;53;right;no;100;rightarrow;366;true;focus;yes;423135;Chrome;112.0;Windows;10;undefined;undefined;1920 x 1200;1920 x 1200
H024;25;Mannelijk;Rechts;2;54;left;no;100;leftarrow;336;true;focus;yes;424225;Chrome;112.0;Windows;10;undefined;undefined;1920 x 1200;1920 x 1200
H024;25;Mannelijk;Rechts;2;55;left;no;100;leftarrow;494;true;focus;yes;425474;Chrome;112.0;Windows;10;undefined;undefined;1920 x 1200;1920 x 1200
H024;25;Mannelijk;Rechts;2;56;left;no;100;leftarrow;338;true;focus;yes;426568;Chrome;112.0;Windows;10;undefined;undefined;1920 x 1200;1920 x 1200
H024;25;Mannelijk;Rechts;2;57;right;no;100;rightarrow;395;true;focus;yes;427717;Chrome;112.0;Windows;10;undefined;undefined;1920 x 1200;1920 x 1200
H024;25;Mannelijk;Rechts;2;58;right;no;100;rightarrow;356;true;focus;yes;428829;Chrome;112.0;Windows;10;undefined;undefined;1920 x 1200;1920 x 1200
H024;25;Mannelijk;Rechts;2;59;left;no;100;leftarrow;384;true;focus;yes;429969;Chrome;112.0;Windows;10;undefined;undefined;1920 x 1200;1920 x 1200
H024;25;Mannelijk;Rechts;2;60;right;no;100;rightarrow;325;true;focus;yes;431049;Chrome;112.0;Windows;10;undefined;undefined;1920 x 1200;1920 x 1200
H024;25;Mannelijk;Rechts;2;61;right;yes;100;undefined;null;true;focus;yes;433063;Chrome;112.0;Windows;10;undefined;undefined;1920 x 1200;1920 x 1200
H024;25;Mannelijk;Rechts;2;62;left;no;150;leftarrow;354;true;focus;yes;434173;Chrome;112.0;Windows;10;undefined;undefined;1920 x 1200;1920 x 1200
H024;25;Mannelijk;Rechts;2;63;left;no;150;leftarrow;389;true;focus;yes;435317;Chrome;112.0;Windows;10;undefined;undefined;1920 x 1200;1920 x 1200
H024;25;Mannelijk;Rechts;2;64;left;yes;150;leftarrow;362;false;focus;yes;436434;Chrome;112.0;Windows;10;undefined;undefined;1920 x 1200;1920 x 1200
H024;25;Mannelijk;Rechts;2;65;right;no;100;rightarrow;380;true;focus;yes;437569;Chrome;112.0;Windows;10;undefined;undefined;1920 x 1200;1920 x 1200
H024;25;Mannelijk;Rechts;2;66;left;no;100;leftarrow;663;true;focus;yes;438987;Chrome;112.0;Windows;10;undefined;undefined;1920 x 1200;1920 x 1200
H024;25;Mannelijk;Rechts;2;67;right;no;100;rightarrow;340;true;focus;yes;440081;Chrome;112.0;Windows;10;undefined;undefined;1920 x 1200;1920 x 1200
H024;25;Mannelijk;Rechts;2;68;left;yes;100;leftarrow;353;false;focus;yes;441189;Chrome;112.0;Windows;10;undefined;undefined;1920 x 1200;1920 x 1200
H024;25;Mannelijk;Rechts;2;69;right;yes;50;undefined;null;true;focus;yes;443195;Chrome;112.0;Windows;10;undefined;undefined;1920 x 1200;1920 x 1200
H024;25;Mannelijk;Rechts;2;70;right;no;100;rightarrow;356;true;focus;yes;444304;Chrome;112.0;Windows;10;undefined;undefined;1920 x 1200;1920 x 1200
H024;25;Mannelijk;Rechts;2;71;left;no;100;leftarrow;321;true;focus;yes;445379;Chrome;112.0;Windows;10;undefined;undefined;1920 x 1200;1920 x 1200
H024;25;Mannelijk;Rechts;2;72;left;no;100;leftarrow;419;true;focus;yes;446554;Chrome;112.0;Windows;10;undefined;undefined;1920 x 1200;1920 x 1200
H024;25;Mannelijk;Rechts;2;73;right;no;100;rightarrow;350;true;focus;yes;447657;Chrome;112.0;Windows;10;undefined;undefined;1920 x 1200;1920 x 1200
H024;25;Mannelijk;Rechts;2;74;left;no;100;leftarrow;303;true;focus;yes;448714;Chrome;112.0;Windows;10;undefined;undefined;1920 x 1200;1920 x 1200
H024;25;Mannelijk;Rechts;2;75;right;no;100;rightarrow;354;true;focus;yes;449821;Chrome;112.0;Windows;10;undefined;undefined;1920 x 1200;1920 x 1200
H024;25;Mannelijk;Rechts;2;76;right;no;100;rightarrow;376;true;focus;yes;450952;Chrome;112.0;Windows;10;undefined;undefined;1920 x 1200;1920 x 1200
H024;25;Mannelijk;Rechts;2;77;left;no;100;leftarrow;574;true;focus;yes;452280;Chrome;112.0;Windows;10;undefined;undefined;1920 x 1200;1920 x 1200
H024;25;Mannelijk;Rechts;2;78;left;yes;100;leftarrow;395;false;focus;yes;453429;Chrome;112.0;Windows;10;undefined;undefined;1920 x 1200;1920 x 1200
H024;25;Mannelijk;Rechts;2;79;right;yes;50;undefined;null;true;focus;yes;455435;Chrome;112.0;Windows;10;undefined;undefined;1920 x 1200;1920 x 1200
H024;25;Mannelijk;Rechts;2;80;left;no;100;leftarrow;368;true;focus;yes;456559;Chrome;112.0;Windows;10;undefined;undefined;1920 x 1200;1920 x 1200
H024;25;Mannelijk;Rechts;2;81;right;no;100;rightarrow;313;true;focus;yes;457627;Chrome;112.0;Windows;10;undefined;undefined;1920 x 1200;1920 x 1200
H024;25;Mannelijk;Rechts;2;82;right;no;100;rightarrow;376;true;focus;yes;458757;Chrome;112.0;Windows;10;undefined;undefined;1920 x 1200;1920 x 1200
H024;25;Mannelijk;Rechts;2;83;left;no;100;leftarrow;366;true;focus;yes;459879;Chrome;112.0;Windows;10;undefined;undefined;1920 x 1200;1920 x 1200
H024;25;Mannelijk;Rechts;2;84;right;no;100;rightarrow;299;true;focus;yes;460932;Chrome;112.0;Windows;10;undefined;undefined;1920 x 1200;1920 x 1200
H024;25;Mannelijk;Rechts;2;85;left;yes;100;undefined;null;true;focus;yes;462938;Chrome;112.0;Windows;10;undefined;undefined;1920 x 1200;1920 x 1200
H024;25;Mannelijk;Rechts;2;86;left;no;150;leftarrow;371;true;focus;yes;464064;Chrome;112.0;Windows;10;undefined;undefined;1920 x 1200;1920 x 1200
H024;25;Mannelijk;Rechts;2;92;left;no;50;leftarrow;320;true;focus;yes;470564;Chrome;112.0;Windows;10;undefined;undefined;1920 x 1200;1920 x 1200
H024;25;Mannelijk;Rechts;2;93;right;no;50;rightarrow;331;true;focus;yes;471649;Chrome;112.0;Windows;10;undefined;undefined;1920 x 1200;1920 x 1200
H024;25;Mannelijk;Rechts;2;90;left;no;100;leftarrow;297;true;focus;yes;468408;Chrome;112.0;Windows;10;undefined;undefined;1920 x 1200;1920 x 1200
H024;25;Mannelijk;Rechts;2;88;left;no;100;leftarrow;335;true;focus;yes;466256;Chrome;112.0;Windows;10;undefined;undefined;1920 x 1200;1920 x 1200
H024;25;Mannelijk;Rechts;2;89;right;no;100;rightarrow;345;true;focus;yes;467355;Chrome;112.0;Windows;10;undefined;undefined;1920 x 1200;1920 x 1200
H024;25;Mannelijk;Rechts;2;87;right;yes;150;rightarrow;349;false;focus;yes;465167;Chrome;112.0;Windows;10;undefined;undefined;1920 x 1200;1920 x 1200
H024;25;Mannelijk;Rechts;2;95;left;yes;50;undefined;null;true;focus;yes;474802;Chrome;112.0;Windows;10;undefined;undefined;1920 x 1200;1920 x 1200
H024;25;Mannelijk;Rechts;2;94;right;no;50;rightarrow;393;true;focus;yes;472798;Chrome;112.0;Windows;10;undefined;undefined;1920 x 1200;1920 x 1200
H024;25;Mannelijk;Rechts;2;96;left;no;100;leftarrow;361;true;focus;yes;475919;Chrome;112.0;Windows;10;undefined;undefined;1920 x 1200;1920 x 1200
H024;25;Mannelijk;Rechts;2;97;right;no;100;rightarrow;345;true;focus;yes;477018;Chrome;112.0;Windows;10;undefined;undefined;1920 x 1200;1920 x 1200
H024;25;Mannelijk;Rechts;2;98;right;no;100;rightarrow;413;true;focus;yes;478185;Chrome;112.0;Windows;10;undefined;undefined;1920 x 1200;1920 x 1200
H024;25;Mannelijk;Rechts;2;91;right;yes;100;rightarrow;327;false;focus;yes;469489;Chrome;112.0;Windows;10;undefined;undefined;1920 x 1200;1920 x 1200
H024;25;Mannelijk;Rechts;2;99;right;yes;100;undefined;null;true;focus;yes;480192;Chrome;112.0;Windows;10;undefined;undefined;1920 x 1200;1920 x 1200
H024;25;Mannelijk;Rechts;2;100;right;no;150;rightarrow;347;true;focus;yes;481294;Chrome;112.0;Windows;10;undefined;undefined;1920 x 1200;1920 x 1200
H024;25;Mannelijk;Rechts;2;101;left;yes;150;leftarrow;361;false;focus;yes;482409;Chrome;112.0;Windows;10;undefined;undefined;1920 x 1200;1920 x 1200
H024;25;Mannelijk;Rechts;2;102;left;no;100;leftarrow;371;true;focus;yes;483536;Chrome;112.0;Windows;10;undefined;undefined;1920 x 1200;1920 x 1200
H024;25;Mannelijk;Rechts;2;103;left;no;100;leftarrow;427;true;focus;yes;484717;Chrome;112.0;Windows;10;undefined;undefined;1920 x 1200;1920 x 1200
H024;25;Mannelijk;Rechts;2;104;left;no;100;leftarrow;398;true;focus;yes;485870;Chrome;112.0;Windows;10;undefined;undefined;1920 x 1200;1920 x 1200
H024;25;Mannelijk;Rechts;2;105;left;no;100;leftarrow;467;true;focus;yes;487092;Chrome;112.0;Windows;10;undefined;undefined;1920 x 1200;1920 x 1200
H024;25;Mannelijk;Rechts;2;106;left;yes;100;undefined;null;true;focus;yes;489099;Chrome;112.0;Windows;10;undefined;undefined;1920 x 1200;1920 x 1200
H024;25;Mannelijk;Rechts;2;107;left;no;150;leftarrow;334;true;focus;yes;490187;Chrome;112.0;Windows;10;undefined;undefined;1920 x 1200;1920 x 1200
H024;25;Mannelijk;Rechts;2;108;right;no;150;rightarrow;338;true;focus;yes;491281;Chrome;112.0;Windows;10;undefined;undefined;1920 x 1200;1920 x 1200
H024;25;Mannelijk;Rechts;2;109;right;no;150;rightarrow;395;true;focus;yes;492429;Chrome;112.0;Windows;10;undefined;undefined;1920 x 1200;1920 x 1200
H024;25;Mannelijk;Rechts;2;110;left;no;150;leftarrow;371;true;focus;yes;493555;Chrome;112.0;Windows;10;undefined;undefined;1920 x 1200;1920 x 1200
H024;25;Mannelijk;Rechts;2;111;right;no;150;rightarrow;345;true;focus;yes;494654;Chrome;112.0;Windows;10;undefined;undefined;1920 x 1200;1920 x 1200
H024;25;Mannelijk;Rechts;2;112;right;yes;150;rightarrow;559;false;focus;yes;495967;Chrome;112.0;Windows;10;undefined;undefined;1920 x 1200;1920 x 1200
H024;25;Mannelijk;Rechts;2;113;left;no;100;leftarrow;351;true;focus;yes;497075;Chrome;112.0;Windows;10;undefined;undefined;1920 x 1200;1920 x 1200
H024;25;Mannelijk;Rechts;2;114;right;yes;100;undefined;null;true;focus;yes;499080;Chrome;112.0;Windows;10;undefined;undefined;1920 x 1200;1920 x 1200
H024;25;Mannelijk;Rechts;2;115;left;no;150;leftarrow;358;true;focus;yes;500192;Chrome;112.0;Windows;10;undefined;undefined;1920 x 1200;1920 x 1200
H024;25;Mannelijk;Rechts;2;116;right;no;150;rightarrow;368;true;focus;yes;501314;Chrome;112.0;Windows;10;undefined;undefined;1920 x 1200;1920 x 1200
H024;25;Mannelijk;Rechts;2;117;left;yes;150;leftarrow;427;false;focus;yes;502495;Chrome;112.0;Windows;10;undefined;undefined;1920 x 1200;1920 x 1200
H024;25;Mannelijk;Rechts;2;118;right;no;100;rightarrow;353;true;focus;yes;503603;Chrome;112.0;Windows;10;undefined;undefined;1920 x 1200;1920 x 1200
H024;25;Mannelijk;Rechts;2;119;left;no;100;leftarrow;389;true;focus;yes;504746;Chrome;112.0;Windows;10;undefined;undefined;1920 x 1200;1920 x 1200
H024;25;Mannelijk;Rechts;2;120;right;no;100;rightarrow;341;true;focus;yes;505842;Chrome;112.0;Windows;10;undefined;undefined;1920 x 1200;1920 x 1200
H024;25;Mannelijk;Rechts;2;121;right;no;100;rightarrow;338;true;focus;yes;506934;Chrome;112.0;Windows;10;undefined;undefined;1920 x 1200;1920 x 1200
H024;25;Mannelijk;Rechts;2;122;right;no;100;rightarrow;429;true;focus;yes;508119;Chrome;112.0;Windows;10;undefined;undefined;1920 x 1200;1920 x 1200
H024;25;Mannelijk;Rechts;2;123;right;no;100;rightarrow;331;true;focus;yes;509204;Chrome;112.0;Windows;10;undefined;undefined;1920 x 1200;1920 x 1200
H024;25;Mannelijk;Rechts;2;124;left;yes;100;leftarrow;338;false;focus;yes;510299;Chrome;112.0;Windows;10;undefined;undefined;1920 x 1200;1920 x 1200
H024;25;Mannelijk;Rechts;2;125;left;no;50;leftarrow;391;true;focus;yes;511447;Chrome;112.0;Windows;10;undefined;undefined;1920 x 1200;1920 x 1200
H024;25;Mannelijk;Rechts;2;126;left;no;50;leftarrow;366;true;focus;yes;512568;Chrome;112.0;Windows;10;undefined;undefined;1920 x 1200;1920 x 1200
H024;25;Mannelijk;Rechts;2;127;right;yes;50;undefined;null;true;focus;yes;514576;Chrome;112.0;Windows;10;undefined;undefined;1920 x 1200;1920 x 1200
H024;25;Mannelijk;Rechts;2;128;left;no;100;leftarrow;362;true;focus;yes;515692;Chrome;112.0;Windows;10;undefined;undefined;1920 x 1200;1920 x 1200
H024;25;Mannelijk;Rechts;3;1;right;no;100;rightarrow;352;true;focus;yes;534407;Chrome;112.0;Windows;10;undefined;undefined;1920 x 1200;1920 x 1200
H024;25;Mannelijk;Rechts;3;2;right;yes;100;rightarrow;353;false;focus;yes;535515;Chrome;112.0;Windows;10;undefined;undefined;1920 x 1200;1920 x 1200
H024;25;Mannelijk;Rechts;3;3;right;no;50;rightarrow;359;true;focus;yes;536627;Chrome;112.0;Windows;10;undefined;undefined;1920 x 1200;1920 x 1200
H024;25;Mannelijk;Rechts;3;4;left;no;50;leftarrow;336;true;focus;yes;537717;Chrome;112.0;Windows;10;undefined;undefined;1920 x 1200;1920 x 1200
H024;25;Mannelijk;Rechts;3;5;left;no;50;leftarrow;352;true;focus;yes;538825;Chrome;112.0;Windows;10;undefined;undefined;1920 x 1200;1920 x 1200
H024;25;Mannelijk;Rechts;3;6;left;no;50;leftarrow;336;true;focus;yes;539915;Chrome;112.0;Windows;10;undefined;undefined;1920 x 1200;1920 x 1200
H024;25;Mannelijk;Rechts;3;7;right;no;50;rightarrow;299;true;focus;yes;540968;Chrome;112.0;Windows;10;undefined;undefined;1920 x 1200;1920 x 1200
H024;25;Mannelijk;Rechts;3;8;left;yes;50;undefined;null;true;focus;yes;542975;Chrome;112.0;Windows;10;undefined;undefined;1920 x 1200;1920 x 1200
H024;25;Mannelijk;Rechts;3;9;left;no;100;leftarrow;356;true;focus;yes;544087;Chrome;112.0;Windows;10;undefined;undefined;1920 x 1200;1920 x 1200
H024;25;Mannelijk;Rechts;3;10;left;no;100;leftarrow;316;true;focus;yes;545157;Chrome;112.0;Windows;10;undefined;undefined;1920 x 1200;1920 x 1200
H024;25;Mannelijk;Rechts;3;11;right;no;100;rightarrow;345;true;focus;yes;546256;Chrome;112.0;Windows;10;undefined;undefined;1920 x 1200;1920 x 1200
H024;25;Mannelijk;Rechts;3;12;right;no;100;rightarrow;399;true;focus;yes;547410;Chrome;112.0;Windows;10;undefined;undefined;1920 x 1200;1920 x 1200
H024;25;Mannelijk;Rechts;3;13;left;yes;100;leftarrow;356;false;focus;yes;548522;Chrome;112.0;Windows;10;undefined;undefined;1920 x 1200;1920 x 1200
H024;25;Mannelijk;Rechts;3;14;left;no;50;leftarrow;348;true;focus;yes;549627;Chrome;112.0;Windows;10;undefined;undefined;1920 x 1200;1920 x 1200
H024;25;Mannelijk;Rechts;3;15;right;no;50;rightarrow;345;true;focus;yes;550725;Chrome;112.0;Windows;10;undefined;undefined;1920 x 1200;1920 x 1200
H024;25;Mannelijk;Rechts;3;16;right;yes;50;undefined;null;true;focus;yes;552732;Chrome;112.0;Windows;10;undefined;undefined;1920 x 1200;1920 x 1200
H024;25;Mannelijk;Rechts;3;17;left;yes;100;leftarrow;325;false;focus;yes;553812;Chrome;112.0;Windows;10;undefined;undefined;1920 x 1200;1920 x 1200
H024;25;Mannelijk;Rechts;3;18;left;no;50;leftarrow;369;true;focus;yes;554935;Chrome;112.0;Windows;10;undefined;undefined;1920 x 1200;1920 x 1200
H024;25;Mannelijk;Rechts;3;19;right;no;50;rightarrow;343;true;focus;yes;556033;Chrome;112.0;Windows;10;undefined;undefined;1920 x 1200;1920 x 1200
H024;25;Mannelijk;Rechts;3;20;left;no;50;leftarrow;345;true;focus;yes;557132;Chrome;112.0;Windows;10;undefined;undefined;1920 x 1200;1920 x 1200
H024;25;Mannelijk;Rechts;3;21;right;yes;50;rightarrow;289;false;focus;yes;558176;Chrome;112.0;Windows;10;undefined;undefined;1920 x 1200;1920 x 1200
H024;25;Mannelijk;Rechts;3;22;right;no;50;rightarrow;480;true;focus;yes;559411;Chrome;112.0;Windows;10;undefined;undefined;1920 x 1200;1920 x 1200
H024;25;Mannelijk;Rechts;3;23;right;no;50;rightarrow;339;true;focus;yes;560505;Chrome;112.0;Windows;10;undefined;undefined;1920 x 1200;1920 x 1200
H024;25;Mannelijk;Rechts;3;24;left;no;50;leftarrow;332;true;focus;yes;561590;Chrome;112.0;Windows;10;undefined;undefined;1920 x 1200;1920 x 1200
H024;25;Mannelijk;Rechts;3;25;right;yes;50;undefined;null;true;focus;yes;563596;Chrome;112.0;Windows;10;undefined;undefined;1920 x 1200;1920 x 1200
H024;25;Mannelijk;Rechts;3;26;right;no;100;rightarrow;372;true;focus;yes;564722;Chrome;112.0;Windows;10;undefined;undefined;1920 x 1200;1920 x 1200
H024;25;Mannelijk;Rechts;3;27;left;no;100;leftarrow;341;true;focus;yes;565817;Chrome;112.0;Windows;10;undefined;undefined;1920 x 1200;1920 x 1200
H024;25;Mannelijk;Rechts;3;28;left;yes;100;undefined;null;true;focus;yes;567825;Chrome;112.0;Windows;10;undefined;undefined;1920 x 1200;1920 x 1200
H024;25;Mannelijk;Rechts;3;29;right;no;150;rightarrow;320;true;focus;yes;568903;Chrome;112.0;Windows;10;undefined;undefined;1920 x 1200;1920 x 1200
H024;25;Mannelijk;Rechts;3;30;left;no;150;leftarrow;325;true;focus;yes;569982;Chrome;112.0;Windows;10;undefined;undefined;1920 x 1200;1920 x 1200
H024;25;Mannelijk;Rechts;3;31;left;no;150;rightarrow;328;false;focus;yes;571066;Chrome;112.0;Windows;10;undefined;undefined;1920 x 1200;1920 x 1200
H024;25;Mannelijk;Rechts;3;32;right;no;150;rightarrow;347;true;focus;yes;572169;Chrome;112.0;Windows;10;undefined;undefined;1920 x 1200;1920 x 1200
H024;25;Mannelijk;Rechts;3;33;left;no;150;leftarrow;352;true;focus;yes;573276;Chrome;112.0;Windows;10;undefined;undefined;1920 x 1200;1920 x 1200
H024;25;Mannelijk;Rechts;3;34;left;yes;150;leftarrow;353;false;focus;yes;574384;Chrome;112.0;Windows;10;undefined;undefined;1920 x 1200;1920 x 1200
H024;25;Mannelijk;Rechts;3;35;left;no;100;leftarrow;377;true;focus;yes;575515;Chrome;112.0;Windows;10;undefined;undefined;1920 x 1200;1920 x 1200
H024;25;Mannelijk;Rechts;3;36;left;no;100;leftarrow;450;true;focus;yes;576719;Chrome;112.0;Windows;10;undefined;undefined;1920 x 1200;1920 x 1200
H024;25;Mannelijk;Rechts;3;37;right;no;100;rightarrow;344;true;focus;yes;577818;Chrome;112.0;Windows;10;undefined;undefined;1920 x 1200;1920 x 1200
H024;25;Mannelijk;Rechts;3;38;right;yes;100;undefined;null;true;focus;yes;579825;Chrome;112.0;Windows;10;undefined;undefined;1920 x 1200;1920 x 1200
H024;25;Mannelijk;Rechts;3;39;right;no;150;rightarrow;372;true;focus;yes;580956;Chrome;112.0;Windows;10;undefined;undefined;1920 x 1200;1920 x 1200
H024;25;Mannelijk;Rechts;3;40;right;no;150;rightarrow;420;true;focus;yes;582131;Chrome;112.0;Windows;10;undefined;undefined;1920 x 1200;1920 x 1200
H024;25;Mannelijk;Rechts;3;41;left;no;150;leftarrow;344;true;focus;yes;583231;Chrome;112.0;Windows;10;undefined;undefined;1920 x 1200;1920 x 1200
H024;25;Mannelijk;Rechts;3;42;right;yes;150;rightarrow;330;false;focus;yes;584316;Chrome;112.0;Windows;10;undefined;undefined;1920 x 1200;1920 x 1200
H024;25;Mannelijk;Rechts;3;43;right;no;100;rightarrow;389;true;focus;yes;585460;Chrome;112.0;Windows;10;undefined;undefined;1920 x 1200;1920 x 1200
H024;25;Mannelijk;Rechts;3;44;left;yes;100;leftarrow;308;false;focus;yes;586522;Chrome;112.0;Windows;10;undefined;undefined;1920 x 1200;1920 x 1200
H024;25;Mannelijk;Rechts;3;45;right;no;50;rightarrow;338;true;focus;yes;587617;Chrome;112.0;Windows;10;undefined;undefined;1920 x 1200;1920 x 1200
H024;25;Mannelijk;Rechts;3;46;left;no;50;leftarrow;344;true;focus;yes;588716;Chrome;112.0;Windows;10;undefined;undefined;1920 x 1200;1920 x 1200
H024;25;Mannelijk;Rechts;3;47;left;no;50;leftarrow;392;true;focus;yes;589863;Chrome;112.0;Windows;10;undefined;undefined;1920 x 1200;1920 x 1200
H024;25;Mannelijk;Rechts;3;48;right;no;50;rightarrow;294;true;focus;yes;590912;Chrome;112.0;Windows;10;undefined;undefined;1920 x 1200;1920 x 1200
H024;25;Mannelijk;Rechts;3;49;left;no;50;leftarrow;321;true;focus;yes;591988;Chrome;112.0;Windows;10;undefined;undefined;1920 x 1200;1920 x 1200
H024;25;Mannelijk;Rechts;3;50;left;no;50;rightarrow;284;false;focus;yes;593028;Chrome;112.0;Windows;10;undefined;undefined;1920 x 1200;1920 x 1200
H024;25;Mannelijk;Rechts;3;51;left;yes;50;undefined;null;true;focus;yes;595032;Chrome;112.0;Windows;10;undefined;undefined;1920 x 1200;1920 x 1200
H024;25;Mannelijk;Rechts;3;52;right;no;100;rightarrow;390;true;focus;yes;596178;Chrome;112.0;Windows;10;undefined;undefined;1920 x 1200;1920 x 1200
H024;25;Mannelijk;Rechts;3;53;right;no;100;rightarrow;361;true;focus;yes;597294;Chrome;112.0;Windows;10;undefined;undefined;1920 x 1200;1920 x 1200
H024;25;Mannelijk;Rechts;3;54;right;yes;100;undefined;null;true;focus;yes;599299;Chrome;112.0;Windows;10;undefined;undefined;1920 x 1200;1920 x 1200
H024;25;Mannelijk;Rechts;3;55;left;no;150;leftarrow;341;true;focus;yes;600395;Chrome;112.0;Windows;10;undefined;undefined;1920 x 1200;1920 x 1200
H024;25;Mannelijk;Rechts;3;56;right;no;150;rightarrow;357;true;focus;yes;601506;Chrome;112.0;Windows;10;undefined;undefined;1920 x 1200;1920 x 1200
H024;25;Mannelijk;Rechts;3;57;right;no;150;rightarrow;408;true;focus;yes;602669;Chrome;112.0;Windows;10;undefined;undefined;1920 x 1200;1920 x 1200
H024;25;Mannelijk;Rechts;3;58;right;yes;150;rightarrow;357;false;focus;yes;603781;Chrome;112.0;Windows;10;undefined;undefined;1920 x 1200;1920 x 1200
H024;25;Mannelijk;Rechts;3;59;right;no;100;rightarrow;380;true;focus;yes;604917;Chrome;112.0;Windows;10;undefined;undefined;1920 x 1200;1920 x 1200
H024;25;Mannelijk;Rechts;3;60;left;no;100;leftarrow;333;true;focus;yes;606006;Chrome;112.0;Windows;10;undefined;undefined;1920 x 1200;1920 x 1200
H024;25;Mannelijk;Rechts;3;61;left;yes;100;undefined;null;true;focus;yes;608010;Chrome;112.0;Windows;10;undefined;undefined;1920 x 1200;1920 x 1200
H024;25;Mannelijk;Rechts;3;62;right;no;150;rightarrow;339;true;focus;yes;609105;Chrome;112.0;Windows;10;undefined;undefined;1920 x 1200;1920 x 1200
H024;25;Mannelijk;Rechts;3;63;left;no;150;leftarrow;331;true;focus;yes;610191;Chrome;112.0;Windows;10;undefined;undefined;1920 x 1200;1920 x 1200
H024;25;Mannelijk;Rechts;3;64;left;no;150;leftarrow;335;true;focus;yes;611279;Chrome;112.0;Windows;10;undefined;undefined;1920 x 1200;1920 x 1200
H024;25;Mannelijk;Rechts;3;65;right;yes;150;rightarrow;308;false;focus;yes;612342;Chrome;112.0;Windows;10;undefined;undefined;1920 x 1200;1920 x 1200
H024;25;Mannelijk;Rechts;3;66;left;no;100;leftarrow;347;true;focus;yes;613444;Chrome;112.0;Windows;10;undefined;undefined;1920 x 1200;1920 x 1200
H024;25;Mannelijk;Rechts;3;67;left;yes;100;leftarrow;338;false;focus;yes;614538;Chrome;112.0;Windows;10;undefined;undefined;1920 x 1200;1920 x 1200
H024;25;Mannelijk;Rechts;3;68;right;no;50;rightarrow;353;true;focus;yes;615646;Chrome;112.0;Windows;10;undefined;undefined;1920 x 1200;1920 x 1200
H024;25;Mannelijk;Rechts;3;69;right;no;50;rightarrow;374;true;focus;yes;616776;Chrome;112.0;Windows;10;undefined;undefined;1920 x 1200;1920 x 1200
H024;25;Mannelijk;Rechts;3;70;left;no;50;leftarrow;351;true;focus;yes;617883;Chrome;112.0;Windows;10;undefined;undefined;1920 x 1200;1920 x 1200
H024;25;Mannelijk;Rechts;3;71;left;no;50;rightarrow;321;false;focus;yes;618958;Chrome;112.0;Windows;10;undefined;undefined;1920 x 1200;1920 x 1200
H024;25;Mannelijk;Rechts;3;72;right;no;50;rightarrow;324;true;focus;yes;620037;Chrome;112.0;Windows;10;undefined;undefined;1920 x 1200;1920 x 1200
H024;25;Mannelijk;Rechts;3;73;right;no;50;rightarrow;542;true;focus;yes;621335;Chrome;112.0;Windows;10;undefined;undefined;1920 x 1200;1920 x 1200
H024;25;Mannelijk;Rechts;3;74;right;no;50;rightarrow;382;true;focus;yes;622470;Chrome;112.0;Windows;10;undefined;undefined;1920 x 1200;1920 x 1200
H024;25;Mannelijk;Rechts;3;75;left;yes;50;leftarrow;262;false;focus;yes;623485;Chrome;112.0;Windows;10;undefined;undefined;1920 x 1200;1920 x 1200
H024;25;Mannelijk;Rechts;3;76;right;yes;50;undefined;null;true;focus;yes;625492;Chrome;112.0;Windows;10;undefined;undefined;1920 x 1200;1920 x 1200
H024;25;Mannelijk;Rechts;3;77;right;no;100;rightarrow;347;true;focus;yes;626595;Chrome;112.0;Windows;10;undefined;undefined;1920 x 1200;1920 x 1200
H024;25;Mannelijk;Rechts;3;78;left;no;100;leftarrow;351;true;focus;yes;627702;Chrome;112.0;Windows;10;undefined;undefined;1920 x 1200;1920 x 1200
H024;25;Mannelijk;Rechts;3;79;left;no;100;leftarrow;319;true;focus;yes;628777;Chrome;112.0;Windows;10;undefined;undefined;1920 x 1200;1920 x 1200
H024;25;Mannelijk;Rechts;3;80;left;no;100;rightarrow;311;false;focus;yes;629843;Chrome;112.0;Windows;10;undefined;undefined;1920 x 1200;1920 x 1200
H024;25;Mannelijk;Rechts;3;81;right;no;100;rightarrow;343;true;focus;yes;630941;Chrome;112.0;Windows;10;undefined;undefined;1920 x 1200;1920 x 1200
H024;25;Mannelijk;Rechts;3;82;left;no;100;leftarrow;312;true;focus;yes;632009;Chrome;112.0;Windows;10;undefined;undefined;1920 x 1200;1920 x 1200
H024;25;Mannelijk;Rechts;3;83;left;no;100;leftarrow;348;true;focus;yes;633112;Chrome;112.0;Windows;10;undefined;undefined;1920 x 1200;1920 x 1200
H024;25;Mannelijk;Rechts;3;84;left;no;100;leftarrow;375;true;focus;yes;634242;Chrome;112.0;Windows;10;undefined;undefined;1920 x 1200;1920 x 1200
H024;25;Mannelijk;Rechts;3;85;left;yes;100;leftarrow;298;false;focus;yes;635294;Chrome;112.0;Windows;10;undefined;undefined;1920 x 1200;1920 x 1200
H024;25;Mannelijk;Rechts;3;86;right;no;50;rightarrow;373;true;focus;yes;636425;Chrome;112.0;Windows;10;undefined;undefined;1920 x 1200;1920 x 1200
H024;25;Mannelijk;Rechts;3;87;right;no;50;rightarrow;376;true;focus;yes;637555;Chrome;112.0;Windows;10;undefined;undefined;1920 x 1200;1920 x 1200
H024;25;Mannelijk;Rechts;3;88;right;yes;50;undefined;null;true;focus;yes;639562;Chrome;112.0;Windows;10;undefined;undefined;1920 x 1200;1920 x 1200
H024;25;Mannelijk;Rechts;3;89;right;no;100;rightarrow;341;true;focus;yes;640659;Chrome;112.0;Windows;10;undefined;undefined;1920 x 1200;1920 x 1200
H024;25;Mannelijk;Rechts;3;90;left;yes;100;leftarrow;315;false;focus;yes;641731;Chrome;112.0;Windows;10;undefined;undefined;1920 x 1200;1920 x 1200
H024;25;Mannelijk;Rechts;3;91;right;no;50;rightarrow;329;true;focus;yes;642816;Chrome;112.0;Windows;10;undefined;undefined;1920 x 1200;1920 x 1200
H024;25;Mannelijk;Rechts;3;92;right;no;50;rightarrow;374;true;focus;yes;643946;Chrome;112.0;Windows;10;undefined;undefined;1920 x 1200;1920 x 1200
H024;25;Mannelijk;Rechts;3;93;left;no;50;leftarrow;330;true;focus;yes;645029;Chrome;112.0;Windows;10;undefined;undefined;1920 x 1200;1920 x 1200
H024;25;Mannelijk;Rechts;3;94;left;no;50;leftarrow;368;true;focus;yes;646151;Chrome;112.0;Windows;10;undefined;undefined;1920 x 1200;1920 x 1200
H024;25;Mannelijk;Rechts;3;95;right;yes;50;rightarrow;296;false;focus;yes;647203;Chrome;112.0;Windows;10;undefined;undefined;1920 x 1200;1920 x 1200
H024;25;Mannelijk;Rechts;3;96;left;no;50;leftarrow;335;true;focus;yes;648294;Chrome;112.0;Windows;10;undefined;undefined;1920 x 1200;1920 x 1200
H024;25;Mannelijk;Rechts;3;97;right;no;50;rightarrow;333;true;focus;yes;649382;Chrome;112.0;Windows;10;undefined;undefined;1920 x 1200;1920 x 1200
H024;25;Mannelijk;Rechts;3;98;right;yes;50;undefined;null;true;focus;yes;651388;Chrome;112.0;Windows;10;undefined;undefined;1920 x 1200;1920 x 1200
H024;25;Mannelijk;Rechts;3;99;left;no;100;leftarrow;343;true;focus;yes;652487;Chrome;112.0;Windows;10;undefined;undefined;1920 x 1200;1920 x 1200
H024;25;Mannelijk;Rechts;3;100;right;no;100;rightarrow;318;true;focus;yes;653562;Chrome;112.0;Windows;10;undefined;undefined;1920 x 1200;1920 x 1200
H024;25;Mannelijk;Rechts;3;101;left;no;100;leftarrow;337;true;focus;yes;654655;Chrome;112.0;Windows;10;undefined;undefined;1920 x 1200;1920 x 1200
H024;25;Mannelijk;Rechts;3;102;left;no;100;leftarrow;673;true;focus;yes;656082;Chrome;112.0;Windows;10;undefined;undefined;1920 x 1200;1920 x 1200
H024;25;Mannelijk;Rechts;3;103;right;no;100;rightarrow;365;true;focus;yes;657203;Chrome;112.0;Windows;10;undefined;undefined;1920 x 1200;1920 x 1200
H024;25;Mannelijk;Rechts;3;104;left;yes;100;leftarrow;368;false;focus;yes;658325;Chrome;112.0;Windows;10;undefined;undefined;1920 x 1200;1920 x 1200
H024;25;Mannelijk;Rechts;3;105;right;no;50;rightarrow;321;true;focus;yes;659402;Chrome;112.0;Windows;10;undefined;undefined;1920 x 1200;1920 x 1200
H024;25;Mannelijk;Rechts;3;106;right;yes;50;undefined;null;true;focus;yes;661409;Chrome;112.0;Windows;10;undefined;undefined;1920 x 1200;1920 x 1200
H024;25;Mannelijk;Rechts;3;107;left;no;100;leftarrow;361;true;focus;yes;662524;Chrome;112.0;Windows;10;undefined;undefined;1920 x 1200;1920 x 1200
H024;25;Mannelijk;Rechts;3;108;left;no;100;leftarrow;375;true;focus;yes;663655;Chrome;112.0;Windows;10;undefined;undefined;1920 x 1200;1920 x 1200
H024;25;Mannelijk;Rechts;3;109;right;no;100;rightarrow;408;true;focus;yes;664817;Chrome;112.0;Windows;10;undefined;undefined;1920 x 1200;1920 x 1200
H024;25;Mannelijk;Rechts;3;110;left;yes;100;leftarrow;324;false;focus;yes;665897;Chrome;112.0;Windows;10;undefined;undefined;1920 x 1200;1920 x 1200
H024;25;Mannelijk;Rechts;3;111;left;no;50;leftarrow;350;true;focus;yes;667001;Chrome;112.0;Windows;10;undefined;undefined;1920 x 1200;1920 x 1200
H024;25;Mannelijk;Rechts;3;112;right;no;50;rightarrow;320;true;focus;yes;668077;Chrome;112.0;Windows;10;undefined;undefined;1920 x 1200;1920 x 1200
H024;25;Mannelijk;Rechts;3;113;left;no;50;leftarrow;330;true;focus;yes;669161;Chrome;112.0;Windows;10;undefined;undefined;1920 x 1200;1920 x 1200
H024;25;Mannelijk;Rechts;3;114;right;no;50;rightarrow;317;true;focus;yes;670233;Chrome;112.0;Windows;10;undefined;undefined;1920 x 1200;1920 x 1200
H024;25;Mannelijk;Rechts;3;115;right;no;50;leftarrow;279;false;focus;yes;671267;Chrome;112.0;Windows;10;undefined;undefined;1920 x 1200;1920 x 1200
H024;25;Mannelijk;Rechts;3;116;right;no;50;rightarrow;472;true;focus;yes;672493;Chrome;112.0;Windows;10;undefined;undefined;1920 x 1200;1920 x 1200
H024;25;Mannelijk;Rechts;3;117;left;yes;50;leftarrow;352;false;focus;yes;673600;Chrome;112.0;Windows;10;undefined;undefined;1920 x 1200;1920 x 1200
H024;25;Mannelijk;Rechts;3;118;left;no;50;leftarrow;361;true;focus;yes;674717;Chrome;112.0;Windows;10;undefined;undefined;1920 x 1200;1920 x 1200
H024;25;Mannelijk;Rechts;3;119;right;yes;50;rightarrow;367;false;focus;yes;675838;Chrome;112.0;Windows;10;undefined;undefined;1920 x 1200;1920 x 1200
H024;25;Mannelijk;Rechts;3;120;left;no;50;leftarrow;342;true;focus;yes;676936;Chrome;112.0;Windows;10;undefined;undefined;1920 x 1200;1920 x 1200
H024;25;Mannelijk;Rechts;3;121;left;no;50;leftarrow;385;true;focus;yes;678076;Chrome;112.0;Windows;10;undefined;undefined;1920 x 1200;1920 x 1200
H024;25;Mannelijk;Rechts;3;122;right;no;50;rightarrow;253;true;focus;yes;679084;Chrome;112.0;Windows;10;undefined;undefined;1920 x 1200;1920 x 1200
H024;25;Mannelijk;Rechts;3;123;left;no;50;leftarrow;380;true;focus;yes;680219;Chrome;112.0;Windows;10;undefined;undefined;1920 x 1200;1920 x 1200
H024;25;Mannelijk;Rechts;3;124;left;no;50;leftarrow;420;true;focus;yes;681395;Chrome;112.0;Windows;10;undefined;undefined;1920 x 1200;1920 x 1200
H024;25;Mannelijk;Rechts;3;125;right;no;50;leftarrow;361;false;focus;yes;682512;Chrome;112.0;Windows;10;undefined;undefined;1920 x 1200;1920 x 1200
H024;25;Mannelijk;Rechts;3;126;left;yes;50;leftarrow;345;false;focus;yes;683611;Chrome;112.0;Windows;10;undefined;undefined;1920 x 1200;1920 x 1200
H024;25;Mannelijk;Rechts;3;127;right;yes;50;rightarrow;321;false;focus;yes;684687;Chrome;112.0;Windows;10;undefined;undefined;1920 x 1200;1920 x 1200
H024;25;Mannelijk;Rechts;3;128;right;no;50;rightarrow;402;true;focus;yes;685845;Chrome;112.0;Windows;10;undefined;undefined;1920 x 1200;1920 x 1200
H024;25;Mannelijk;Rechts;4;1;left;yes;50;leftarrow;357;false;focus;yes;704150;Chrome;112.0;Windows;10;undefined;undefined;1920 x 1200;1920 x 1200
H024;25;Mannelijk;Rechts;4;2;left;no;50;leftarrow;344;true;focus;yes;705248;Chrome;112.0;Windows;10;undefined;undefined;1920 x 1200;1920 x 1200
H024;25;Mannelijk;Rechts;4;3;left;no;50;leftarrow;343;true;focus;yes;706347;Chrome;112.0;Windows;10;undefined;undefined;1920 x 1200;1920 x 1200
H024;25;Mannelijk;Rechts;4;4;right;yes;50;undefined;null;true;focus;yes;708352;Chrome;112.0;Windows;10;undefined;undefined;1920 x 1200;1920 x 1200
H024;25;Mannelijk;Rechts;4;5;right;no;100;rightarrow;334;true;focus;yes;709442;Chrome;112.0;Windows;10;undefined;undefined;1920 x 1200;1920 x 1200
H024;25;Mannelijk;Rechts;4;6;left;no;100;leftarrow;413;true;focus;yes;710609;Chrome;112.0;Windows;10;undefined;undefined;1920 x 1200;1920 x 1200
H024;25;Mannelijk;Rechts;4;7;right;no;100;rightarrow;365;true;focus;yes;711730;Chrome;112.0;Windows;10;undefined;undefined;1920 x 1200;1920 x 1200
H024;25;Mannelijk;Rechts;4;8;right;no;100;rightarrow;379;true;focus;yes;712866;Chrome;112.0;Windows;10;undefined;undefined;1920 x 1200;1920 x 1200
H024;25;Mannelijk;Rechts;4;9;right;yes;100;undefined;null;true;focus;yes;714871;Chrome;112.0;Windows;10;undefined;undefined;1920 x 1200;1920 x 1200
H024;25;Mannelijk;Rechts;4;10;right;no;150;rightarrow;362;true;focus;yes;715988;Chrome;112.0;Windows;10;undefined;undefined;1920 x 1200;1920 x 1200
H024;25;Mannelijk;Rechts;4;11;right;no;150;rightarrow;385;true;focus;yes;717128;Chrome;112.0;Windows;10;undefined;undefined;1920 x 1200;1920 x 1200
H024;25;Mannelijk;Rechts;4;12;left;no;150;leftarrow;330;true;focus;yes;718213;Chrome;112.0;Windows;10;undefined;undefined;1920 x 1200;1920 x 1200
H024;25;Mannelijk;Rechts;4;13;left;no;150;leftarrow;333;true;focus;yes;719302;Chrome;112.0;Windows;10;undefined;undefined;1920 x 1200;1920 x 1200
H024;25;Mannelijk;Rechts;4;14;right;no;150;rightarrow;448;true;focus;yes;720507;Chrome;112.0;Windows;10;undefined;undefined;1920 x 1200;1920 x 1200
H024;25;Mannelijk;Rechts;4;15;left;no;150;leftarrow;300;true;focus;yes;721563;Chrome;112.0;Windows;10;undefined;undefined;1920 x 1200;1920 x 1200
H024;25;Mannelijk;Rechts;4;16;left;yes;150;leftarrow;325;false;focus;yes;722644;Chrome;112.0;Windows;10;undefined;undefined;1920 x 1200;1920 x 1200
H024;25;Mannelijk;Rechts;4;17;left;no;100;leftarrow;364;true;focus;yes;723765;Chrome;112.0;Windows;10;undefined;undefined;1920 x 1200;1920 x 1200
H024;25;Mannelijk;Rechts;4;18;right;no;100;rightarrow;361;true;focus;yes;724882;Chrome;112.0;Windows;10;undefined;undefined;1920 x 1200;1920 x 1200
H024;25;Mannelijk;Rechts;4;19;right;no;100;rightarrow;360;true;focus;yes;725998;Chrome;112.0;Windows;10;undefined;undefined;1920 x 1200;1920 x 1200
H024;25;Mannelijk;Rechts;4;20;left;no;100;leftarrow;397;true;focus;yes;727150;Chrome;112.0;Windows;10;undefined;undefined;1920 x 1200;1920 x 1200
H024;25;Mannelijk;Rechts;4;21;left;no;100;leftarrow;351;true;focus;yes;728259;Chrome;112.0;Windows;10;undefined;undefined;1920 x 1200;1920 x 1200
H024;25;Mannelijk;Rechts;4;22;right;yes;100;rightarrow;342;false;focus;yes;729356;Chrome;112.0;Windows;10;undefined;undefined;1920 x 1200;1920 x 1200
H024;25;Mannelijk;Rechts;4;23;left;yes;50;leftarrow;339;false;focus;yes;730451;Chrome;112.0;Windows;10;undefined;undefined;1920 x 1200;1920 x 1200
H024;25;Mannelijk;Rechts;4;24;right;no;50;rightarrow;333;true;focus;yes;731539;Chrome;112.0;Windows;10;undefined;undefined;1920 x 1200;1920 x 1200
H024;25;Mannelijk;Rechts;4;25;left;no;50;leftarrow;356;true;focus;yes;732652;Chrome;112.0;Windows;10;undefined;undefined;1920 x 1200;1920 x 1200
H024;25;Mannelijk;Rechts;4;26;right;yes;50;undefined;null;true;focus;yes;734658;Chrome;112.0;Windows;10;undefined;undefined;1920 x 1200;1920 x 1200
H024;25;Mannelijk;Rechts;4;27;right;no;100;rightarrow;365;true;focus;yes;735777;Chrome;112.0;Windows;10;undefined;undefined;1920 x 1200;1920 x 1200
H024;25;Mannelijk;Rechts;4;28;left;no;100;leftarrow;357;true;focus;yes;736890;Chrome;112.0;Windows;10;undefined;undefined;1920 x 1200;1920 x 1200
H024;25;Mannelijk;Rechts;4;29;right;no;100;rightarrow;339;true;focus;yes;737983;Chrome;112.0;Windows;10;undefined;undefined;1920 x 1200;1920 x 1200
H024;25;Mannelijk;Rechts;4;30;left;yes;100;leftarrow;284;false;focus;yes;739021;Chrome;112.0;Windows;10;undefined;undefined;1920 x 1200;1920 x 1200
H024;25;Mannelijk;Rechts;4;31;right;no;50;rightarrow;356;true;focus;yes;740133;Chrome;112.0;Windows;10;undefined;undefined;1920 x 1200;1920 x 1200
H024;25;Mannelijk;Rechts;4;32;left;no;50;leftarrow;312;true;focus;yes;741200;Chrome;112.0;Windows;10;undefined;undefined;1920 x 1200;1920 x 1200
H024;25;Mannelijk;Rechts;4;33;right;yes;50;undefined;null;true;focus;yes;743207;Chrome;112.0;Windows;10;undefined;undefined;1920 x 1200;1920 x 1200
H024;25;Mannelijk;Rechts;4;34;left;no;100;leftarrow;306;true;focus;yes;744267;Chrome;112.0;Windows;10;undefined;undefined;1920 x 1200;1920 x 1200
H024;25;Mannelijk;Rechts;4;35;right;no;100;rightarrow;339;true;focus;yes;745362;Chrome;112.0;Windows;10;undefined;undefined;1920 x 1200;1920 x 1200
H024;25;Mannelijk;Rechts;4;36;left;no;100;leftarrow;324;true;focus;yes;746441;Chrome;112.0;Windows;10;undefined;undefined;1920 x 1200;1920 x 1200
H024;25;Mannelijk;Rechts;4;37;right;no;100;rightarrow;311;true;focus;yes;747509;Chrome;112.0;Windows;10;undefined;undefined;1920 x 1200;1920 x 1200
H024;25;Mannelijk;Rechts;4;38;left;yes;100;leftarrow;316;false;focus;yes;748579;Chrome;112.0;Windows;10;undefined;undefined;1920 x 1200;1920 x 1200
H024;25;Mannelijk;Rechts;4;39;left;no;50;leftarrow;407;true;focus;yes;749742;Chrome;112.0;Windows;10;undefined;undefined;1920 x 1200;1920 x 1200
H024;25;Mannelijk;Rechts;4;40;right;no;50;rightarrow;336;true;focus;yes;750834;Chrome;112.0;Windows;10;undefined;undefined;1920 x 1200;1920 x 1200
H024;25;Mannelijk;Rechts;4;41;left;yes;50;leftarrow;338;false;focus;yes;751928;Chrome;112.0;Windows;10;undefined;undefined;1920 x 1200;1920 x 1200
H024;25;Mannelijk;Rechts;4;42;left;no;50;leftarrow;378;true;focus;yes;753063;Chrome;112.0;Windows;10;undefined;undefined;1920 x 1200;1920 x 1200
H024;25;Mannelijk;Rechts;4;43;right;no;50;rightarrow;306;true;focus;yes;754125;Chrome;112.0;Windows;10;undefined;undefined;1920 x 1200;1920 x 1200
H024;25;Mannelijk;Rechts;4;44;right;yes;50;undefined;null;true;focus;yes;756132;Chrome;112.0;Windows;10;undefined;undefined;1920 x 1200;1920 x 1200
H024;25;Mannelijk;Rechts;4;45;right;no;100;rightarrow;360;true;focus;yes;757247;Chrome;112.0;Windows;10;undefined;undefined;1920 x 1200;1920 x 1200
H024;25;Mannelijk;Rechts;4;46;left;no;100;leftarrow;340;true;focus;yes;758341;Chrome;112.0;Windows;10;undefined;undefined;1920 x 1200;1920 x 1200
H024;25;Mannelijk;Rechts;4;47;right;no;100;rightarrow;327;true;focus;yes;759422;Chrome;112.0;Windows;10;undefined;undefined;1920 x 1200;1920 x 1200
H024;25;Mannelijk;Rechts;4;48;left;no;100;leftarrow;243;true;focus;yes;760420;Chrome;112.0;Windows;10;undefined;undefined;1920 x 1200;1920 x 1200
H024;25;Mannelijk;Rechts;4;49;left;no;100;leftarrow;348;true;focus;yes;761523;Chrome;112.0;Windows;10;undefined;undefined;1920 x 1200;1920 x 1200
H024;25;Mannelijk;Rechts;4;50;right;no;100;rightarrow;284;true;focus;yes;762562;Chrome;112.0;Windows;10;undefined;undefined;1920 x 1200;1920 x 1200
H024;25;Mannelijk;Rechts;4;51;left;yes;100;leftarrow;299;false;focus;yes;763615;Chrome;112.0;Windows;10;undefined;undefined;1920 x 1200;1920 x 1200
H024;25;Mannelijk;Rechts;4;52;right;no;50;rightarrow;354;true;focus;yes;764723;Chrome;112.0;Windows;10;undefined;undefined;1920 x 1200;1920 x 1200
H024;25;Mannelijk;Rechts;4;53;left;no;50;leftarrow;256;true;focus;yes;765735;Chrome;112.0;Windows;10;undefined;undefined;1920 x 1200;1920 x 1200
H024;25;Mannelijk;Rechts;4;54;left;no;50;rightarrow;326;false;focus;yes;766816;Chrome;112.0;Windows;10;undefined;undefined;1920 x 1200;1920 x 1200
H024;25;Mannelijk;Rechts;4;55;right;no;50;rightarrow;348;true;focus;yes;767919;Chrome;112.0;Windows;10;undefined;undefined;1920 x 1200;1920 x 1200
H024;25;Mannelijk;Rechts;4;56;right;yes;50;undefined;null;true;focus;yes;769925;Chrome;112.0;Windows;10;undefined;undefined;1920 x 1200;1920 x 1200
H024;25;Mannelijk;Rechts;4;57;right;no;100;rightarrow;376;true;focus;yes;771056;Chrome;112.0;Windows;10;undefined;undefined;1920 x 1200;1920 x 1200
H024;25;Mannelijk;Rechts;4;58;right;yes;100;undefined;null;true;focus;yes;773062;Chrome;112.0;Windows;10;undefined;undefined;1920 x 1200;1920 x 1200
H024;25;Mannelijk;Rechts;4;59;right;no;150;rightarrow;367;true;focus;yes;774183;Chrome;112.0;Windows;10;undefined;undefined;1920 x 1200;1920 x 1200
H024;25;Mannelijk;Rechts;4;60;right;no;150;rightarrow;380;true;focus;yes;775318;Chrome;112.0;Windows;10;undefined;undefined;1920 x 1200;1920 x 1200
H024;25;Mannelijk;Rechts;4;61;left;no;150;leftarrow;320;true;focus;yes;776392;Chrome;112.0;Windows;10;undefined;undefined;1920 x 1200;1920 x 1200
H024;25;Mannelijk;Rechts;4;62;left;no;150;leftarrow;344;true;focus;yes;777490;Chrome;112.0;Windows;10;undefined;undefined;1920 x 1200;1920 x 1200
H024;25;Mannelijk;Rechts;4;63;left;yes;150;rightarrow;251;false;focus;yes;778496;Chrome;112.0;Windows;10;undefined;undefined;1920 x 1200;1920 x 1200
H024;25;Mannelijk;Rechts;4;64;left;no;100;leftarrow;341;true;focus;yes;779594;Chrome;112.0;Windows;10;undefined;undefined;1920 x 1200;1920 x 1200
H024;25;Mannelijk;Rechts;4;65;right;no;100;rightarrow;333;true;focus;yes;780683;Chrome;112.0;Windows;10;undefined;undefined;1920 x 1200;1920 x 1200
H024;25;Mannelijk;Rechts;4;66;right;no;100;leftarrow;279;false;focus;yes;781718;Chrome;112.0;Windows;10;undefined;undefined;1920 x 1200;1920 x 1200
H024;25;Mannelijk;Rechts;4;67;right;no;100;rightarrow;476;true;focus;yes;782949;Chrome;112.0;Windows;10;undefined;undefined;1920 x 1200;1920 x 1200
H024;25;Mannelijk;Rechts;4;68;left;yes;100;leftarrow;267;false;focus;yes;783971;Chrome;112.0;Windows;10;undefined;undefined;1920 x 1200;1920 x 1200
H024;25;Mannelijk;Rechts;4;69;left;no;50;leftarrow;367;true;focus;yes;785093;Chrome;112.0;Windows;10;undefined;undefined;1920 x 1200;1920 x 1200
H024;25;Mannelijk;Rechts;4;70;left;no;50;leftarrow;361;true;focus;yes;786211;Chrome;112.0;Windows;10;undefined;undefined;1920 x 1200;1920 x 1200
H024;25;Mannelijk;Rechts;4;71;right;yes;50;undefined;null;true;focus;yes;788216;Chrome;112.0;Windows;10;undefined;undefined;1920 x 1200;1920 x 1200
H024;25;Mannelijk;Rechts;4;72;left;no;100;leftarrow;353;true;focus;yes;789324;Chrome;112.0;Windows;10;undefined;undefined;1920 x 1200;1920 x 1200
H024;25;Mannelijk;Rechts;4;73;left;no;100;leftarrow;322;true;focus;yes;790400;Chrome;112.0;Windows;10;undefined;undefined;1920 x 1200;1920 x 1200
H024;25;Mannelijk;Rechts;4;74;right;yes;100;rightarrow;340;false;focus;yes;791494;Chrome;112.0;Windows;10;undefined;undefined;1920 x 1200;1920 x 1200
H024;25;Mannelijk;Rechts;4;75;right;no;50;leftarrow;277;false;focus;yes;792525;Chrome;112.0;Windows;10;undefined;undefined;1920 x 1200;1920 x 1200
H024;25;Mannelijk;Rechts;4;76;left;yes;50;leftarrow;365;false;focus;yes;793646;Chrome;112.0;Windows;10;undefined;undefined;1920 x 1200;1920 x 1200
H024;25;Mannelijk;Rechts;4;77;left;no;50;leftarrow;371;true;focus;yes;794772;Chrome;112.0;Windows;10;undefined;undefined;1920 x 1200;1920 x 1200
H024;25;Mannelijk;Rechts;4;78;left;no;50;leftarrow;349;true;focus;yes;795876;Chrome;112.0;Windows;10;undefined;undefined;1920 x 1200;1920 x 1200
H024;25;Mannelijk;Rechts;4;79;right;no;50;rightarrow;370;true;focus;yes;797002;Chrome;112.0;Windows;10;undefined;undefined;1920 x 1200;1920 x 1200
H024;25;Mannelijk;Rechts;4;80;right;no;50;rightarrow;370;true;focus;yes;798128;Chrome;112.0;Windows;10;undefined;undefined;1920 x 1200;1920 x 1200
H024;25;Mannelijk;Rechts;4;81;right;no;50;rightarrow;389;true;focus;yes;799273;Chrome;112.0;Windows;10;undefined;undefined;1920 x 1200;1920 x 1200
H024;25;Mannelijk;Rechts;4;82;right;yes;50;undefined;null;true;focus;yes;801280;Chrome;112.0;Windows;10;undefined;undefined;1920 x 1200;1920 x 1200
H024;25;Mannelijk;Rechts;4;83;right;no;100;rightarrow;406;true;focus;yes;802441;Chrome;112.0;Windows;10;undefined;undefined;1920 x 1200;1920 x 1200
H024;25;Mannelijk;Rechts;4;84;left;no;100;leftarrow;316;true;focus;yes;803512;Chrome;112.0;Windows;10;undefined;undefined;1920 x 1200;1920 x 1200
H024;25;Mannelijk;Rechts;4;85;left;no;100;leftarrow;336;true;focus;yes;804602;Chrome;112.0;Windows;10;undefined;undefined;1920 x 1200;1920 x 1200
H024;25;Mannelijk;Rechts;4;86;right;no;100;rightarrow;333;true;focus;yes;805691;Chrome;112.0;Windows;10;undefined;undefined;1920 x 1200;1920 x 1200
H024;25;Mannelijk;Rechts;4;87;left;no;100;leftarrow;285;true;focus;yes;806731;Chrome;112.0;Windows;10;undefined;undefined;1920 x 1200;1920 x 1200
H024;25;Mannelijk;Rechts;4;88;left;yes;100;leftarrow;335;false;focus;yes;807821;Chrome;112.0;Windows;10;undefined;undefined;1920 x 1200;1920 x 1200
H024;25;Mannelijk;Rechts;4;89;left;no;50;leftarrow;361;true;focus;yes;808938;Chrome;112.0;Windows;10;undefined;undefined;1920 x 1200;1920 x 1200
H024;25;Mannelijk;Rechts;4;90;left;no;50;leftarrow;361;true;focus;yes;810054;Chrome;112.0;Windows;10;undefined;undefined;1920 x 1200;1920 x 1200
H024;25;Mannelijk;Rechts;4;91;left;no;50;leftarrow;350;true;focus;yes;811158;Chrome;112.0;Windows;10;undefined;undefined;1920 x 1200;1920 x 1200
H024;25;Mannelijk;Rechts;4;92;right;no;50;rightarrow;375;true;focus;yes;812288;Chrome;112.0;Windows;10;undefined;undefined;1920 x 1200;1920 x 1200
H024;25;Mannelijk;Rechts;4;93;left;yes;50;leftarrow;408;false;focus;yes;813451;Chrome;112.0;Windows;10;undefined;undefined;1920 x 1200;1920 x 1200
H024;25;Mannelijk;Rechts;4;94;right;yes;50;undefined;null;true;focus;yes;815457;Chrome;112.0;Windows;10;undefined;undefined;1920 x 1200;1920 x 1200
H024;25;Mannelijk;Rechts;4;95;right;no;100;rightarrow;393;true;focus;yes;816605;Chrome;112.0;Windows;10;undefined;undefined;1920 x 1200;1920 x 1200
H024;25;Mannelijk;Rechts;4;96;right;no;100;rightarrow;348;true;focus;yes;817709;Chrome;112.0;Windows;10;undefined;undefined;1920 x 1200;1920 x 1200
H024;25;Mannelijk;Rechts;4;97;left;yes;100;leftarrow;340;false;focus;yes;818803;Chrome;112.0;Windows;10;undefined;undefined;1920 x 1200;1920 x 1200
H024;25;Mannelijk;Rechts;4;98;left;no;50;leftarrow;340;true;focus;yes;819897;Chrome;112.0;Windows;10;undefined;undefined;1920 x 1200;1920 x 1200
H024;25;Mannelijk;Rechts;4;99;right;no;50;rightarrow;321;true;focus;yes;820973;Chrome;112.0;Windows;10;undefined;undefined;1920 x 1200;1920 x 1200
H024;25;Mannelijk;Rechts;4;100;right;no;50;rightarrow;354;true;focus;yes;822081;Chrome;112.0;Windows;10;undefined;undefined;1920 x 1200;1920 x 1200
H024;25;Mannelijk;Rechts;4;101;left;no;50;leftarrow;415;true;focus;yes;825013;Chrome;112.0;Windows;10;undefined;undefined;1920 x 1200;1920 x 1200
H024;25;Mannelijk;Rechts;4;102;right;no;50;rightarrow;310;true;focus;yes;826080;Chrome;112.0;Windows;10;undefined;undefined;1920 x 1200;1920 x 1200
H024;25;Mannelijk;Rechts;4;103;right;yes;50;undefined;null;true;focus;yes;828087;Chrome;112.0;Windows;10;undefined;undefined;1920 x 1200;1920 x 1200
H024;25;Mannelijk;Rechts;4;104;left;no;100;leftarrow;334;true;focus;yes;829176;Chrome;112.0;Windows;10;undefined;undefined;1920 x 1200;1920 x 1200
H024;25;Mannelijk;Rechts;4;105;left;no;100;leftarrow;376;true;focus;yes;830307;Chrome;112.0;Windows;10;undefined;undefined;1920 x 1200;1920 x 1200
H024;25;Mannelijk;Rechts;4;106;right;no;100;rightarrow;308;true;focus;yes;831370;Chrome;112.0;Windows;10;undefined;undefined;1920 x 1200;1920 x 1200
H024;25;Mannelijk;Rechts;4;107;left;yes;100;leftarrow;328;false;focus;yes;832455;Chrome;112.0;Windows;10;undefined;undefined;1920 x 1200;1920 x 1200
H024;25;Mannelijk;Rechts;4;108;right;no;50;rightarrow;305;true;focus;yes;833517;Chrome;112.0;Windows;10;undefined;undefined;1920 x 1200;1920 x 1200
H024;25;Mannelijk;Rechts;4;109;right;no;50;rightarrow;357;true;focus;yes;834629;Chrome;112.0;Windows;10;undefined;undefined;1920 x 1200;1920 x 1200
H024;25;Mannelijk;Rechts;4;110;right;yes;50;undefined;null;true;focus;yes;836636;Chrome;112.0;Windows;10;undefined;undefined;1920 x 1200;1920 x 1200
H024;25;Mannelijk;Rechts;4;111;left;no;100;leftarrow;351;true;focus;yes;837741;Chrome;112.0;Windows;10;undefined;undefined;1920 x 1200;1920 x 1200
H024;25;Mannelijk;Rechts;4;112;left;no;100;leftarrow;369;true;focus;yes;838866;Chrome;112.0;Windows;10;undefined;undefined;1920 x 1200;1920 x 1200
H024;25;Mannelijk;Rechts;4;113;left;no;100;leftarrow;342;true;focus;yes;839964;Chrome;112.0;Windows;10;undefined;undefined;1920 x 1200;1920 x 1200
H024;25;Mannelijk;Rechts;4;114;left;yes;100;leftarrow;305;false;focus;yes;841025;Chrome;112.0;Windows;10;undefined;undefined;1920 x 1200;1920 x 1200
H024;25;Mannelijk;Rechts;4;115;left;no;50;leftarrow;332;true;focus;yes;842114;Chrome;112.0;Windows;10;undefined;undefined;1920 x 1200;1920 x 1200
H024;25;Mannelijk;Rechts;4;116;right;no;50;rightarrow;319;true;focus;yes;843189;Chrome;112.0;Windows;10;undefined;undefined;1920 x 1200;1920 x 1200
H024;25;Mannelijk;Rechts;4;117;right;no;50;rightarrow;332;true;focus;yes;844277;Chrome;112.0;Windows;10;undefined;undefined;1920 x 1200;1920 x 1200
H024;25;Mannelijk;Rechts;4;118;left;no;50;leftarrow;347;true;focus;yes;845379;Chrome;112.0;Windows;10;undefined;undefined;1920 x 1200;1920 x 1200
H024;25;Mannelijk;Rechts;4;119;right;no;50;rightarrow;305;true;focus;yes;846440;Chrome;112.0;Windows;10;undefined;undefined;1920 x 1200;1920 x 1200
H024;25;Mannelijk;Rechts;4;120;right;yes;50;undefined;null;true;focus;yes;848446;Chrome;112.0;Windows;10;undefined;undefined;1920 x 1200;1920 x 1200
H024;25;Mannelijk;Rechts;4;121;left;no;100;leftarrow;332;true;focus;yes;849534;Chrome;112.0;Windows;10;undefined;undefined;1920 x 1200;1920 x 1200
H024;25;Mannelijk;Rechts;4;122;right;no;100;rightarrow;330;true;focus;yes;850621;Chrome;112.0;Windows;10;undefined;undefined;1920 x 1200;1920 x 1200
H024;25;Mannelijk;Rechts;4;123;left;yes;100;leftarrow;284;false;focus;yes;851660;Chrome;112.0;Windows;10;undefined;undefined;1920 x 1200;1920 x 1200
H024;25;Mannelijk;Rechts;4;124;right;no;50;rightarrow;387;true;focus;yes;852803;Chrome;112.0;Windows;10;undefined;undefined;1920 x 1200;1920 x 1200
H024;25;Mannelijk;Rechts;4;125;left;no;50;leftarrow;630;true;focus;yes;855196;Chrome;112.0;Windows;10;undefined;undefined;1920 x 1200;1920 x 1200
H024;25;Mannelijk;Rechts;4;126;right;no;50;rightarrow;374;true;focus;yes;856326;Chrome;112.0;Windows;10;undefined;undefined;1920 x 1200;1920 x 1200
H024;25;Mannelijk;Rechts;4;127;right;yes;50;undefined;null;true;focus;yes;858333;Chrome;112.0;Windows;10;undefined;undefined;1920 x 1200;1920 x 1200
H024;25;Mannelijk;Rechts;4;128;left;no;100;leftarrow;343;true;focus;yes;859432;Chrome;112.0;Windows;10;undefined;undefined;1920 x 1200;1920 x 1200
H024;25;Mannelijk;Rechts;5;1;left;no;100;leftarrow;431;true;focus;yes;878421;Chrome;112.0;Windows;10;undefined;undefined;1920 x 1200;1920 x 1200
H024;25;Mannelijk;Rechts;5;2;right;no;100;rightarrow;342;true;focus;yes;879519;Chrome;112.0;Windows;10;undefined;undefined;1920 x 1200;1920 x 1200
H024;25;Mannelijk;Rechts;5;3;left;no;100;leftarrow;333;true;focus;yes;880608;Chrome;112.0;Windows;10;undefined;undefined;1920 x 1200;1920 x 1200
H024;25;Mannelijk;Rechts;5;4;right;no;100;rightarrow;315;true;focus;yes;881680;Chrome;112.0;Windows;10;undefined;undefined;1920 x 1200;1920 x 1200
H024;25;Mannelijk;Rechts;5;5;left;yes;100;leftarrow;311;false;focus;yes;882746;Chrome;112.0;Windows;10;undefined;undefined;1920 x 1200;1920 x 1200
H024;25;Mannelijk;Rechts;5;6;left;no;50;leftarrow;301;true;focus;yes;883803;Chrome;112.0;Windows;10;undefined;undefined;1920 x 1200;1920 x 1200
H024;25;Mannelijk;Rechts;5;7;right;yes;50;rightarrow;311;false;focus;yes;884870;Chrome;112.0;Windows;10;undefined;undefined;1920 x 1200;1920 x 1200
H024;25;Mannelijk;Rechts;5;8;right;no;50;leftarrow;301;false;focus;yes;885927;Chrome;112.0;Windows;10;undefined;undefined;1920 x 1200;1920 x 1200
H024;25;Mannelijk;Rechts;5;9;left;no;50;leftarrow;324;true;focus;yes;887007;Chrome;112.0;Windows;10;undefined;undefined;1920 x 1200;1920 x 1200
H024;25;Mannelijk;Rechts;5;10;left;no;50;rightarrow;329;false;focus;yes;888091;Chrome;112.0;Windows;10;undefined;undefined;1920 x 1200;1920 x 1200
H024;25;Mannelijk;Rechts;5;11;right;no;50;leftarrow;296;false;focus;yes;889144;Chrome;112.0;Windows;10;undefined;undefined;1920 x 1200;1920 x 1200
H024;25;Mannelijk;Rechts;5;12;right;no;50;rightarrow;368;true;focus;yes;890265;Chrome;112.0;Windows;10;undefined;undefined;1920 x 1200;1920 x 1200
H024;25;Mannelijk;Rechts;5;13;right;no;50;rightarrow;335;true;focus;yes;891359;Chrome;112.0;Windows;10;undefined;undefined;1920 x 1200;1920 x 1200
H024;25;Mannelijk;Rechts;5;14;left;no;50;leftarrow;323;true;focus;yes;892439;Chrome;112.0;Windows;10;undefined;undefined;1920 x 1200;1920 x 1200
H024;25;Mannelijk;Rechts;5;15;left;yes;50;leftarrow;333;false;focus;yes;893528;Chrome;112.0;Windows;10;undefined;undefined;1920 x 1200;1920 x 1200
H024;25;Mannelijk;Rechts;5;16;right;yes;50;rightarrow;306;false;focus;yes;894589;Chrome;112.0;Windows;10;undefined;undefined;1920 x 1200;1920 x 1200
H024;25;Mannelijk;Rechts;5;17;left;yes;50;leftarrow;307;false;focus;yes;895652;Chrome;112.0;Windows;10;undefined;undefined;1920 x 1200;1920 x 1200
H024;25;Mannelijk;Rechts;5;18;left;no;50;leftarrow;348;true;focus;yes;896755;Chrome;112.0;Windows;10;undefined;undefined;1920 x 1200;1920 x 1200
H024;25;Mannelijk;Rechts;5;19;right;no;50;rightarrow;301;true;focus;yes;897812;Chrome;112.0;Windows;10;undefined;undefined;1920 x 1200;1920 x 1200
H024;25;Mannelijk;Rechts;5;20;right;yes;50;undefined;null;true;focus;yes;899819;Chrome;112.0;Windows;10;undefined;undefined;1920 x 1200;1920 x 1200
H024;25;Mannelijk;Rechts;5;21;left;no;100;leftarrow;301;true;focus;yes;900875;Chrome;112.0;Windows;10;undefined;undefined;1920 x 1200;1920 x 1200
H024;25;Mannelijk;Rechts;5;22;right;no;100;rightarrow;293;true;focus;yes;901922;Chrome;112.0;Windows;10;undefined;undefined;1920 x 1200;1920 x 1200
H024;25;Mannelijk;Rechts;5;23;right;no;100;leftarrow;326;false;focus;yes;903003;Chrome;112.0;Windows;10;undefined;undefined;1920 x 1200;1920 x 1200
H024;25;Mannelijk;Rechts;5;24;left;no;100;rightarrow;354;false;focus;yes;904111;Chrome;112.0;Windows;10;undefined;undefined;1920 x 1200;1920 x 1200
H024;25;Mannelijk;Rechts;5;25;left;no;100;leftarrow;383;true;focus;yes;905250;Chrome;112.0;Windows;10;undefined;undefined;1920 x 1200;1920 x 1200
H024;25;Mannelijk;Rechts;5;26;left;no;100;rightarrow;284;false;focus;yes;906289;Chrome;112.0;Windows;10;undefined;undefined;1920 x 1200;1920 x 1200
H024;25;Mannelijk;Rechts;5;27;right;no;100;rightarrow;360;true;focus;yes;907405;Chrome;112.0;Windows;10;undefined;undefined;1920 x 1200;1920 x 1200
H024;25;Mannelijk;Rechts;5;28;right;no;100;rightarrow;351;true;focus;yes;908513;Chrome;112.0;Windows;10;undefined;undefined;1920 x 1200;1920 x 1200
H024;25;Mannelijk;Rechts;5;29;left;no;100;leftarrow;333;true;focus;yes;909602;Chrome;112.0;Windows;10;undefined;undefined;1920 x 1200;1920 x 1200
H024;25;Mannelijk;Rechts;5;30;right;yes;100;rightarrow;288;false;focus;yes;910646;Chrome;112.0;Windows;10;undefined;undefined;1920 x 1200;1920 x 1200
H024;25;Mannelijk;Rechts;5;31;right;no;50;rightarrow;398;true;focus;yes;911799;Chrome;112.0;Windows;10;undefined;undefined;1920 x 1200;1920 x 1200
H024;25;Mannelijk;Rechts;5;32;left;yes;50;undefined;null;true;focus;yes;913805;Chrome;112.0;Windows;10;undefined;undefined;1920 x 1200;1920 x 1200
H024;25;Mannelijk;Rechts;5;33;right;no;100;rightarrow;340;true;focus;yes;914903;Chrome;112.0;Windows;10;undefined;undefined;1920 x 1200;1920 x 1200
H024;25;Mannelijk;Rechts;5;34;right;no;100;rightarrow;365;true;focus;yes;916024;Chrome;112.0;Windows;10;undefined;undefined;1920 x 1200;1920 x 1200
H024;25;Mannelijk;Rechts;5;35;left;no;100;leftarrow;314;true;focus;yes;917095;Chrome;112.0;Windows;10;undefined;undefined;1920 x 1200;1920 x 1200
H024;25;Mannelijk;Rechts;5;36;left;no;100;rightarrow;335;false;focus;yes;918185;Chrome;112.0;Windows;10;undefined;undefined;1920 x 1200;1920 x 1200
H024;25;Mannelijk;Rechts;5;37;right;no;100;rightarrow;355;true;focus;yes;919297;Chrome;112.0;Windows;10;undefined;undefined;1920 x 1200;1920 x 1200
H024;25;Mannelijk;Rechts;5;38;left;yes;100;leftarrow;298;false;focus;yes;920350;Chrome;112.0;Windows;10;undefined;undefined;1920 x 1200;1920 x 1200
H024;25;Mannelijk;Rechts;5;39;right;yes;50;rightarrow;282;false;focus;yes;921389;Chrome;112.0;Windows;10;undefined;undefined;1920 x 1200;1920 x 1200
H024;25;Mannelijk;Rechts;5;40;left;no;50;leftarrow;329;true;focus;yes;922474;Chrome;112.0;Windows;10;undefined;undefined;1920 x 1200;1920 x 1200
H024;25;Mannelijk;Rechts;5;41;right;yes;50;rightarrow;338;false;focus;yes;923568;Chrome;112.0;Windows;10;undefined;undefined;1920 x 1200;1920 x 1200
H024;25;Mannelijk;Rechts;5;42;left;yes;50;leftarrow;294;false;focus;yes;924616;Chrome;112.0;Windows;10;undefined;undefined;1920 x 1200;1920 x 1200
H024;25;Mannelijk;Rechts;5;43;right;no;50;rightarrow;361;true;focus;yes;925732;Chrome;112.0;Windows;10;undefined;undefined;1920 x 1200;1920 x 1200
H024;25;Mannelijk;Rechts;5;44;right;no;50;rightarrow;530;true;focus;yes;927017;Chrome;112.0;Windows;10;undefined;undefined;1920 x 1200;1920 x 1200
H024;25;Mannelijk;Rechts;5;45;left;no;50;leftarrow;338;true;focus;yes;928111;Chrome;112.0;Windows;10;undefined;undefined;1920 x 1200;1920 x 1200
H024;25;Mannelijk;Rechts;5;46;left;no;50;leftarrow;378;true;focus;yes;929245;Chrome;112.0;Windows;10;undefined;undefined;1920 x 1200;1920 x 1200
H024;25;Mannelijk;Rechts;5;47;left;no;50;leftarrow;366;true;focus;yes;930366;Chrome;112.0;Windows;10;undefined;undefined;1920 x 1200;1920 x 1200
H024;25;Mannelijk;Rechts;5;48;right;no;50;rightarrow;323;true;focus;yes;931446;Chrome;112.0;Windows;10;undefined;undefined;1920 x 1200;1920 x 1200
H024;25;Mannelijk;Rechts;5;49;right;no;50;rightarrow;352;true;focus;yes;932554;Chrome;112.0;Windows;10;undefined;undefined;1920 x 1200;1920 x 1200
H024;25;Mannelijk;Rechts;5;50;left;no;50;leftarrow;349;true;focus;yes;933657;Chrome;112.0;Windows;10;undefined;undefined;1920 x 1200;1920 x 1200
H024;25;Mannelijk;Rechts;5;51;left;yes;50;undefined;null;true;focus;yes;935664;Chrome;112.0;Windows;10;undefined;undefined;1920 x 1200;1920 x 1200
H024;25;Mannelijk;Rechts;5;52;left;no;100;leftarrow;386;true;focus;yes;936806;Chrome;112.0;Windows;10;undefined;undefined;1920 x 1200;1920 x 1200
H024;25;Mannelijk;Rechts;5;53;left;no;100;rightarrow;303;false;focus;yes;937863;Chrome;112.0;Windows;10;undefined;undefined;1920 x 1200;1920 x 1200
H024;25;Mannelijk;Rechts;5;54;right;no;100;rightarrow;332;true;focus;yes;938952;Chrome;112.0;Windows;10;undefined;undefined;1920 x 1200;1920 x 1200
H024;25;Mannelijk;Rechts;5;55;right;yes;100;undefined;null;true;focus;yes;940959;Chrome;112.0;Windows;10;undefined;undefined;1920 x 1200;1920 x 1200
H024;25;Mannelijk;Rechts;5;56;right;no;150;rightarrow;376;true;focus;yes;942090;Chrome;112.0;Windows;10;undefined;undefined;1920 x 1200;1920 x 1200
H024;25;Mannelijk;Rechts;5;57;right;yes;150;leftarrow;333;false;focus;yes;943180;Chrome;112.0;Windows;10;undefined;undefined;1920 x 1200;1920 x 1200
H024;25;Mannelijk;Rechts;5;58;right;no;100;rightarrow;336;true;focus;yes;944272;Chrome;112.0;Windows;10;undefined;undefined;1920 x 1200;1920 x 1200
H024;25;Mannelijk;Rechts;5;59;left;yes;100;leftarrow;381;false;focus;yes;945408;Chrome;112.0;Windows;10;undefined;undefined;1920 x 1200;1920 x 1200
H024;25;Mannelijk;Rechts;5;60;left;no;50;leftarrow;430;true;focus;yes;946593;Chrome;112.0;Windows;10;undefined;undefined;1920 x 1200;1920 x 1200
H024;25;Mannelijk;Rechts;5;61;right;no;50;rightarrow;316;true;focus;yes;947695;Chrome;112.0;Windows;10;undefined;undefined;1920 x 1200;1920 x 1200
H024;25;Mannelijk;Rechts;5;62;right;no;50;rightarrow;394;true;focus;yes;948843;Chrome;112.0;Windows;10;undefined;undefined;1920 x 1200;1920 x 1200
H024;25;Mannelijk;Rechts;5;63;left;no;50;leftarrow;348;true;focus;yes;949946;Chrome;112.0;Windows;10;undefined;undefined;1920 x 1200;1920 x 1200
H024;25;Mannelijk;Rechts;5;64;left;no;50;leftarrow;420;true;focus;yes;951121;Chrome;112.0;Windows;10;undefined;undefined;1920 x 1200;1920 x 1200
H024;25;Mannelijk;Rechts;5;65;left;no;50;leftarrow;328;true;focus;yes;952206;Chrome;112.0;Windows;10;undefined;undefined;1920 x 1200;1920 x 1200
H024;25;Mannelijk;Rechts;5;66;left;no;50;leftarrow;336;true;focus;yes;953299;Chrome;112.0;Windows;10;undefined;undefined;1920 x 1200;1920 x 1200
H024;25;Mannelijk;Rechts;5;67;right;no;50;rightarrow;326;true;focus;yes;954380;Chrome;112.0;Windows;10;undefined;undefined;1920 x 1200;1920 x 1200
H024;25;Mannelijk;Rechts;5;68;right;yes;50;leftarrow;284;false;focus;yes;955420;Chrome;112.0;Windows;10;undefined;undefined;1920 x 1200;1920 x 1200
H024;25;Mannelijk;Rechts;5;69;left;yes;50;undefined;null;true;focus;yes;957427;Chrome;112.0;Windows;10;undefined;undefined;1920 x 1200;1920 x 1200
H024;25;Mannelijk;Rechts;5;70;right;no;100;rightarrow;354;true;focus;yes;958536;Chrome;112.0;Windows;10;undefined;undefined;1920 x 1200;1920 x 1200
H024;25;Mannelijk;Rechts;5;71;right;no;100;rightarrow;366;true;focus;yes;959658;Chrome;112.0;Windows;10;undefined;undefined;1920 x 1200;1920 x 1200
H024;25;Mannelijk;Rechts;5;72;left;no;100;leftarrow;340;true;focus;yes;960753;Chrome;112.0;Windows;10;undefined;undefined;1920 x 1200;1920 x 1200
H024;25;Mannelijk;Rechts;5;73;left;no;100;leftarrow;337;true;focus;yes;961847;Chrome;112.0;Windows;10;undefined;undefined;1920 x 1200;1920 x 1200
H024;25;Mannelijk;Rechts;5;74;right;yes;100;rightarrow;284;false;focus;yes;962887;Chrome;112.0;Windows;10;undefined;undefined;1920 x 1200;1920 x 1200
H024;25;Mannelijk;Rechts;5;75;left;no;50;leftarrow;348;true;focus;yes;963991;Chrome;112.0;Windows;10;undefined;undefined;1920 x 1200;1920 x 1200
H024;25;Mannelijk;Rechts;5;76;right;no;50;rightarrow;358;true;focus;yes;965104;Chrome;112.0;Windows;10;undefined;undefined;1920 x 1200;1920 x 1200
H024;25;Mannelijk;Rechts;5;77;left;no;50;leftarrow;326;true;focus;yes;966185;Chrome;112.0;Windows;10;undefined;undefined;1920 x 1200;1920 x 1200
H024;25;Mannelijk;Rechts;5;78;right;no;50;rightarrow;285;true;focus;yes;967225;Chrome;112.0;Windows;10;undefined;undefined;1920 x 1200;1920 x 1200
H024;25;Mannelijk;Rechts;5;79;left;yes;50;leftarrow;321;false;focus;yes;968302;Chrome;112.0;Windows;10;undefined;undefined;1920 x 1200;1920 x 1200
H024;25;Mannelijk;Rechts;5;80;right;no;50;rightarrow;297;true;focus;yes;969356;Chrome;112.0;Windows;10;undefined;undefined;1920 x 1200;1920 x 1200
H024;25;Mannelijk;Rechts;5;81;left;yes;50;undefined;null;true;focus;yes;971363;Chrome;112.0;Windows;10;undefined;undefined;1920 x 1200;1920 x 1200
H024;25;Mannelijk;Rechts;5;82;left;no;100;leftarrow;404;true;focus;yes;972524;Chrome;112.0;Windows;10;undefined;undefined;1920 x 1200;1920 x 1200
H024;25;Mannelijk;Rechts;5;83;right;yes;100;rightarrow;303;false;focus;yes;973582;Chrome;112.0;Windows;10;undefined;undefined;1920 x 1200;1920 x 1200
H024;25;Mannelijk;Rechts;5;84;right;no;50;rightarrow;356;true;focus;yes;974695;Chrome;112.0;Windows;10;undefined;undefined;1920 x 1200;1920 x 1200
H024;25;Mannelijk;Rechts;5;85;right;no;50;rightarrow;596;true;focus;yes;976045;Chrome;112.0;Windows;10;undefined;undefined;1920 x 1200;1920 x 1200
H024;25;Mannelijk;Rechts;5;86;right;no;50;rightarrow;354;true;focus;yes;977154;Chrome;112.0;Windows;10;undefined;undefined;1920 x 1200;1920 x 1200
H024;25;Mannelijk;Rechts;5;87;left;no;50;leftarrow;335;true;focus;yes;978245;Chrome;112.0;Windows;10;undefined;undefined;1920 x 1200;1920 x 1200
H024;25;Mannelijk;Rechts;5;88;left;no;50;leftarrow;382;true;focus;yes;979381;Chrome;112.0;Windows;10;undefined;undefined;1920 x 1200;1920 x 1200
H024;25;Mannelijk;Rechts;5;89;left;yes;50;undefined;null;true;focus;yes;981389;Chrome;112.0;Windows;10;undefined;undefined;1920 x 1200;1920 x 1200
H024;25;Mannelijk;Rechts;5;90;left;no;100;leftarrow;394;true;focus;yes;982540;Chrome;112.0;Windows;10;undefined;undefined;1920 x 1200;1920 x 1200
H024;25;Mannelijk;Rechts;5;91;right;no;100;rightarrow;326;true;focus;yes;983621;Chrome;112.0;Windows;10;undefined;undefined;1920 x 1200;1920 x 1200
H024;25;Mannelijk;Rechts;5;92;right;no;100;rightarrow;355;true;focus;yes;984732;Chrome;112.0;Windows;10;undefined;undefined;1920 x 1200;1920 x 1200
H024;25;Mannelijk;Rechts;5;93;right;no;100;rightarrow;344;true;focus;yes;985832;Chrome;112.0;Windows;10;undefined;undefined;1920 x 1200;1920 x 1200
H024;25;Mannelijk;Rechts;5;94;left;no;100;leftarrow;324;true;focus;yes;986912;Chrome;112.0;Windows;10;undefined;undefined;1920 x 1200;1920 x 1200
H024;25;Mannelijk;Rechts;5;95;left;no;100;leftarrow;417;true;focus;yes;988084;Chrome;112.0;Windows;10;undefined;undefined;1920 x 1200;1920 x 1200
H024;25;Mannelijk;Rechts;5;96;right;yes;100;rightarrow;331;false;focus;yes;989169;Chrome;112.0;Windows;10;undefined;undefined;1920 x 1200;1920 x 1200
H024;25;Mannelijk;Rechts;5;97;left;no;50;leftarrow;371;true;focus;yes;990295;Chrome;112.0;Windows;10;undefined;undefined;1920 x 1200;1920 x 1200
H024;25;Mannelijk;Rechts;5;98;left;no;50;leftarrow;658;true;focus;yes;991708;Chrome;112.0;Windows;10;undefined;undefined;1920 x 1200;1920 x 1200
H024;25;Mannelijk;Rechts;5;99;left;yes;50;undefined;null;true;focus;yes;993716;Chrome;112.0;Windows;10;undefined;undefined;1920 x 1200;1920 x 1200
H024;25;Mannelijk;Rechts;5;100;right;no;100;rightarrow;322;true;focus;yes;994794;Chrome;112.0;Windows;10;undefined;undefined;1920 x 1200;1920 x 1200
H024;25;Mannelijk;Rechts;5;101;right;no;100;rightarrow;442;true;focus;yes;995989;Chrome;112.0;Windows;10;undefined;undefined;1920 x 1200;1920 x 1200
H024;25;Mannelijk;Rechts;5;102;right;no;100;rightarrow;339;true;focus;yes;997083;Chrome;112.0;Windows;10;undefined;undefined;1920 x 1200;1920 x 1200
H024;25;Mannelijk;Rechts;5;103;right;yes;100;rightarrow;361;false;focus;yes;998702;Chrome;112.0;Windows;10;undefined;undefined;1920 x 1200;1920 x 1200
H024;25;Mannelijk;Rechts;5;104;left;no;50;leftarrow;390;true;focus;yes;999846;Chrome;112.0;Windows;10;undefined;undefined;1920 x 1200;1920 x 1200
H024;25;Mannelijk;Rechts;5;105;left;no;50;leftarrow;347;true;focus;yes;1000949;Chrome;112.0;Windows;10;undefined;undefined;1920 x 1200;1920 x 1200
H024;25;Mannelijk;Rechts;5;106;right;yes;50;rightarrow;344;false;focus;yes;1002048;Chrome;112.0;Windows;10;undefined;undefined;1920 x 1200;1920 x 1200
H024;25;Mannelijk;Rechts;5;107;left;no;50;leftarrow;370;true;focus;yes;1003174;Chrome;112.0;Windows;10;undefined;undefined;1920 x 1200;1920 x 1200
H024;25;Mannelijk;Rechts;5;108;right;no;50;rightarrow;312;true;focus;yes;1004241;Chrome;112.0;Windows;10;undefined;undefined;1920 x 1200;1920 x 1200
H024;25;Mannelijk;Rechts;5;109;left;yes;50;leftarrow;297;false;focus;yes;1005294;Chrome;112.0;Windows;10;undefined;undefined;1920 x 1200;1920 x 1200
H024;25;Mannelijk;Rechts;5;110;left;no;50;leftarrow;407;true;focus;yes;1006456;Chrome;112.0;Windows;10;undefined;undefined;1920 x 1200;1920 x 1200
H024;25;Mannelijk;Rechts;5;111;right;no;50;rightarrow;326;true;focus;yes;1007541;Chrome;112.0;Windows;10;undefined;undefined;1920 x 1200;1920 x 1200
H024;25;Mannelijk;Rechts;5;112;right;no;50;rightarrow;375;true;focus;yes;1008672;Chrome;112.0;Windows;10;undefined;undefined;1920 x 1200;1920 x 1200
H024;25;Mannelijk;Rechts;5;113;right;yes;50;undefined;null;true;focus;yes;1010678;Chrome;112.0;Windows;10;undefined;undefined;1920 x 1200;1920 x 1200
H024;25;Mannelijk;Rechts;5;114;right;no;100;rightarrow;366;true;focus;yes;1011799;Chrome;112.0;Windows;10;undefined;undefined;1920 x 1200;1920 x 1200
H024;25;Mannelijk;Rechts;5;115;left;no;100;leftarrow;385;true;focus;yes;1013946;Chrome;112.0;Windows;10;undefined;undefined;1920 x 1200;1920 x 1200
H024;25;Mannelijk;Rechts;5;116;right;no;100;rightarrow;395;true;focus;yes;1015098;Chrome;112.0;Windows;10;undefined;undefined;1920 x 1200;1920 x 1200
H024;25;Mannelijk;Rechts;5;117;left;no;100;leftarrow;306;true;focus;yes;1016160;Chrome;112.0;Windows;10;undefined;undefined;1920 x 1200;1920 x 1200
H024;25;Mannelijk;Rechts;5;118;left;yes;100;undefined;null;true;focus;yes;1018166;Chrome;112.0;Windows;10;undefined;undefined;1920 x 1200;1920 x 1200
H024;25;Mannelijk;Rechts;5;119;right;no;150;rightarrow;357;true;focus;yes;1019279;Chrome;112.0;Windows;10;undefined;undefined;1920 x 1200;1920 x 1200
H024;25;Mannelijk;Rechts;5;120;left;no;150;leftarrow;342;true;focus;yes;1020377;Chrome;112.0;Windows;10;undefined;undefined;1920 x 1200;1920 x 1200
H024;25;Mannelijk;Rechts;5;121;right;no;150;rightarrow;309;true;focus;yes;1021440;Chrome;112.0;Windows;10;undefined;undefined;1920 x 1200;1920 x 1200
H024;25;Mannelijk;Rechts;5;122;right;no;150;rightarrow;506;true;focus;yes;1022702;Chrome;112.0;Windows;10;undefined;undefined;1920 x 1200;1920 x 1200
H024;25;Mannelijk;Rechts;5;123;left;no;150;leftarrow;367;true;focus;yes;1023824;Chrome;112.0;Windows;10;undefined;undefined;1920 x 1200;1920 x 1200
H024;25;Mannelijk;Rechts;5;124;right;no;150;rightarrow;340;true;focus;yes;1024922;Chrome;112.0;Windows;10;undefined;undefined;1920 x 1200;1920 x 1200
H024;25;Mannelijk;Rechts;5;125;right;yes;150;rightarrow;346;false;focus;yes;1026025;Chrome;112.0;Windows;10;undefined;undefined;1920 x 1200;1920 x 1200
H024;25;Mannelijk;Rechts;5;126;left;no;100;leftarrow;359;true;focus;yes;1027138;Chrome;112.0;Windows;10;undefined;undefined;1920 x 1200;1920 x 1200
H024;25;Mannelijk;Rechts;5;127;left;no;100;leftarrow;356;true;focus;yes;1028250;Chrome;112.0;Windows;10;undefined;undefined;1920 x 1200;1920 x 1200
H024;25;Mannelijk;Rechts;5;128;left;yes;100;undefined;null;true;focus;yes;1030256;Chrome;112.0;Windows;10;undefined;undefined;1920 x 1200;1920 x 1200
H024;25;Mannelijk;Rechts;6;1;left;no;150;leftarrow;362;true;focus;yes;1048798;Chrome;112.0;Windows;10;undefined;undefined;1920 x 1200;1920 x 1200
H024;25;Mannelijk;Rechts;6;2;left;no;150;leftarrow;346;true;focus;yes;1049901;Chrome;112.0;Windows;10;undefined;undefined;1920 x 1200;1920 x 1200
H024;25;Mannelijk;Rechts;6;3;left;no;150;leftarrow;329;true;focus;yes;1050986;Chrome;112.0;Windows;10;undefined;undefined;1920 x 1200;1920 x 1200
H024;25;Mannelijk;Rechts;6;4;right;no;150;rightarrow;315;true;focus;yes;1052057;Chrome;112.0;Windows;10;undefined;undefined;1920 x 1200;1920 x 1200
H024;25;Mannelijk;Rechts;6;5;right;no;150;rightarrow;342;true;focus;yes;1053155;Chrome;112.0;Windows;10;undefined;undefined;1920 x 1200;1920 x 1200
H024;25;Mannelijk;Rechts;6;6;right;no;150;rightarrow;330;true;focus;yes;1054241;Chrome;112.0;Windows;10;undefined;undefined;1920 x 1200;1920 x 1200
H024;25;Mannelijk;Rechts;6;7;left;yes;150;leftarrow;310;false;focus;yes;1055307;Chrome;112.0;Windows;10;undefined;undefined;1920 x 1200;1920 x 1200
H024;25;Mannelijk;Rechts;6;8;right;yes;100;rightarrow;353;false;focus;yes;1056415;Chrome;112.0;Windows;10;undefined;undefined;1920 x 1200;1920 x 1200
H024;25;Mannelijk;Rechts;6;9;right;no;50;leftarrow;393;false;focus;yes;1057563;Chrome;112.0;Windows;10;undefined;undefined;1920 x 1200;1920 x 1200
H024;25;Mannelijk;Rechts;6;10;right;no;50;rightarrow;339;true;focus;yes;1058657;Chrome;112.0;Windows;10;undefined;undefined;1920 x 1200;1920 x 1200
H024;25;Mannelijk;Rechts;6;11;left;no;50;leftarrow;325;true;focus;yes;1059739;Chrome;112.0;Windows;10;undefined;undefined;1920 x 1200;1920 x 1200
H024;25;Mannelijk;Rechts;6;12;right;no;50;rightarrow;319;true;focus;yes;1060814;Chrome;112.0;Windows;10;undefined;undefined;1920 x 1200;1920 x 1200
H024;25;Mannelijk;Rechts;6;13;left;no;50;leftarrow;301;true;focus;yes;1061872;Chrome;112.0;Windows;10;undefined;undefined;1920 x 1200;1920 x 1200
H024;25;Mannelijk;Rechts;6;14;left;no;50;leftarrow;376;true;focus;yes;1063003;Chrome;112.0;Windows;10;undefined;undefined;1920 x 1200;1920 x 1200
H024;25;Mannelijk;Rechts;6;15;left;yes;50;rightarrow;248;false;focus;yes;1064005;Chrome;112.0;Windows;10;undefined;undefined;1920 x 1200;1920 x 1200
H024;25;Mannelijk;Rechts;6;16;right;yes;50;undefined;null;true;focus;yes;1066013;Chrome;112.0;Windows;10;undefined;undefined;1920 x 1200;1920 x 1200
H024;25;Mannelijk;Rechts;6;17;left;no;100;leftarrow;341;true;focus;yes;1067111;Chrome;112.0;Windows;10;undefined;undefined;1920 x 1200;1920 x 1200
H024;25;Mannelijk;Rechts;6;18;left;yes;100;rightarrow;324;false;focus;yes;1068191;Chrome;112.0;Windows;10;undefined;undefined;1920 x 1200;1920 x 1200
H024;25;Mannelijk;Rechts;6;19;right;no;50;rightarrow;375;true;focus;yes;1069321;Chrome;112.0;Windows;10;undefined;undefined;1920 x 1200;1920 x 1200
H024;25;Mannelijk;Rechts;6;20;right;no;50;rightarrow;343;true;focus;yes;1070421;Chrome;112.0;Windows;10;undefined;undefined;1920 x 1200;1920 x 1200
H024;25;Mannelijk;Rechts;6;21;right;yes;50;undefined;null;true;focus;yes;1072433;Chrome;112.0;Windows;10;undefined;undefined;1920 x 1200;1920 x 1200
H024;25;Mannelijk;Rechts;6;22;left;no;100;leftarrow;367;true;focus;yes;1073557;Chrome;112.0;Windows;10;undefined;undefined;1920 x 1200;1920 x 1200
H024;25;Mannelijk;Rechts;6;23;right;no;100;rightarrow;325;true;focus;yes;1074638;Chrome;112.0;Windows;10;undefined;undefined;1920 x 1200;1920 x 1200
H024;25;Mannelijk;Rechts;6;24;left;no;100;leftarrow;335;true;focus;yes;1075728;Chrome;112.0;Windows;10;undefined;undefined;1920 x 1200;1920 x 1200
