participantID;age;gender;handedness;block_i;trial_i;stim;signal;SSD;response;rt;correct;focus;Fullscreen;time_elapsed;browser_name;browser_version;os_name;os_version;tablet;mobile;screen_resolution;window_resolution
H028;31;Vrouwelijk;Rechts;0;1;right;no;200;rightarrow;484;true;focus;yes;124749;Chrome;112.0;macOS;10.15.7;undefined;undefined;1440 x 900;1440 x 900
H028;31;Vrouwelijk;Rechts;0;2;left;no;200;leftarrow;331;true;focus;yes;126601;Chrome;112.0;macOS;10.15.7;undefined;undefined;1440 x 900;1440 x 900
H028;31;Vrouwelijk;Rechts;0;3;right;no;200;rightarrow;423;true;focus;yes;128559;Chrome;112.0;macOS;10.15.7;undefined;undefined;1440 x 900;1440 x 900
H028;31;Vrouwelijk;Rechts;0;4;right;no;200;rightarrow;408;true;focus;yes;130501;Chrome;112.0;macOS;10.15.7;undefined;undefined;1440 x 900;1440 x 900
H028;31;Vrouwelijk;Rechts;0;5;left;no;200;leftarrow;293;true;focus;yes;132321;Chrome;112.0;macOS;10.15.7;undefined;undefined;1440 x 900;1440 x 900
H028;31;Vrouwelijk;Rechts;0;6;left;no;200;leftarrow;385;true;focus;yes;134227;Chrome;112.0;macOS;10.15.7;undefined;undefined;1440 x 900;1440 x 900
H028;31;Vrouwelijk;Rechts;0;7;left;yes;200;leftarrow;391;false;focus;yes;136138;Chrome;112.0;macOS;10.15.7;undefined;undefined;1440 x 900;1440 x 900
H028;31;Vrouwelijk;Rechts;0;8;right;yes;150;rightarrow;628;false;focus;yes;138291;Chrome;112.0;macOS;10.15.7;undefined;undefined;1440 x 900;1440 x 900
H028;31;Vrouwelijk;Rechts;1;1;right;yes;100;rightarrow;379;false;focus;yes;158967;Chrome;112.0;macOS;10.15.7;undefined;undefined;1440 x 900;1440 x 900
H028;31;Vrouwelijk;Rechts;1;2;left;no;50;leftarrow;335;true;focus;yes;160066;Chrome;112.0;macOS;10.15.7;undefined;undefined;1440 x 900;1440 x 900
H028;31;Vrouwelijk;Rechts;1;3;right;no;50;rightarrow;376;true;focus;yes;161210;Chrome;112.0;macOS;10.15.7;undefined;undefined;1440 x 900;1440 x 900
H028;31;Vrouwelijk;Rechts;1;4;right;no;50;rightarrow;429;true;focus;yes;162403;Chrome;112.0;macOS;10.15.7;undefined;undefined;1440 x 900;1440 x 900
H028;31;Vrouwelijk;Rechts;1;5;left;yes;50;undefined;null;true;focus;yes;164434;Chrome;112.0;macOS;10.15.7;undefined;undefined;1440 x 900;1440 x 900
H028;31;Vrouwelijk;Rechts;1;6;right;no;100;rightarrow;309;true;focus;yes;165521;Chrome;112.0;macOS;10.15.7;undefined;undefined;1440 x 900;1440 x 900
H028;31;Vrouwelijk;Rechts;1;7;left;no;100;leftarrow;407;true;focus;yes;166696;Chrome;112.0;macOS;10.15.7;undefined;undefined;1440 x 900;1440 x 900
H028;31;Vrouwelijk;Rechts;1;8;left;no;100;leftarrow;447;true;focus;yes;167914;Chrome;112.0;macOS;10.15.7;undefined;undefined;1440 x 900;1440 x 900
H028;31;Vrouwelijk;Rechts;1;9;left;no;100;leftarrow;434;true;focus;yes;169118;Chrome;112.0;macOS;10.15.7;undefined;undefined;1440 x 900;1440 x 900
H028;31;Vrouwelijk;Rechts;1;10;left;no;100;leftarrow;547;true;focus;yes;170428;Chrome;112.0;macOS;10.15.7;undefined;undefined;1440 x 900;1440 x 900
H028;31;Vrouwelijk;Rechts;1;11;right;no;100;rightarrow;368;true;focus;yes;171563;Chrome;112.0;macOS;10.15.7;undefined;undefined;1440 x 900;1440 x 900
H028;31;Vrouwelijk;Rechts;1;12;right;no;100;rightarrow;373;true;focus;yes;172698;Chrome;112.0;macOS;10.15.7;undefined;undefined;1440 x 900;1440 x 900
H028;31;Vrouwelijk;Rechts;1;13;right;no;100;rightarrow;403;true;focus;yes;173868;Chrome;112.0;macOS;10.15.7;undefined;undefined;1440 x 900;1440 x 900
H028;31;Vrouwelijk;Rechts;1;14;left;no;100;leftarrow;507;true;focus;yes;175141;Chrome;112.0;macOS;10.15.7;undefined;undefined;1440 x 900;1440 x 900
H028;31;Vrouwelijk;Rechts;1;15;right;yes;100;undefined;null;true;focus;yes;177158;Chrome;112.0;macOS;10.15.7;undefined;undefined;1440 x 900;1440 x 900
H028;31;Vrouwelijk;Rechts;1;16;left;yes;150;leftarrow;399;false;focus;yes;178319;Chrome;112.0;macOS;10.15.7;undefined;undefined;1440 x 900;1440 x 900
H028;31;Vrouwelijk;Rechts;1;17;left;no;100;leftarrow;707;true;focus;yes;179788;Chrome;112.0;macOS;10.15.7;undefined;undefined;1440 x 900;1440 x 900
H028;31;Vrouwelijk;Rechts;1;18;right;no;100;rightarrow;383;true;focus;yes;180936;Chrome;112.0;macOS;10.15.7;undefined;undefined;1440 x 900;1440 x 900
H028;31;Vrouwelijk;Rechts;1;19;right;yes;100;undefined;null;true;focus;yes;182959;Chrome;112.0;macOS;10.15.7;undefined;undefined;1440 x 900;1440 x 900
H028;31;Vrouwelijk;Rechts;1;20;left;yes;150;leftarrow;326;false;focus;yes;184048;Chrome;112.0;macOS;10.15.7;undefined;undefined;1440 x 900;1440 x 900
H028;31;Vrouwelijk;Rechts;1;21;left;no;100;leftarrow;522;true;focus;yes;185339;Chrome;112.0;macOS;10.15.7;undefined;undefined;1440 x 900;1440 x 900
H028;31;Vrouwelijk;Rechts;1;22;right;no;100;rightarrow;469;true;focus;yes;186583;Chrome;112.0;macOS;10.15.7;undefined;undefined;1440 x 900;1440 x 900
H028;31;Vrouwelijk;Rechts;1;23;left;no;100;leftarrow;633;true;focus;yes;187976;Chrome;112.0;macOS;10.15.7;undefined;undefined;1440 x 900;1440 x 900
H028;31;Vrouwelijk;Rechts;1;24;right;no;100;rightarrow;529;true;focus;yes;189273;Chrome;112.0;macOS;10.15.7;undefined;undefined;1440 x 900;1440 x 900
H028;31;Vrouwelijk;Rechts;1;25;left;no;100;leftarrow;449;true;focus;yes;190490;Chrome;112.0;macOS;10.15.7;undefined;undefined;1440 x 900;1440 x 900
H028;31;Vrouwelijk;Rechts;1;26;right;no;100;rightarrow;421;true;focus;yes;191678;Chrome;112.0;macOS;10.15.7;undefined;undefined;1440 x 900;1440 x 900
H028;31;Vrouwelijk;Rechts;1;27;right;yes;100;undefined;null;true;focus;yes;193696;Chrome;112.0;macOS;10.15.7;undefined;undefined;1440 x 900;1440 x 900
H028;31;Vrouwelijk;Rechts;1;28;left;no;150;leftarrow;396;true;focus;yes;194862;Chrome;112.0;macOS;10.15.7;undefined;undefined;1440 x 900;1440 x 900
H028;31;Vrouwelijk;Rechts;1;29;right;no;150;rightarrow;570;true;focus;yes;196195;Chrome;112.0;macOS;10.15.7;undefined;undefined;1440 x 900;1440 x 900
H028;31;Vrouwelijk;Rechts;1;30;right;no;150;rightarrow;534;true;focus;yes;197495;Chrome;112.0;macOS;10.15.7;undefined;undefined;1440 x 900;1440 x 900
H028;31;Vrouwelijk;Rechts;1;31;left;no;150;leftarrow;634;true;focus;yes;198899;Chrome;112.0;macOS;10.15.7;undefined;undefined;1440 x 900;1440 x 900
H028;31;Vrouwelijk;Rechts;1;32;left;yes;150;undefined;null;true;focus;yes;200919;Chrome;112.0;macOS;10.15.7;undefined;undefined;1440 x 900;1440 x 900
H028;31;Vrouwelijk;Rechts;1;33;right;no;200;rightarrow;420;true;focus;yes;202110;Chrome;112.0;macOS;10.15.7;undefined;undefined;1440 x 900;1440 x 900
H028;31;Vrouwelijk;Rechts;1;34;right;no;200;rightarrow;497;true;focus;yes;203369;Chrome;112.0;macOS;10.15.7;undefined;undefined;1440 x 900;1440 x 900
H028;31;Vrouwelijk;Rechts;1;35;left;no;200;leftarrow;534;true;focus;yes;204670;Chrome;112.0;macOS;10.15.7;undefined;undefined;1440 x 900;1440 x 900
H028;31;Vrouwelijk;Rechts;1;36;right;no;200;rightarrow;502;true;focus;yes;205935;Chrome;112.0;macOS;10.15.7;undefined;undefined;1440 x 900;1440 x 900
H028;31;Vrouwelijk;Rechts;1;37;left;no;200;leftarrow;631;true;focus;yes;207334;Chrome;112.0;macOS;10.15.7;undefined;undefined;1440 x 900;1440 x 900
H028;31;Vrouwelijk;Rechts;1;38;left;no;200;leftarrow;501;true;focus;yes;208595;Chrome;112.0;macOS;10.15.7;undefined;undefined;1440 x 900;1440 x 900
H028;31;Vrouwelijk;Rechts;1;39;right;yes;200;undefined;null;true;focus;yes;210616;Chrome;112.0;macOS;10.15.7;undefined;undefined;1440 x 900;1440 x 900
H028;31;Vrouwelijk;Rechts;1;40;left;yes;250;leftarrow;412;false;focus;yes;211799;Chrome;112.0;macOS;10.15.7;undefined;undefined;1440 x 900;1440 x 900
H028;31;Vrouwelijk;Rechts;1;41;right;no;200;rightarrow;371;true;focus;yes;212939;Chrome;112.0;macOS;10.15.7;undefined;undefined;1440 x 900;1440 x 900
H028;31;Vrouwelijk;Rechts;1;42;right;no;200;rightarrow;504;true;focus;yes;214207;Chrome;112.0;macOS;10.15.7;undefined;undefined;1440 x 900;1440 x 900
H028;31;Vrouwelijk;Rechts;1;43;right;yes;200;undefined;null;true;focus;yes;216238;Chrome;112.0;macOS;10.15.7;undefined;undefined;1440 x 900;1440 x 900
H028;31;Vrouwelijk;Rechts;1;44;left;no;250;leftarrow;387;true;focus;yes;217389;Chrome;112.0;macOS;10.15.7;undefined;undefined;1440 x 900;1440 x 900
H028;31;Vrouwelijk;Rechts;1;45;left;yes;250;undefined;null;true;focus;yes;219407;Chrome;112.0;macOS;10.15.7;undefined;undefined;1440 x 900;1440 x 900
H028;31;Vrouwelijk;Rechts;1;46;left;no;300;leftarrow;506;true;focus;yes;220683;Chrome;112.0;macOS;10.15.7;undefined;undefined;1440 x 900;1440 x 900
H028;31;Vrouwelijk;Rechts;1;47;left;no;300;leftarrow;557;true;focus;yes;222004;Chrome;112.0;macOS;10.15.7;undefined;undefined;1440 x 900;1440 x 900
H028;31;Vrouwelijk;Rechts;1;48;right;no;300;rightarrow;526;true;focus;yes;223289;Chrome;112.0;macOS;10.15.7;undefined;undefined;1440 x 900;1440 x 900
H028;31;Vrouwelijk;Rechts;1;49;right;no;300;rightarrow;557;true;focus;yes;224614;Chrome;112.0;macOS;10.15.7;undefined;undefined;1440 x 900;1440 x 900
H028;31;Vrouwelijk;Rechts;1;50;right;no;300;rightarrow;625;true;focus;yes;226000;Chrome;112.0;macOS;10.15.7;undefined;undefined;1440 x 900;1440 x 900
H028;31;Vrouwelijk;Rechts;1;51;left;no;300;leftarrow;533;true;focus;yes;227301;Chrome;112.0;macOS;10.15.7;undefined;undefined;1440 x 900;1440 x 900
H028;31;Vrouwelijk;Rechts;1;52;left;yes;300;leftarrow;466;false;focus;yes;228529;Chrome;112.0;macOS;10.15.7;undefined;undefined;1440 x 900;1440 x 900
H028;31;Vrouwelijk;Rechts;1;53;left;no;250;leftarrow;662;true;focus;yes;229957;Chrome;112.0;macOS;10.15.7;undefined;undefined;1440 x 900;1440 x 900
H028;31;Vrouwelijk;Rechts;1;54;left;no;250;leftarrow;647;true;focus;yes;231375;Chrome;112.0;macOS;10.15.7;undefined;undefined;1440 x 900;1440 x 900
H028;31;Vrouwelijk;Rechts;1;55;right;yes;250;undefined;null;true;focus;yes;233415;Chrome;112.0;macOS;10.15.7;undefined;undefined;1440 x 900;1440 x 900
H028;31;Vrouwelijk;Rechts;1;56;right;no;300;rightarrow;511;true;focus;yes;234696;Chrome;112.0;macOS;10.15.7;undefined;undefined;1440 x 900;1440 x 900
H028;31;Vrouwelijk;Rechts;1;57;right;no;300;rightarrow;584;true;focus;yes;236047;Chrome;112.0;macOS;10.15.7;undefined;undefined;1440 x 900;1440 x 900
H028;31;Vrouwelijk;Rechts;1;58;left;yes;300;undefined;null;true;focus;yes;238067;Chrome;112.0;macOS;10.15.7;undefined;undefined;1440 x 900;1440 x 900
H028;31;Vrouwelijk;Rechts;1;59;right;no;350;rightarrow;468;true;focus;yes;239309;Chrome;112.0;macOS;10.15.7;undefined;undefined;1440 x 900;1440 x 900
H028;31;Vrouwelijk;Rechts;1;60;left;no;350;leftarrow;585;true;focus;yes;240656;Chrome;112.0;macOS;10.15.7;undefined;undefined;1440 x 900;1440 x 900
H028;31;Vrouwelijk;Rechts;1;61;left;no;350;leftarrow;685;true;focus;yes;242109;Chrome;112.0;macOS;10.15.7;undefined;undefined;1440 x 900;1440 x 900
H028;31;Vrouwelijk;Rechts;1;62;left;no;350;leftarrow;737;true;focus;yes;243607;Chrome;112.0;macOS;10.15.7;undefined;undefined;1440 x 900;1440 x 900
H028;31;Vrouwelijk;Rechts;1;63;right;no;350;rightarrow;762;true;focus;yes;245127;Chrome;112.0;macOS;10.15.7;undefined;undefined;1440 x 900;1440 x 900
H028;31;Vrouwelijk;Rechts;1;64;right;yes;350;rightarrow;585;false;focus;yes;246480;Chrome;112.0;macOS;10.15.7;undefined;undefined;1440 x 900;1440 x 900
H028;31;Vrouwelijk;Rechts;1;65;left;no;300;leftarrow;715;true;focus;yes;247972;Chrome;112.0;macOS;10.15.7;undefined;undefined;1440 x 900;1440 x 900
H028;31;Vrouwelijk;Rechts;1;66;left;no;300;leftarrow;954;true;focus;yes;249687;Chrome;112.0;macOS;10.15.7;undefined;undefined;1440 x 900;1440 x 900
H028;31;Vrouwelijk;Rechts;1;67;right;no;300;rightarrow;778;true;focus;yes;251233;Chrome;112.0;macOS;10.15.7;undefined;undefined;1440 x 900;1440 x 900
H028;31;Vrouwelijk;Rechts;1;68;right;no;300;rightarrow;687;true;focus;yes;252681;Chrome;112.0;macOS;10.15.7;undefined;undefined;1440 x 900;1440 x 900
H028;31;Vrouwelijk;Rechts;1;69;right;yes;300;undefined;null;true;focus;yes;254717;Chrome;112.0;macOS;10.15.7;undefined;undefined;1440 x 900;1440 x 900
H028;31;Vrouwelijk;Rechts;1;70;left;yes;350;leftarrow;499;false;focus;yes;255988;Chrome;112.0;macOS;10.15.7;undefined;undefined;1440 x 900;1440 x 900
H028;31;Vrouwelijk;Rechts;1;71;left;no;300;leftarrow;886;true;focus;yes;257637;Chrome;112.0;macOS;10.15.7;undefined;undefined;1440 x 900;1440 x 900
H028;31;Vrouwelijk;Rechts;1;72;right;no;300;rightarrow;842;true;focus;yes;259249;Chrome;112.0;macOS;10.15.7;undefined;undefined;1440 x 900;1440 x 900
H028;31;Vrouwelijk;Rechts;1;73;right;yes;300;undefined;null;true;focus;yes;261267;Chrome;112.0;macOS;10.15.7;undefined;undefined;1440 x 900;1440 x 900
H028;31;Vrouwelijk;Rechts;1;74;right;no;350;rightarrow;652;true;focus;yes;262695;Chrome;112.0;macOS;10.15.7;undefined;undefined;1440 x 900;1440 x 900
H028;31;Vrouwelijk;Rechts;1;75;right;no;350;rightarrow;592;true;focus;yes;264053;Chrome;112.0;macOS;10.15.7;undefined;undefined;1440 x 900;1440 x 900
H028;31;Vrouwelijk;Rechts;1;76;right;no;350;rightarrow;828;true;focus;yes;265642;Chrome;112.0;macOS;10.15.7;undefined;undefined;1440 x 900;1440 x 900
H028;31;Vrouwelijk;Rechts;1;77;left;no;350;leftarrow;672;true;focus;yes;267079;Chrome;112.0;macOS;10.15.7;undefined;undefined;1440 x 900;1440 x 900
H028;31;Vrouwelijk;Rechts;1;78;left;no;350;leftarrow;606;true;focus;yes;268444;Chrome;112.0;macOS;10.15.7;undefined;undefined;1440 x 900;1440 x 900
H028;31;Vrouwelijk;Rechts;1;79;left;no;350;leftarrow;794;true;focus;yes;270018;Chrome;112.0;macOS;10.15.7;undefined;undefined;1440 x 900;1440 x 900
H028;31;Vrouwelijk;Rechts;1;80;left;yes;350;undefined;null;true;focus;yes;272037;Chrome;112.0;macOS;10.15.7;undefined;undefined;1440 x 900;1440 x 900
H028;31;Vrouwelijk;Rechts;1;81;right;no;400;rightarrow;383;true;focus;yes;273198;Chrome;112.0;macOS;10.15.7;undefined;undefined;1440 x 900;1440 x 900
H028;31;Vrouwelijk;Rechts;1;82;left;no;400;leftarrow;651;true;focus;yes;274616;Chrome;112.0;macOS;10.15.7;undefined;undefined;1440 x 900;1440 x 900
H028;31;Vrouwelijk;Rechts;1;83;left;no;400;leftarrow;750;true;focus;yes;276132;Chrome;112.0;macOS;10.15.7;undefined;undefined;1440 x 900;1440 x 900
H028;31;Vrouwelijk;Rechts;1;84;right;no;400;rightarrow;655;true;focus;yes;277558;Chrome;112.0;macOS;10.15.7;undefined;undefined;1440 x 900;1440 x 900
H028;31;Vrouwelijk;Rechts;1;85;right;no;400;rightarrow;691;true;focus;yes;279016;Chrome;112.0;macOS;10.15.7;undefined;undefined;1440 x 900;1440 x 900
H028;31;Vrouwelijk;Rechts;1;86;left;no;400;leftarrow;836;true;focus;yes;280618;Chrome;112.0;macOS;10.15.7;undefined;undefined;1440 x 900;1440 x 900
H028;31;Vrouwelijk;Rechts;1;87;right;yes;400;undefined;null;true;focus;yes;282634;Chrome;112.0;macOS;10.15.7;undefined;undefined;1440 x 900;1440 x 900
H028;31;Vrouwelijk;Rechts;1;88;left;yes;450;leftarrow;568;false;focus;yes;283969;Chrome;112.0;macOS;10.15.7;undefined;undefined;1440 x 900;1440 x 900
H028;31;Vrouwelijk;Rechts;1;89;right;yes;400;undefined;null;true;focus;yes;285980;Chrome;112.0;macOS;10.15.7;undefined;undefined;1440 x 900;1440 x 900
H028;31;Vrouwelijk;Rechts;1;90;left;no;450;leftarrow;759;true;focus;yes;287510;Chrome;112.0;macOS;10.15.7;undefined;undefined;1440 x 900;1440 x 900
H028;31;Vrouwelijk;Rechts;1;91;right;no;450;rightarrow;720;true;focus;yes;289006;Chrome;112.0;macOS;10.15.7;undefined;undefined;1440 x 900;1440 x 900
H028;31;Vrouwelijk;Rechts;1;92;left;yes;450;undefined;null;true;focus;yes;291027;Chrome;112.0;macOS;10.15.7;undefined;undefined;1440 x 900;1440 x 900
H028;31;Vrouwelijk;Rechts;1;93;right;no;500;rightarrow;470;true;focus;yes;292266;Chrome;112.0;macOS;10.15.7;undefined;undefined;1440 x 900;1440 x 900
H028;31;Vrouwelijk;Rechts;1;94;left;no;500;leftarrow;779;true;focus;yes;293808;Chrome;112.0;macOS;10.15.7;undefined;undefined;1440 x 900;1440 x 900
H028;31;Vrouwelijk;Rechts;1;95;left;no;500;leftarrow;674;true;focus;yes;295245;Chrome;112.0;macOS;10.15.7;undefined;undefined;1440 x 900;1440 x 900
H028;31;Vrouwelijk;Rechts;1;96;right;no;500;rightarrow;635;true;focus;yes;296652;Chrome;112.0;macOS;10.15.7;undefined;undefined;1440 x 900;1440 x 900
H028;31;Vrouwelijk;Rechts;1;97;right;no;500;rightarrow;629;true;focus;yes;298049;Chrome;112.0;macOS;10.15.7;undefined;undefined;1440 x 900;1440 x 900
H028;31;Vrouwelijk;Rechts;1;98;right;no;500;rightarrow;649;true;focus;yes;299461;Chrome;112.0;macOS;10.15.7;undefined;undefined;1440 x 900;1440 x 900
H028;31;Vrouwelijk;Rechts;1;99;left;no;500;leftarrow;750;true;focus;yes;300979;Chrome;112.0;macOS;10.15.7;undefined;undefined;1440 x 900;1440 x 900
H028;31;Vrouwelijk;Rechts;1;100;right;yes;500;rightarrow;733;false;focus;yes;302480;Chrome;112.0;macOS;10.15.7;undefined;undefined;1440 x 900;1440 x 900
H028;31;Vrouwelijk;Rechts;1;101;left;no;450;leftarrow;794;true;focus;yes;304039;Chrome;112.0;macOS;10.15.7;undefined;undefined;1440 x 900;1440 x 900
H028;31;Vrouwelijk;Rechts;1;102;left;yes;450;leftarrow;613;false;focus;yes;305417;Chrome;112.0;macOS;10.15.7;undefined;undefined;1440 x 900;1440 x 900
H028;31;Vrouwelijk;Rechts;1;103;right;no;400;rightarrow;752;true;focus;yes;306928;Chrome;112.0;macOS;10.15.7;undefined;undefined;1440 x 900;1440 x 900
H028;31;Vrouwelijk;Rechts;1;104;left;no;400;leftarrow;863;true;focus;yes;308551;Chrome;112.0;macOS;10.15.7;undefined;undefined;1440 x 900;1440 x 900
H028;31;Vrouwelijk;Rechts;1;105;left;no;400;leftarrow;707;true;focus;yes;310022;Chrome;112.0;macOS;10.15.7;undefined;undefined;1440 x 900;1440 x 900
H028;31;Vrouwelijk;Rechts;1;106;left;no;400;leftarrow;599;true;focus;yes;311380;Chrome;112.0;macOS;10.15.7;undefined;undefined;1440 x 900;1440 x 900
H028;31;Vrouwelijk;Rechts;1;107;right;yes;400;undefined;null;true;focus;yes;313404;Chrome;112.0;macOS;10.15.7;undefined;undefined;1440 x 900;1440 x 900
H028;31;Vrouwelijk;Rechts;1;108;right;no;450;rightarrow;529;true;focus;yes;314705;Chrome;112.0;macOS;10.15.7;undefined;undefined;1440 x 900;1440 x 900
H028;31;Vrouwelijk;Rechts;1;109;left;yes;450;undefined;null;true;focus;yes;316723;Chrome;112.0;macOS;10.15.7;undefined;undefined;1440 x 900;1440 x 900
H028;31;Vrouwelijk;Rechts;1;110;right;no;500;rightarrow;512;true;focus;yes;317998;Chrome;112.0;macOS;10.15.7;undefined;undefined;1440 x 900;1440 x 900
H028;31;Vrouwelijk;Rechts;1;111;right;no;500;rightarrow;651;true;focus;yes;319411;Chrome;112.0;macOS;10.15.7;undefined;undefined;1440 x 900;1440 x 900
H028;31;Vrouwelijk;Rechts;1;112;left;no;500;leftarrow;837;true;focus;yes;321012;Chrome;112.0;macOS;10.15.7;undefined;undefined;1440 x 900;1440 x 900
H028;31;Vrouwelijk;Rechts;1;113;left;no;500;leftarrow;773;true;focus;yes;322560;Chrome;112.0;macOS;10.15.7;undefined;undefined;1440 x 900;1440 x 900
H028;31;Vrouwelijk;Rechts;1;114;left;no;500;leftarrow;609;true;focus;yes;323931;Chrome;112.0;macOS;10.15.7;undefined;undefined;1440 x 900;1440 x 900
H028;31;Vrouwelijk;Rechts;1;115;left;no;500;leftarrow;530;true;focus;yes;325229;Chrome;112.0;macOS;10.15.7;undefined;undefined;1440 x 900;1440 x 900
H028;31;Vrouwelijk;Rechts;1;116;right;no;500;rightarrow;547;true;focus;yes;326539;Chrome;112.0;macOS;10.15.7;undefined;undefined;1440 x 900;1440 x 900
H028;31;Vrouwelijk;Rechts;1;117;left;yes;500;leftarrow;705;false;focus;yes;328020;Chrome;112.0;macOS;10.15.7;undefined;undefined;1440 x 900;1440 x 900
H028;31;Vrouwelijk;Rechts;1;118;right;no;450;rightarrow;566;true;focus;yes;329364;Chrome;112.0;macOS;10.15.7;undefined;undefined;1440 x 900;1440 x 900
H028;31;Vrouwelijk;Rechts;1;119;right;yes;450;rightarrow;485;false;focus;yes;330616;Chrome;112.0;macOS;10.15.7;undefined;undefined;1440 x 900;1440 x 900
H028;31;Vrouwelijk;Rechts;1;120;right;no;400;rightarrow;986;true;focus;yes;332365;Chrome;112.0;macOS;10.15.7;undefined;undefined;1440 x 900;1440 x 900
H028;31;Vrouwelijk;Rechts;1;121;right;no;400;rightarrow;687;true;focus;yes;333813;Chrome;112.0;macOS;10.15.7;undefined;undefined;1440 x 900;1440 x 900
H028;31;Vrouwelijk;Rechts;1;122;right;no;400;rightarrow;751;true;focus;yes;335337;Chrome;112.0;macOS;10.15.7;undefined;undefined;1440 x 900;1440 x 900
H028;31;Vrouwelijk;Rechts;1;123;right;yes;400;undefined;null;true;focus;yes;337367;Chrome;112.0;macOS;10.15.7;undefined;undefined;1440 x 900;1440 x 900
H028;31;Vrouwelijk;Rechts;1;124;right;no;450;rightarrow;760;true;focus;yes;338890;Chrome;112.0;macOS;10.15.7;undefined;undefined;1440 x 900;1440 x 900
H028;31;Vrouwelijk;Rechts;1;125;left;no;450;leftarrow;904;true;focus;yes;340563;Chrome;112.0;macOS;10.15.7;undefined;undefined;1440 x 900;1440 x 900
H028;31;Vrouwelijk;Rechts;1;126;left;no;450;leftarrow;796;true;focus;yes;342126;Chrome;112.0;macOS;10.15.7;undefined;undefined;1440 x 900;1440 x 900
H028;31;Vrouwelijk;Rechts;1;127;left;no;450;leftarrow;765;true;focus;yes;343656;Chrome;112.0;macOS;10.15.7;undefined;undefined;1440 x 900;1440 x 900
H028;31;Vrouwelijk;Rechts;1;128;left;yes;450;undefined;null;true;focus;yes;345678;Chrome;112.0;macOS;10.15.7;undefined;undefined;1440 x 900;1440 x 900
H028;31;Vrouwelijk;Rechts;2;1;left;no;500;leftarrow;423;true;focus;yes;365125;Chrome;112.0;macOS;10.15.7;undefined;undefined;1440 x 900;1440 x 900
H028;31;Vrouwelijk;Rechts;2;2;right;no;500;rightarrow;566;true;focus;yes;366456;Chrome;112.0;macOS;10.15.7;undefined;undefined;1440 x 900;1440 x 900
H028;31;Vrouwelijk;Rechts;2;3;right;yes;500;rightarrow;499;false;focus;yes;367727;Chrome;112.0;macOS;10.15.7;undefined;undefined;1440 x 900;1440 x 900
H028;31;Vrouwelijk;Rechts;2;4;left;no;450;leftarrow;580;true;focus;yes;369065;Chrome;112.0;macOS;10.15.7;undefined;undefined;1440 x 900;1440 x 900
H028;31;Vrouwelijk;Rechts;2;5;right;no;450;rightarrow;585;true;focus;yes;370418;Chrome;112.0;macOS;10.15.7;undefined;undefined;1440 x 900;1440 x 900
H028;31;Vrouwelijk;Rechts;2;6;right;no;450;rightarrow;626;true;focus;yes;371811;Chrome;112.0;macOS;10.15.7;undefined;undefined;1440 x 900;1440 x 900
H028;31;Vrouwelijk;Rechts;2;7;left;yes;450;leftarrow;622;false;focus;yes;373196;Chrome;112.0;macOS;10.15.7;undefined;undefined;1440 x 900;1440 x 900
H028;31;Vrouwelijk;Rechts;2;8;left;no;400;leftarrow;619;true;focus;yes;374575;Chrome;112.0;macOS;10.15.7;undefined;undefined;1440 x 900;1440 x 900
H028;31;Vrouwelijk;Rechts;2;9;left;no;400;leftarrow;460;true;focus;yes;375799;Chrome;112.0;macOS;10.15.7;undefined;undefined;1440 x 900;1440 x 900
H028;31;Vrouwelijk;Rechts;2;10;left;yes;400;leftarrow;595;false;focus;yes;377157;Chrome;112.0;macOS;10.15.7;undefined;undefined;1440 x 900;1440 x 900
H028;31;Vrouwelijk;Rechts;2;11;right;yes;350;rightarrow;352;false;focus;yes;378284;Chrome;112.0;macOS;10.15.7;undefined;undefined;1440 x 900;1440 x 900
H028;31;Vrouwelijk;Rechts;2;12;left;no;300;leftarrow;632;true;focus;yes;379682;Chrome;112.0;macOS;10.15.7;undefined;undefined;1440 x 900;1440 x 900
H028;31;Vrouwelijk;Rechts;2;13;right;no;300;rightarrow;731;true;focus;yes;381181;Chrome;112.0;macOS;10.15.7;undefined;undefined;1440 x 900;1440 x 900
H028;31;Vrouwelijk;Rechts;2;14;left;no;300;leftarrow;711;true;focus;yes;382664;Chrome;112.0;macOS;10.15.7;undefined;undefined;1440 x 900;1440 x 900
H028;31;Vrouwelijk;Rechts;2;15;right;no;300;rightarrow;650;true;focus;yes;384079;Chrome;112.0;macOS;10.15.7;undefined;undefined;1440 x 900;1440 x 900
H028;31;Vrouwelijk;Rechts;2;16;right;no;300;rightarrow;612;true;focus;yes;385453;Chrome;112.0;macOS;10.15.7;undefined;undefined;1440 x 900;1440 x 900
H028;31;Vrouwelijk;Rechts;2;17;left;no;300;leftarrow;734;true;focus;yes;386951;Chrome;112.0;macOS;10.15.7;undefined;undefined;1440 x 900;1440 x 900
H028;31;Vrouwelijk;Rechts;2;18;right;no;300;rightarrow;625;true;focus;yes;388346;Chrome;112.0;macOS;10.15.7;undefined;undefined;1440 x 900;1440 x 900
H028;31;Vrouwelijk;Rechts;2;19;right;no;300;rightarrow;890;true;focus;yes;390004;Chrome;112.0;macOS;10.15.7;undefined;undefined;1440 x 900;1440 x 900
H028;31;Vrouwelijk;Rechts;2;20;left;no;300;leftarrow;750;true;focus;yes;391516;Chrome;112.0;macOS;10.15.7;undefined;undefined;1440 x 900;1440 x 900
H028;31;Vrouwelijk;Rechts;2;21;right;no;300;rightarrow;745;true;focus;yes;393026;Chrome;112.0;macOS;10.15.7;undefined;undefined;1440 x 900;1440 x 900
H028;31;Vrouwelijk;Rechts;2;22;right;yes;300;undefined;null;true;focus;yes;395046;Chrome;112.0;macOS;10.15.7;undefined;undefined;1440 x 900;1440 x 900
H028;31;Vrouwelijk;Rechts;2;23;left;no;350;leftarrow;674;true;focus;yes;396485;Chrome;112.0;macOS;10.15.7;undefined;undefined;1440 x 900;1440 x 900
H028;31;Vrouwelijk;Rechts;2;25;right;yes;400;undefined;null;true;focus;yes;400534;Chrome;112.0;macOS;10.15.7;undefined;undefined;1440 x 900;1440 x 900
H028;31;Vrouwelijk;Rechts;2;26;right;no;450;rightarrow;655;true;focus;yes;401950;Chrome;112.0;macOS;10.15.7;undefined;undefined;1440 x 900;1440 x 900
H028;31;Vrouwelijk;Rechts;2;27;left;no;450;leftarrow;924;true;focus;yes;403632;Chrome;112.0;macOS;10.15.7;undefined;undefined;1440 x 900;1440 x 900
H028;31;Vrouwelijk;Rechts;2;28;right;no;450;rightarrow;730;true;focus;yes;405138;Chrome;112.0;macOS;10.15.7;undefined;undefined;1440 x 900;1440 x 900
H028;31;Vrouwelijk;Rechts;2;29;right;no;450;rightarrow;939;true;focus;yes;406840;Chrome;112.0;macOS;10.15.7;undefined;undefined;1440 x 900;1440 x 900
H028;31;Vrouwelijk;Rechts;2;30;left;no;450;leftarrow;1002;true;focus;yes;408610;Chrome;112.0;macOS;10.15.7;undefined;undefined;1440 x 900;1440 x 900
H028;31;Vrouwelijk;Rechts;2;31;left;no;450;leftarrow;1009;true;focus;yes;410385;Chrome;112.0;macOS;10.15.7;undefined;undefined;1440 x 900;1440 x 900
H028;31;Vrouwelijk;Rechts;2;32;left;yes;450;undefined;null;true;focus;yes;412420;Chrome;112.0;macOS;10.15.7;undefined;undefined;1440 x 900;1440 x 900
H028;31;Vrouwelijk;Rechts;2;33;left;yes;500;undefined;null;true;focus;yes;414443;Chrome;112.0;macOS;10.15.7;undefined;undefined;1440 x 900;1440 x 900
H028;31;Vrouwelijk;Rechts;2;34;right;no;550;rightarrow;699;true;focus;yes;415907;Chrome;112.0;macOS;10.15.7;undefined;undefined;1440 x 900;1440 x 900
H028;31;Vrouwelijk;Rechts;2;35;right;yes;550;undefined;null;true;focus;yes;417922;Chrome;112.0;macOS;10.15.7;undefined;undefined;1440 x 900;1440 x 900
H028;31;Vrouwelijk;Rechts;2;36;left;no;600;leftarrow;707;true;focus;yes;419403;Chrome;112.0;macOS;10.15.7;undefined;undefined;1440 x 900;1440 x 900
H028;31;Vrouwelijk;Rechts;2;37;left;no;600;leftarrow;791;true;focus;yes;420960;Chrome;112.0;macOS;10.15.7;undefined;undefined;1440 x 900;1440 x 900
H028;31;Vrouwelijk;Rechts;2;38;right;no;600;rightarrow;781;true;focus;yes;422510;Chrome;112.0;macOS;10.15.7;undefined;undefined;1440 x 900;1440 x 900
H028;31;Vrouwelijk;Rechts;2;39;right;no;600;rightarrow;654;true;focus;yes;423942;Chrome;112.0;macOS;10.15.7;undefined;undefined;1440 x 900;1440 x 900
H028;31;Vrouwelijk;Rechts;2;40;left;no;600;leftarrow;821;true;focus;yes;425532;Chrome;112.0;macOS;10.15.7;undefined;undefined;1440 x 900;1440 x 900
H028;31;Vrouwelijk;Rechts;2;41;left;no;600;leftarrow;638;true;focus;yes;426944;Chrome;112.0;macOS;10.15.7;undefined;undefined;1440 x 900;1440 x 900
H028;31;Vrouwelijk;Rechts;2;42;right;no;600;rightarrow;657;true;focus;yes;428367;Chrome;112.0;macOS;10.15.7;undefined;undefined;1440 x 900;1440 x 900
H028;31;Vrouwelijk;Rechts;2;43;left;no;600;leftarrow;749;true;focus;yes;429886;Chrome;112.0;macOS;10.15.7;undefined;undefined;1440 x 900;1440 x 900
H028;31;Vrouwelijk;Rechts;2;44;right;yes;600;rightarrow;591;false;focus;yes;431249;Chrome;112.0;macOS;10.15.7;undefined;undefined;1440 x 900;1440 x 900
H028;31;Vrouwelijk;Rechts;2;45;left;yes;550;leftarrow;717;false;focus;yes;432727;Chrome;112.0;macOS;10.15.7;undefined;undefined;1440 x 900;1440 x 900
H028;31;Vrouwelijk;Rechts;2;46;right;no;500;rightarrow;360;true;focus;yes;433855;Chrome;112.0;macOS;10.15.7;undefined;undefined;1440 x 900;1440 x 900
H028;31;Vrouwelijk;Rechts;2;47;right;no;500;rightarrow;894;true;focus;yes;435517;Chrome;112.0;macOS;10.15.7;undefined;undefined;1440 x 900;1440 x 900
H028;31;Vrouwelijk;Rechts;2;48;left;no;500;leftarrow;536;true;focus;yes;436823;Chrome;112.0;macOS;10.15.7;undefined;undefined;1440 x 900;1440 x 900
H028;31;Vrouwelijk;Rechts;2;49;left;no;500;leftarrow;529;true;focus;yes;438121;Chrome;112.0;macOS;10.15.7;undefined;undefined;1440 x 900;1440 x 900
H028;31;Vrouwelijk;Rechts;2;50;left;no;500;leftarrow;499;true;focus;yes;439382;Chrome;112.0;macOS;10.15.7;undefined;undefined;1440 x 900;1440 x 900
H028;31;Vrouwelijk;Rechts;2;51;right;yes;500;undefined;null;true;focus;yes;441402;Chrome;112.0;macOS;10.15.7;undefined;undefined;1440 x 900;1440 x 900
H028;31;Vrouwelijk;Rechts;2;52;right;no;550;rightarrow;468;true;focus;yes;442643;Chrome;112.0;macOS;10.15.7;undefined;undefined;1440 x 900;1440 x 900
H028;31;Vrouwelijk;Rechts;2;53;left;yes;550;leftarrow;500;false;focus;yes;443908;Chrome;112.0;macOS;10.15.7;undefined;undefined;1440 x 900;1440 x 900
H028;31;Vrouwelijk;Rechts;2;54;left;no;500;leftarrow;575;true;focus;yes;445255;Chrome;112.0;macOS;10.15.7;undefined;undefined;1440 x 900;1440 x 900
H028;31;Vrouwelijk;Rechts;2;55;right;no;500;rightarrow;601;true;focus;yes;446624;Chrome;112.0;macOS;10.15.7;undefined;undefined;1440 x 900;1440 x 900
H028;31;Vrouwelijk;Rechts;2;56;right;no;500;rightarrow;564;true;focus;yes;447955;Chrome;112.0;macOS;10.15.7;undefined;undefined;1440 x 900;1440 x 900
H028;31;Vrouwelijk;Rechts;2;57;right;yes;500;rightarrow;495;false;focus;yes;449222;Chrome;112.0;macOS;10.15.7;undefined;undefined;1440 x 900;1440 x 900
H028;31;Vrouwelijk;Rechts;2;58;right;no;450;rightarrow;477;true;focus;yes;450469;Chrome;112.0;macOS;10.15.7;undefined;undefined;1440 x 900;1440 x 900
H028;31;Vrouwelijk;Rechts;2;59;right;no;450;rightarrow;445;true;focus;yes;451695;Chrome;112.0;macOS;10.15.7;undefined;undefined;1440 x 900;1440 x 900
H028;31;Vrouwelijk;Rechts;2;60;left;yes;450;undefined;null;true;focus;yes;453708;Chrome;112.0;macOS;10.15.7;undefined;undefined;1440 x 900;1440 x 900
H028;31;Vrouwelijk;Rechts;2;61;left;no;500;leftarrow;570;true;focus;yes;455057;Chrome;112.0;macOS;10.15.7;undefined;undefined;1440 x 900;1440 x 900
H028;31;Vrouwelijk;Rechts;2;62;left;no;500;leftarrow;632;true;focus;yes;456455;Chrome;112.0;macOS;10.15.7;undefined;undefined;1440 x 900;1440 x 900
H028;31;Vrouwelijk;Rechts;2;63;right;no;500;rightarrow;522;true;focus;yes;457746;Chrome;112.0;macOS;10.15.7;undefined;undefined;1440 x 900;1440 x 900
H028;31;Vrouwelijk;Rechts;2;64;left;no;500;leftarrow;590;true;focus;yes;459101;Chrome;112.0;macOS;10.15.7;undefined;undefined;1440 x 900;1440 x 900
H028;31;Vrouwelijk;Rechts;2;65;right;no;500;rightarrow;632;true;focus;yes;460497;Chrome;112.0;macOS;10.15.7;undefined;undefined;1440 x 900;1440 x 900
H028;31;Vrouwelijk;Rechts;2;66;right;no;500;rightarrow;864;true;focus;yes;462126;Chrome;112.0;macOS;10.15.7;undefined;undefined;1440 x 900;1440 x 900
H028;31;Vrouwelijk;Rechts;2;67;left;no;500;leftarrow;700;true;focus;yes;463586;Chrome;112.0;macOS;10.15.7;undefined;undefined;1440 x 900;1440 x 900
H028;31;Vrouwelijk;Rechts;2;68;left;no;500;leftarrow;808;true;focus;yes;465153;Chrome;112.0;macOS;10.15.7;undefined;undefined;1440 x 900;1440 x 900
H028;31;Vrouwelijk;Rechts;2;69;left;yes;500;undefined;null;true;focus;yes;467189;Chrome;112.0;macOS;10.15.7;undefined;undefined;1440 x 900;1440 x 900
H028;31;Vrouwelijk;Rechts;2;70;right;no;550;rightarrow;386;true;focus;yes;468346;Chrome;112.0;macOS;10.15.7;undefined;undefined;1440 x 900;1440 x 900
H028;31;Vrouwelijk;Rechts;2;71;left;no;550;leftarrow;765;true;focus;yes;469876;Chrome;112.0;macOS;10.15.7;undefined;undefined;1440 x 900;1440 x 900
H028;31;Vrouwelijk;Rechts;2;72;right;yes;550;rightarrow;628;false;focus;yes;471277;Chrome;112.0;macOS;10.15.7;undefined;undefined;1440 x 900;1440 x 900
H028;31;Vrouwelijk;Rechts;2;73;right;no;500;rightarrow;700;true;focus;yes;472742;Chrome;112.0;macOS;10.15.7;undefined;undefined;1440 x 900;1440 x 900
H028;31;Vrouwelijk;Rechts;2;74;left;no;500;leftarrow;518;true;focus;yes;474038;Chrome;112.0;macOS;10.15.7;undefined;undefined;1440 x 900;1440 x 900
H028;31;Vrouwelijk;Rechts;2;75;right;yes;500;rightarrow;622;false;focus;yes;475428;Chrome;112.0;macOS;10.15.7;undefined;undefined;1440 x 900;1440 x 900
H028;31;Vrouwelijk;Rechts;2;76;left;no;450;leftarrow;579;true;focus;yes;476776;Chrome;112.0;macOS;10.15.7;undefined;undefined;1440 x 900;1440 x 900
H028;31;Vrouwelijk;Rechts;2;77;left;yes;450;undefined;null;true;focus;yes;478810;Chrome;112.0;macOS;10.15.7;undefined;undefined;1440 x 900;1440 x 900
H028;31;Vrouwelijk;Rechts;2;78;right;no;500;rightarrow;587;true;focus;yes;480163;Chrome;112.0;macOS;10.15.7;undefined;undefined;1440 x 900;1440 x 900
H028;31;Vrouwelijk;Rechts;2;79;left;no;500;leftarrow;945;true;focus;yes;481889;Chrome;112.0;macOS;10.15.7;undefined;undefined;1440 x 900;1440 x 900
H028;31;Vrouwelijk;Rechts;2;80;right;no;500;rightarrow;846;true;focus;yes;483510;Chrome;112.0;macOS;10.15.7;undefined;undefined;1440 x 900;1440 x 900
H028;31;Vrouwelijk;Rechts;2;81;left;no;500;leftarrow;776;true;focus;yes;485064;Chrome;112.0;macOS;10.15.7;undefined;undefined;1440 x 900;1440 x 900
H028;31;Vrouwelijk;Rechts;2;82;right;no;500;rightarrow;751;true;focus;yes;486591;Chrome;112.0;macOS;10.15.7;undefined;undefined;1440 x 900;1440 x 900
H028;31;Vrouwelijk;Rechts;2;83;left;no;500;leftarrow;966;true;focus;yes;488323;Chrome;112.0;macOS;10.15.7;undefined;undefined;1440 x 900;1440 x 900
H028;31;Vrouwelijk;Rechts;2;84;right;no;500;rightarrow;882;true;focus;yes;489975;Chrome;112.0;macOS;10.15.7;undefined;undefined;1440 x 900;1440 x 900
H028;31;Vrouwelijk;Rechts;2;85;right;yes;500;undefined;null;true;focus;yes;491994;Chrome;112.0;macOS;10.15.7;undefined;undefined;1440 x 900;1440 x 900
H028;31;Vrouwelijk;Rechts;2;86;left;yes;550;undefined;null;true;focus;yes;494036;Chrome;112.0;macOS;10.15.7;undefined;undefined;1440 x 900;1440 x 900
H028;31;Vrouwelijk;Rechts;2;87;right;no;600;rightarrow;779;true;focus;yes;495592;Chrome;112.0;macOS;10.15.7;undefined;undefined;1440 x 900;1440 x 900
H028;31;Vrouwelijk;Rechts;2;88;left;no;600;leftarrow;896;true;focus;yes;497254;Chrome;112.0;macOS;10.15.7;undefined;undefined;1440 x 900;1440 x 900
H028;31;Vrouwelijk;Rechts;2;89;left;no;600;leftarrow;728;true;focus;yes;498760;Chrome;112.0;macOS;10.15.7;undefined;undefined;1440 x 900;1440 x 900
H028;31;Vrouwelijk;Rechts;2;90;left;no;600;leftarrow;626;true;focus;yes;500151;Chrome;112.0;macOS;10.15.7;undefined;undefined;1440 x 900;1440 x 900
H028;31;Vrouwelijk;Rechts;2;91;right;yes;600;undefined;null;true;focus;yes;502167;Chrome;112.0;macOS;10.15.7;undefined;undefined;1440 x 900;1440 x 900
H028;31;Vrouwelijk;Rechts;2;92;right;no;650;rightarrow;467;true;focus;yes;503412;Chrome;112.0;macOS;10.15.7;undefined;undefined;1440 x 900;1440 x 900
H028;31;Vrouwelijk;Rechts;2;93;left;no;650;leftarrow;617;true;focus;yes;504809;Chrome;112.0;macOS;10.15.7;undefined;undefined;1440 x 900;1440 x 900
H028;31;Vrouwelijk;Rechts;2;94;left;yes;650;leftarrow;568;false;focus;yes;506141;Chrome;112.0;macOS;10.15.7;undefined;undefined;1440 x 900;1440 x 900
H028;31;Vrouwelijk;Rechts;2;95;right;no;600;rightarrow;758;true;focus;yes;507666;Chrome;112.0;macOS;10.15.7;undefined;undefined;1440 x 900;1440 x 900
H028;31;Vrouwelijk;Rechts;2;96;right;no;600;rightarrow;578;true;focus;yes;509007;Chrome;112.0;macOS;10.15.7;undefined;undefined;1440 x 900;1440 x 900
H028;31;Vrouwelijk;Rechts;2;97;right;yes;600;rightarrow;788;false;focus;yes;510561;Chrome;112.0;macOS;10.15.7;undefined;undefined;1440 x 900;1440 x 900
H028;31;Vrouwelijk;Rechts;2;98;right;no;550;rightarrow;435;true;focus;yes;511760;Chrome;112.0;macOS;10.15.7;undefined;undefined;1440 x 900;1440 x 900
H028;31;Vrouwelijk;Rechts;2;99;left;no;550;leftarrow;441;true;focus;yes;512965;Chrome;112.0;macOS;10.15.7;undefined;undefined;1440 x 900;1440 x 900
H028;31;Vrouwelijk;Rechts;2;100;left;no;550;leftarrow;566;true;focus;yes;514299;Chrome;112.0;macOS;10.15.7;undefined;undefined;1440 x 900;1440 x 900
H028;31;Vrouwelijk;Rechts;2;101;left;yes;550;leftarrow;759;false;focus;yes;515827;Chrome;112.0;macOS;10.15.7;undefined;undefined;1440 x 900;1440 x 900
H028;31;Vrouwelijk;Rechts;2;102;left;no;500;leftarrow;512;true;focus;yes;517109;Chrome;112.0;macOS;10.15.7;undefined;undefined;1440 x 900;1440 x 900
H028;31;Vrouwelijk;Rechts;2;103;right;no;500;rightarrow;514;true;focus;yes;518389;Chrome;112.0;macOS;10.15.7;undefined;undefined;1440 x 900;1440 x 900
H028;31;Vrouwelijk;Rechts;2;104;right;no;500;rightarrow;552;true;focus;yes;519708;Chrome;112.0;macOS;10.15.7;undefined;undefined;1440 x 900;1440 x 900
H028;31;Vrouwelijk;Rechts;2;105;left;no;500;leftarrow;1012;true;focus;yes;521489;Chrome;112.0;macOS;10.15.7;undefined;undefined;1440 x 900;1440 x 900
H028;31;Vrouwelijk;Rechts;2;106;left;yes;500;undefined;null;true;focus;yes;523504;Chrome;112.0;macOS;10.15.7;undefined;undefined;1440 x 900;1440 x 900
H028;31;Vrouwelijk;Rechts;2;107;right;yes;550;rightarrow;443;false;focus;yes;524712;Chrome;112.0;macOS;10.15.7;undefined;undefined;1440 x 900;1440 x 900
H028;31;Vrouwelijk;Rechts;2;108;right;no;500;rightarrow;690;true;focus;yes;526166;Chrome;112.0;macOS;10.15.7;undefined;undefined;1440 x 900;1440 x 900
H028;31;Vrouwelijk;Rechts;2;109;left;no;500;leftarrow;736;true;focus;yes;527668;Chrome;112.0;macOS;10.15.7;undefined;undefined;1440 x 900;1440 x 900
H028;31;Vrouwelijk;Rechts;2;110;right;no;500;rightarrow;989;true;focus;yes;529433;Chrome;112.0;macOS;10.15.7;undefined;undefined;1440 x 900;1440 x 900
H028;31;Vrouwelijk;Rechts;2;111;left;no;500;leftarrow;663;true;focus;yes;530865;Chrome;112.0;macOS;10.15.7;undefined;undefined;1440 x 900;1440 x 900
H028;31;Vrouwelijk;Rechts;2;112;right;no;500;rightarrow;764;true;focus;yes;532392;Chrome;112.0;macOS;10.15.7;undefined;undefined;1440 x 900;1440 x 900
H028;31;Vrouwelijk;Rechts;2;113;right;no;500;rightarrow;1020;true;focus;yes;534175;Chrome;112.0;macOS;10.15.7;undefined;undefined;1440 x 900;1440 x 900
H028;31;Vrouwelijk;Rechts;2;114;left;no;500;leftarrow;749;true;focus;yes;535688;Chrome;112.0;macOS;10.15.7;undefined;undefined;1440 x 900;1440 x 900
H028;31;Vrouwelijk;Rechts;2;115;left;no;500;leftarrow;925;true;focus;yes;537377;Chrome;112.0;macOS;10.15.7;undefined;undefined;1440 x 900;1440 x 900
H028;31;Vrouwelijk;Rechts;2;116;right;no;500;rightarrow;690;true;focus;yes;538847;Chrome;112.0;macOS;10.15.7;undefined;undefined;1440 x 900;1440 x 900
H028;31;Vrouwelijk;Rechts;2;117;right;yes;500;undefined;null;true;focus;yes;540870;Chrome;112.0;macOS;10.15.7;undefined;undefined;1440 x 900;1440 x 900
H028;31;Vrouwelijk;Rechts;2;118;right;no;550;rightarrow;488;true;focus;yes;542128;Chrome;112.0;macOS;10.15.7;undefined;undefined;1440 x 900;1440 x 900
H028;31;Vrouwelijk;Rechts;2;119;left;yes;550;rightarrow;377;false;focus;yes;543268;Chrome;112.0;macOS;10.15.7;undefined;undefined;1440 x 900;1440 x 900
H028;31;Vrouwelijk;Rechts;2;120;left;no;500;leftarrow;641;true;focus;yes;544677;Chrome;112.0;macOS;10.15.7;undefined;undefined;1440 x 900;1440 x 900
H028;31;Vrouwelijk;Rechts;2;121;right;no;500;rightarrow;497;true;focus;yes;545940;Chrome;112.0;macOS;10.15.7;undefined;undefined;1440 x 900;1440 x 900
H028;31;Vrouwelijk;Rechts;2;122;right;no;500;rightarrow;810;true;focus;yes;547513;Chrome;112.0;macOS;10.15.7;undefined;undefined;1440 x 900;1440 x 900
H028;31;Vrouwelijk;Rechts;2;123;left;no;500;leftarrow;502;true;focus;yes;548785;Chrome;112.0;macOS;10.15.7;undefined;undefined;1440 x 900;1440 x 900
H028;31;Vrouwelijk;Rechts;2;124;right;yes;500;undefined;null;true;focus;yes;550801;Chrome;112.0;macOS;10.15.7;undefined;undefined;1440 x 900;1440 x 900
H028;31;Vrouwelijk;Rechts;2;125;left;no;550;leftarrow;430;true;focus;yes;552003;Chrome;112.0;macOS;10.15.7;undefined;undefined;1440 x 900;1440 x 900
H028;31;Vrouwelijk;Rechts;2;126;left;yes;550;leftarrow;651;false;focus;yes;553422;Chrome;112.0;macOS;10.15.7;undefined;undefined;1440 x 900;1440 x 900
H028;31;Vrouwelijk;Rechts;2;127;right;no;500;rightarrow;600;true;focus;yes;554786;Chrome;112.0;macOS;10.15.7;undefined;undefined;1440 x 900;1440 x 900
H028;31;Vrouwelijk;Rechts;2;128;left;no;500;leftarrow;617;true;focus;yes;556167;Chrome;112.0;macOS;10.15.7;undefined;undefined;1440 x 900;1440 x 900
H028;31;Vrouwelijk;Rechts;3;1;left;no;500;leftarrow;451;true;focus;yes;578625;Chrome;112.0;macOS;10.15.7;undefined;undefined;1440 x 900;1440 x 900
H028;31;Vrouwelijk;Rechts;3;2;left;yes;500;leftarrow;462;false;focus;yes;579856;Chrome;112.0;macOS;10.15.7;undefined;undefined;1440 x 900;1440 x 900
H028;31;Vrouwelijk;Rechts;3;3;left;no;450;leftarrow;632;true;focus;yes;581258;Chrome;112.0;macOS;10.15.7;undefined;undefined;1440 x 900;1440 x 900
H028;31;Vrouwelijk;Rechts;3;4;right;no;450;rightarrow;615;true;focus;yes;582641;Chrome;112.0;macOS;10.15.7;undefined;undefined;1440 x 900;1440 x 900
H028;31;Vrouwelijk;Rechts;3;5;right;yes;450;rightarrow;540;false;focus;yes;583951;Chrome;112.0;macOS;10.15.7;undefined;undefined;1440 x 900;1440 x 900
H028;31;Vrouwelijk;Rechts;3;6;right;no;400;rightarrow;586;true;focus;yes;585300;Chrome;112.0;macOS;10.15.7;undefined;undefined;1440 x 900;1440 x 900
H028;31;Vrouwelijk;Rechts;3;7;right;no;400;rightarrow;421;true;focus;yes;586486;Chrome;112.0;macOS;10.15.7;undefined;undefined;1440 x 900;1440 x 900
H028;31;Vrouwelijk;Rechts;3;8;left;no;400;leftarrow;457;true;focus;yes;587708;Chrome;112.0;macOS;10.15.7;undefined;undefined;1440 x 900;1440 x 900
H028;31;Vrouwelijk;Rechts;3;9;right;no;400;rightarrow;524;true;focus;yes;588994;Chrome;112.0;macOS;10.15.7;undefined;undefined;1440 x 900;1440 x 900
H028;31;Vrouwelijk;Rechts;3;10;right;yes;400;rightarrow;552;false;focus;yes;590314;Chrome;112.0;macOS;10.15.7;undefined;undefined;1440 x 900;1440 x 900
H028;31;Vrouwelijk;Rechts;3;11;right;no;350;rightarrow;498;true;focus;yes;591580;Chrome;112.0;macOS;10.15.7;undefined;undefined;1440 x 900;1440 x 900
H028;31;Vrouwelijk;Rechts;3;12;right;no;350;rightarrow;733;true;focus;yes;593077;Chrome;112.0;macOS;10.15.7;undefined;undefined;1440 x 900;1440 x 900
H028;31;Vrouwelijk;Rechts;3;13;left;yes;350;leftarrow;526;false;focus;yes;594367;Chrome;112.0;macOS;10.15.7;undefined;undefined;1440 x 900;1440 x 900
H028;31;Vrouwelijk;Rechts;3;14;left;no;300;leftarrow;639;true;focus;yes;595776;Chrome;112.0;macOS;10.15.7;undefined;undefined;1440 x 900;1440 x 900
H028;31;Vrouwelijk;Rechts;3;15;left;no;300;leftarrow;988;true;focus;yes;597535;Chrome;112.0;macOS;10.15.7;undefined;undefined;1440 x 900;1440 x 900
H028;31;Vrouwelijk;Rechts;3;16;left;no;300;leftarrow;465;true;focus;yes;598777;Chrome;112.0;macOS;10.15.7;undefined;undefined;1440 x 900;1440 x 900
H028;31;Vrouwelijk;Rechts;3;17;right;no;300;rightarrow;632;true;focus;yes;600174;Chrome;112.0;macOS;10.15.7;undefined;undefined;1440 x 900;1440 x 900
H028;31;Vrouwelijk;Rechts;3;18;left;yes;300;undefined;null;true;focus;yes;602204;Chrome;112.0;macOS;10.15.7;undefined;undefined;1440 x 900;1440 x 900
H028;31;Vrouwelijk;Rechts;3;19;left;no;350;leftarrow;505;true;focus;yes;603475;Chrome;112.0;macOS;10.15.7;undefined;undefined;1440 x 900;1440 x 900
H028;31;Vrouwelijk;Rechts;3;20;right;no;350;rightarrow;688;true;focus;yes;604929;Chrome;112.0;macOS;10.15.7;undefined;undefined;1440 x 900;1440 x 900
H028;31;Vrouwelijk;Rechts;3;21;left;no;350;leftarrow;738;true;focus;yes;606446;Chrome;112.0;macOS;10.15.7;undefined;undefined;1440 x 900;1440 x 900
H028;31;Vrouwelijk;Rechts;3;22;left;no;350;leftarrow;849;true;focus;yes;608068;Chrome;112.0;macOS;10.15.7;undefined;undefined;1440 x 900;1440 x 900
H028;31;Vrouwelijk;Rechts;3;23;right;yes;350;undefined;null;true;focus;yes;610087;Chrome;112.0;macOS;10.15.7;undefined;undefined;1440 x 900;1440 x 900
H028;31;Vrouwelijk;Rechts;3;24;right;no;400;rightarrow;399;true;focus;yes;611255;Chrome;112.0;macOS;10.15.7;undefined;undefined;1440 x 900;1440 x 900
H028;31;Vrouwelijk;Rechts;3;25;left;no;400;leftarrow;721;true;focus;yes;612746;Chrome;112.0;macOS;10.15.7;undefined;undefined;1440 x 900;1440 x 900
H028;31;Vrouwelijk;Rechts;3;26;right;no;400;rightarrow;685;true;focus;yes;614198;Chrome;112.0;macOS;10.15.7;undefined;undefined;1440 x 900;1440 x 900
H028;31;Vrouwelijk;Rechts;3;27;left;no;400;leftarrow;872;true;focus;yes;615831;Chrome;112.0;macOS;10.15.7;undefined;undefined;1440 x 900;1440 x 900
H028;31;Vrouwelijk;Rechts;3;28;right;yes;400;undefined;null;true;focus;yes;617864;Chrome;112.0;macOS;10.15.7;undefined;undefined;1440 x 900;1440 x 900
H028;31;Vrouwelijk;Rechts;3;29;right;no;450;rightarrow;536;true;focus;yes;619176;Chrome;112.0;macOS;10.15.7;undefined;undefined;1440 x 900;1440 x 900
H028;31;Vrouwelijk;Rechts;3;30;left;yes;450;leftarrow;661;false;focus;yes;620601;Chrome;112.0;macOS;10.15.7;undefined;undefined;1440 x 900;1440 x 900
H028;31;Vrouwelijk;Rechts;3;31;right;no;400;rightarrow;719;true;focus;yes;622083;Chrome;112.0;macOS;10.15.7;undefined;undefined;1440 x 900;1440 x 900
H028;31;Vrouwelijk;Rechts;3;32;left;no;400;leftarrow;627;true;focus;yes;623484;Chrome;112.0;macOS;10.15.7;undefined;undefined;1440 x 900;1440 x 900
H028;31;Vrouwelijk;Rechts;3;33;right;no;400;rightarrow;694;true;focus;yes;624943;Chrome;112.0;macOS;10.15.7;undefined;undefined;1440 x 900;1440 x 900
H028;31;Vrouwelijk;Rechts;3;34;right;no;400;undefined;null;false;focus;yes;626967;Chrome;112.0;macOS;10.15.7;undefined;undefined;1440 x 900;1440 x 900
H028;31;Vrouwelijk;Rechts;3;35;left;no;400;leftarrow;929;true;focus;yes;628669;Chrome;112.0;macOS;10.15.7;undefined;undefined;1440 x 900;1440 x 900
H028;31;Vrouwelijk;Rechts;3;36;right;yes;400;undefined;null;true;focus;yes;630703;Chrome;112.0;macOS;10.15.7;undefined;undefined;1440 x 900;1440 x 900
H028;31;Vrouwelijk;Rechts;3;37;left;no;450;leftarrow;628;true;focus;yes;632111;Chrome;112.0;macOS;10.15.7;undefined;undefined;1440 x 900;1440 x 900
H028;31;Vrouwelijk;Rechts;3;38;left;yes;450;undefined;null;true;focus;yes;634132;Chrome;112.0;macOS;10.15.7;undefined;undefined;1440 x 900;1440 x 900
H028;31;Vrouwelijk;Rechts;3;39;right;no;500;rightarrow;526;true;focus;yes;635421;Chrome;112.0;macOS;10.15.7;undefined;undefined;1440 x 900;1440 x 900
H028;31;Vrouwelijk;Rechts;3;40;left;no;500;leftarrow;802;true;focus;yes;636997;Chrome;112.0;macOS;10.15.7;undefined;undefined;1440 x 900;1440 x 900
H028;31;Vrouwelijk;Rechts;3;41;right;no;500;rightarrow;724;true;focus;yes;638494;Chrome;112.0;macOS;10.15.7;undefined;undefined;1440 x 900;1440 x 900
H028;31;Vrouwelijk;Rechts;3;42;left;yes;500;leftarrow;681;false;focus;yes;639954;Chrome;112.0;macOS;10.15.7;undefined;undefined;1440 x 900;1440 x 900
H028;31;Vrouwelijk;Rechts;3;43;left;no;450;leftarrow;721;true;focus;yes;641436;Chrome;112.0;macOS;10.15.7;undefined;undefined;1440 x 900;1440 x 900
H028;31;Vrouwelijk;Rechts;3;44;left;no;450;leftarrow;636;true;focus;yes;642836;Chrome;112.0;macOS;10.15.7;undefined;undefined;1440 x 900;1440 x 900
H028;31;Vrouwelijk;Rechts;3;45;right;yes;450;undefined;null;true;focus;yes;644853;Chrome;112.0;macOS;10.15.7;undefined;undefined;1440 x 900;1440 x 900
H028;31;Vrouwelijk;Rechts;3;46;right;no;500;rightarrow;419;true;focus;yes;646041;Chrome;112.0;macOS;10.15.7;undefined;undefined;1440 x 900;1440 x 900
H028;31;Vrouwelijk;Rechts;3;47;left;no;500;leftarrow;923;true;focus;yes;647729;Chrome;112.0;macOS;10.15.7;undefined;undefined;1440 x 900;1440 x 900
H028;31;Vrouwelijk;Rechts;3;48;right;no;500;rightarrow;744;true;focus;yes;649239;Chrome;112.0;macOS;10.15.7;undefined;undefined;1440 x 900;1440 x 900
H028;31;Vrouwelijk;Rechts;3;49;left;no;500;leftarrow;876;true;focus;yes;650883;Chrome;112.0;macOS;10.15.7;undefined;undefined;1440 x 900;1440 x 900
H028;31;Vrouwelijk;Rechts;3;50;left;no;500;leftarrow;899;true;focus;yes;652554;Chrome;112.0;macOS;10.15.7;undefined;undefined;1440 x 900;1440 x 900
H028;31;Vrouwelijk;Rechts;3;51;left;yes;500;undefined;null;true;focus;yes;654570;Chrome;112.0;macOS;10.15.7;undefined;undefined;1440 x 900;1440 x 900
H028;31;Vrouwelijk;Rechts;3;52;right;no;550;rightarrow;720;true;focus;yes;656057;Chrome;112.0;macOS;10.15.7;undefined;undefined;1440 x 900;1440 x 900
H028;31;Vrouwelijk;Rechts;3;53;right;yes;550;rightarrow;626;false;focus;yes;657449;Chrome;112.0;macOS;10.15.7;undefined;undefined;1440 x 900;1440 x 900
H028;31;Vrouwelijk;Rechts;3;54;right;no;500;rightarrow;822;true;focus;yes;659039;Chrome;112.0;macOS;10.15.7;undefined;undefined;1440 x 900;1440 x 900
H028;31;Vrouwelijk;Rechts;3;55;left;no;500;leftarrow;649;true;focus;yes;660457;Chrome;112.0;macOS;10.15.7;undefined;undefined;1440 x 900;1440 x 900
H028;31;Vrouwelijk;Rechts;3;56;right;no;500;rightarrow;730;true;focus;yes;661962;Chrome;112.0;macOS;10.15.7;undefined;undefined;1440 x 900;1440 x 900
H028;31;Vrouwelijk;Rechts;3;57;left;no;500;leftarrow;938;true;focus;yes;663666;Chrome;112.0;macOS;10.15.7;undefined;undefined;1440 x 900;1440 x 900
H028;31;Vrouwelijk;Rechts;3;58;right;no;500;rightarrow;887;true;focus;yes;665319;Chrome;112.0;macOS;10.15.7;undefined;undefined;1440 x 900;1440 x 900
H028;31;Vrouwelijk;Rechts;3;59;left;yes;500;undefined;null;true;focus;yes;667348;Chrome;112.0;macOS;10.15.7;undefined;undefined;1440 x 900;1440 x 900
H028;31;Vrouwelijk;Rechts;3;60;left;no;550;leftarrow;629;true;focus;yes;668750;Chrome;112.0;macOS;10.15.7;undefined;undefined;1440 x 900;1440 x 900
H028;31;Vrouwelijk;Rechts;3;61;right;no;550;rightarrow;709;true;focus;yes;670227;Chrome;112.0;macOS;10.15.7;undefined;undefined;1440 x 900;1440 x 900
H028;31;Vrouwelijk;Rechts;3;62;left;no;550;leftarrow;925;true;focus;yes;671913;Chrome;112.0;macOS;10.15.7;undefined;undefined;1440 x 900;1440 x 900
H028;31;Vrouwelijk;Rechts;3;63;right;yes;550;rightarrow;707;false;focus;yes;673394;Chrome;112.0;macOS;10.15.7;undefined;undefined;1440 x 900;1440 x 900
H028;31;Vrouwelijk;Rechts;3;64;right;no;500;rightarrow;771;true;focus;yes;674940;Chrome;112.0;macOS;10.15.7;undefined;undefined;1440 x 900;1440 x 900
H028;31;Vrouwelijk;Rechts;3;65;left;no;500;leftarrow;822;true;focus;yes;676531;Chrome;112.0;macOS;10.15.7;undefined;undefined;1440 x 900;1440 x 900
H028;31;Vrouwelijk;Rechts;3;66;right;yes;500;undefined;null;true;focus;yes;678561;Chrome;112.0;macOS;10.15.7;undefined;undefined;1440 x 900;1440 x 900
H028;31;Vrouwelijk;Rechts;3;67;right;no;550;rightarrow;440;true;focus;yes;679766;Chrome;112.0;macOS;10.15.7;undefined;undefined;1440 x 900;1440 x 900
H028;31;Vrouwelijk;Rechts;3;68;right;no;550;rightarrow;865;true;focus;yes;681409;Chrome;112.0;macOS;10.15.7;undefined;undefined;1440 x 900;1440 x 900
H028;31;Vrouwelijk;Rechts;3;69;left;no;550;leftarrow;1100;true;focus;yes;683274;Chrome;112.0;macOS;10.15.7;undefined;undefined;1440 x 900;1440 x 900
H028;31;Vrouwelijk;Rechts;3;70;left;yes;550;leftarrow;422;false;focus;yes;684455;Chrome;112.0;macOS;10.15.7;undefined;undefined;1440 x 900;1440 x 900
H028;31;Vrouwelijk;Rechts;3;71;left;no;500;leftarrow;553;true;focus;yes;685775;Chrome;112.0;macOS;10.15.7;undefined;undefined;1440 x 900;1440 x 900
H028;31;Vrouwelijk;Rechts;3;72;right;no;500;rightarrow;942;true;focus;yes;687485;Chrome;112.0;macOS;10.15.7;undefined;undefined;1440 x 900;1440 x 900
H028;31;Vrouwelijk;Rechts;3;73;left;yes;500;leftarrow;598;false;focus;yes;688852;Chrome;112.0;macOS;10.15.7;undefined;undefined;1440 x 900;1440 x 900
H028;31;Vrouwelijk;Rechts;3;74;left;no;450;leftarrow;880;true;focus;yes;690504;Chrome;112.0;macOS;10.15.7;undefined;undefined;1440 x 900;1440 x 900
H028;31;Vrouwelijk;Rechts;3;75;right;no;450;rightarrow;665;true;focus;yes;691946;Chrome;112.0;macOS;10.15.7;undefined;undefined;1440 x 900;1440 x 900
H028;31;Vrouwelijk;Rechts;3;76;right;yes;450;rightarrow;553;false;focus;yes;693263;Chrome;112.0;macOS;10.15.7;undefined;undefined;1440 x 900;1440 x 900
H028;31;Vrouwelijk;Rechts;3;77;right;no;400;rightarrow;597;true;focus;yes;694626;Chrome;112.0;macOS;10.15.7;undefined;undefined;1440 x 900;1440 x 900
H028;31;Vrouwelijk;Rechts;3;78;left;no;400;leftarrow;456;true;focus;yes;695861;Chrome;112.0;macOS;10.15.7;undefined;undefined;1440 x 900;1440 x 900
H028;31;Vrouwelijk;Rechts;3;79;left;no;400;leftarrow;585;true;focus;yes;697216;Chrome;112.0;macOS;10.15.7;undefined;undefined;1440 x 900;1440 x 900
H028;31;Vrouwelijk;Rechts;3;80;right;no;400;rightarrow;618;true;focus;yes;698596;Chrome;112.0;macOS;10.15.7;undefined;undefined;1440 x 900;1440 x 900
H028;31;Vrouwelijk;Rechts;3;81;left;no;400;leftarrow;493;true;focus;yes;699858;Chrome;112.0;macOS;10.15.7;undefined;undefined;1440 x 900;1440 x 900
H028;31;Vrouwelijk;Rechts;3;82;left;no;400;leftarrow;585;true;focus;yes;701214;Chrome;112.0;macOS;10.15.7;undefined;undefined;1440 x 900;1440 x 900
H028;31;Vrouwelijk;Rechts;3;83;right;no;400;rightarrow;515;true;focus;yes;702491;Chrome;112.0;macOS;10.15.7;undefined;undefined;1440 x 900;1440 x 900
H028;31;Vrouwelijk;Rechts;3;84;right;yes;400;rightarrow;454;false;focus;yes;703717;Chrome;112.0;macOS;10.15.7;undefined;undefined;1440 x 900;1440 x 900
H028;31;Vrouwelijk;Rechts;3;85;left;no;350;leftarrow;318;true;focus;yes;704804;Chrome;112.0;macOS;10.15.7;undefined;undefined;1440 x 900;1440 x 900
H028;31;Vrouwelijk;Rechts;3;86;right;no;350;rightarrow;485;true;focus;yes;706059;Chrome;112.0;macOS;10.15.7;undefined;undefined;1440 x 900;1440 x 900
H028;31;Vrouwelijk;Rechts;3;87;right;no;350;rightarrow;469;true;focus;yes;707307;Chrome;112.0;macOS;10.15.7;undefined;undefined;1440 x 900;1440 x 900
H028;31;Vrouwelijk;Rechts;3;88;left;yes;350;leftarrow;517;false;focus;yes;708588;Chrome;112.0;macOS;10.15.7;undefined;undefined;1440 x 900;1440 x 900
H028;31;Vrouwelijk;Rechts;3;89;right;no;300;rightarrow;347;true;focus;yes;709704;Chrome;112.0;macOS;10.15.7;undefined;undefined;1440 x 900;1440 x 900
H028;31;Vrouwelijk;Rechts;3;90;left;yes;300;undefined;null;true;focus;yes;711736;Chrome;112.0;macOS;10.15.7;undefined;undefined;1440 x 900;1440 x 900
H028;31;Vrouwelijk;Rechts;3;91;left;no;350;leftarrow;643;true;focus;yes;713148;Chrome;112.0;macOS;10.15.7;undefined;undefined;1440 x 900;1440 x 900
H028;31;Vrouwelijk;Rechts;3;92;left;no;350;leftarrow;806;true;focus;yes;714723;Chrome;112.0;macOS;10.15.7;undefined;undefined;1440 x 900;1440 x 900
H028;31;Vrouwelijk;Rechts;3;93;right;no;350;rightarrow;775;true;focus;yes;716268;Chrome;112.0;macOS;10.15.7;undefined;undefined;1440 x 900;1440 x 900
H028;31;Vrouwelijk;Rechts;3;94;right;yes;350;undefined;null;true;focus;yes;718296;Chrome;112.0;macOS;10.15.7;undefined;undefined;1440 x 900;1440 x 900
H028;31;Vrouwelijk;Rechts;3;95;right;no;400;rightarrow;489;true;focus;yes;719551;Chrome;112.0;macOS;10.15.7;undefined;undefined;1440 x 900;1440 x 900
H028;31;Vrouwelijk;Rechts;3;96;left;no;400;leftarrow;693;true;focus;yes;721010;Chrome;112.0;macOS;10.15.7;undefined;undefined;1440 x 900;1440 x 900
H028;31;Vrouwelijk;Rechts;3;97;left;yes;400;undefined;null;true;focus;yes;723042;Chrome;112.0;macOS;10.15.7;undefined;undefined;1440 x 900;1440 x 900
H028;31;Vrouwelijk;Rechts;3;98;right;no;450;rightarrow;488;true;focus;yes;724300;Chrome;112.0;macOS;10.15.7;undefined;undefined;1440 x 900;1440 x 900
H028;31;Vrouwelijk;Rechts;3;99;right;no;450;rightarrow;741;true;focus;yes;725817;Chrome;112.0;macOS;10.15.7;undefined;undefined;1440 x 900;1440 x 900
H028;31;Vrouwelijk;Rechts;3;100;left;no;450;leftarrow;667;true;focus;yes;727257;Chrome;112.0;macOS;10.15.7;undefined;undefined;1440 x 900;1440 x 900
H028;31;Vrouwelijk;Rechts;3;101;right;yes;450;undefined;null;true;focus;yes;729299;Chrome;112.0;macOS;10.15.7;undefined;undefined;1440 x 900;1440 x 900
H028;31;Vrouwelijk;Rechts;3;102;left;no;500;leftarrow;600;true;focus;yes;730671;Chrome;112.0;macOS;10.15.7;undefined;undefined;1440 x 900;1440 x 900
H028;31;Vrouwelijk;Rechts;3;103;right;no;500;rightarrow;718;true;focus;yes;732163;Chrome;112.0;macOS;10.15.7;undefined;undefined;1440 x 900;1440 x 900
H028;31;Vrouwelijk;Rechts;3;104;left;no;500;leftarrow;797;true;focus;yes;733730;Chrome;112.0;macOS;10.15.7;undefined;undefined;1440 x 900;1440 x 900
H028;31;Vrouwelijk;Rechts;3;105;left;no;500;leftarrow;872;true;focus;yes;735372;Chrome;112.0;macOS;10.15.7;undefined;undefined;1440 x 900;1440 x 900
H028;31;Vrouwelijk;Rechts;3;106;right;yes;500;rightarrow;608;false;focus;yes;736750;Chrome;112.0;macOS;10.15.7;undefined;undefined;1440 x 900;1440 x 900
H028;31;Vrouwelijk;Rechts;3;107;right;no;450;rightarrow;551;true;focus;yes;738077;Chrome;112.0;macOS;10.15.7;undefined;undefined;1440 x 900;1440 x 900
H028;31;Vrouwelijk;Rechts;3;108;left;yes;450;undefined;null;true;focus;yes;740115;Chrome;112.0;macOS;10.15.7;undefined;undefined;1440 x 900;1440 x 900
H028;31;Vrouwelijk;Rechts;3;109;left;no;500;leftarrow;643;true;focus;yes;741532;Chrome;112.0;macOS;10.15.7;undefined;undefined;1440 x 900;1440 x 900
H028;31;Vrouwelijk;Rechts;3;110;right;no;500;rightarrow;574;true;focus;yes;742884;Chrome;112.0;macOS;10.15.7;undefined;undefined;1440 x 900;1440 x 900
H028;31;Vrouwelijk;Rechts;3;111;right;no;500;rightarrow;1085;true;focus;yes;744737;Chrome;112.0;macOS;10.15.7;undefined;undefined;1440 x 900;1440 x 900
H028;31;Vrouwelijk;Rechts;3;112;left;no;500;leftarrow;909;true;focus;yes;746425;Chrome;112.0;macOS;10.15.7;undefined;undefined;1440 x 900;1440 x 900
H028;31;Vrouwelijk;Rechts;3;113;left;no;500;leftarrow;718;true;focus;yes;747914;Chrome;112.0;macOS;10.15.7;undefined;undefined;1440 x 900;1440 x 900
H028;31;Vrouwelijk;Rechts;3;114;left;yes;500;undefined;null;true;focus;yes;749942;Chrome;112.0;macOS;10.15.7;undefined;undefined;1440 x 900;1440 x 900
H028;31;Vrouwelijk;Rechts;3;115;left;no;550;leftarrow;676;true;focus;yes;751394;Chrome;112.0;macOS;10.15.7;undefined;undefined;1440 x 900;1440 x 900
H028;31;Vrouwelijk;Rechts;3;116;right;no;550;rightarrow;883;true;focus;yes;753058;Chrome;112.0;macOS;10.15.7;undefined;undefined;1440 x 900;1440 x 900
H028;31;Vrouwelijk;Rechts;3;117;left;no;550;leftarrow;694;true;focus;yes;754526;Chrome;112.0;macOS;10.15.7;undefined;undefined;1440 x 900;1440 x 900
H028;31;Vrouwelijk;Rechts;3;118;right;no;550;rightarrow;768;true;focus;yes;756068;Chrome;112.0;macOS;10.15.7;undefined;undefined;1440 x 900;1440 x 900
H028;31;Vrouwelijk;Rechts;3;119;right;no;550;rightarrow;745;true;focus;yes;757580;Chrome;112.0;macOS;10.15.7;undefined;undefined;1440 x 900;1440 x 900
H028;31;Vrouwelijk;Rechts;3;120;right;yes;550;rightarrow;767;false;focus;yes;759114;Chrome;112.0;macOS;10.15.7;undefined;undefined;1440 x 900;1440 x 900
H028;31;Vrouwelijk;Rechts;3;121;left;yes;500;undefined;null;true;focus;yes;761144;Chrome;112.0;macOS;10.15.7;undefined;undefined;1440 x 900;1440 x 900
H028;31;Vrouwelijk;Rechts;3;122;left;no;550;leftarrow;470;true;focus;yes;762386;Chrome;112.0;macOS;10.15.7;undefined;undefined;1440 x 900;1440 x 900
H028;31;Vrouwelijk;Rechts;3;123;right;no;550;rightarrow;1004;true;focus;yes;764155;Chrome;112.0;macOS;10.15.7;undefined;undefined;1440 x 900;1440 x 900
H028;31;Vrouwelijk;Rechts;3;124;left;no;550;leftarrow;688;true;focus;yes;765619;Chrome;112.0;macOS;10.15.7;undefined;undefined;1440 x 900;1440 x 900
H028;31;Vrouwelijk;Rechts;3;125;left;no;550;leftarrow;783;true;focus;yes;767170;Chrome;112.0;macOS;10.15.7;undefined;undefined;1440 x 900;1440 x 900
H028;31;Vrouwelijk;Rechts;3;126;right;no;550;rightarrow;591;true;focus;yes;768529;Chrome;112.0;macOS;10.15.7;undefined;undefined;1440 x 900;1440 x 900
H028;31;Vrouwelijk;Rechts;3;127;right;no;550;rightarrow;747;true;focus;yes;770045;Chrome;112.0;macOS;10.15.7;undefined;undefined;1440 x 900;1440 x 900
H028;31;Vrouwelijk;Rechts;3;128;right;yes;550;undefined;null;true;focus;yes;772072;Chrome;112.0;macOS;10.15.7;undefined;undefined;1440 x 900;1440 x 900
H028;31;Vrouwelijk;Rechts;4;1;left;no;600;leftarrow;949;true;focus;yes;810729;Chrome;112.0;macOS;10.15.7;undefined;undefined;1440 x 900;1440 x 900
H028;31;Vrouwelijk;Rechts;4;2;right;no;600;rightarrow;546;true;focus;yes;812044;Chrome;112.0;macOS;10.15.7;undefined;undefined;1440 x 900;1440 x 900
H028;31;Vrouwelijk;Rechts;4;3;right;no;600;rightarrow;577;true;focus;yes;813388;Chrome;112.0;macOS;10.15.7;undefined;undefined;1440 x 900;1440 x 900
H028;31;Vrouwelijk;Rechts;4;4;right;no;600;rightarrow;682;true;focus;yes;814845;Chrome;112.0;macOS;10.15.7;undefined;undefined;1440 x 900;1440 x 900
H028;31;Vrouwelijk;Rechts;4;5;left;yes;600;leftarrow;807;false;focus;yes;816417;Chrome;112.0;macOS;10.15.7;undefined;undefined;1440 x 900;1440 x 900
H028;31;Vrouwelijk;Rechts;4;6;left;no;550;leftarrow;872;true;focus;yes;818057;Chrome;112.0;macOS;10.15.7;undefined;undefined;1440 x 900;1440 x 900
H028;31;Vrouwelijk;Rechts;4;7;right;yes;550;undefined;null;true;focus;yes;820079;Chrome;112.0;macOS;10.15.7;undefined;undefined;1440 x 900;1440 x 900
H028;31;Vrouwelijk;Rechts;4;8;left;no;600;leftarrow;687;true;focus;yes;821548;Chrome;112.0;macOS;10.15.7;undefined;undefined;1440 x 900;1440 x 900
H028;31;Vrouwelijk;Rechts;4;9;left;yes;600;undefined;null;true;focus;yes;823572;Chrome;112.0;macOS;10.15.7;undefined;undefined;1440 x 900;1440 x 900
H028;31;Vrouwelijk;Rechts;4;10;left;no;650;leftarrow;749;true;focus;yes;825086;Chrome;112.0;macOS;10.15.7;undefined;undefined;1440 x 900;1440 x 900
H028;31;Vrouwelijk;Rechts;4;11;left;no;650;leftarrow;691;true;focus;yes;826560;Chrome;112.0;macOS;10.15.7;undefined;undefined;1440 x 900;1440 x 900
H028;31;Vrouwelijk;Rechts;4;12;right;no;650;rightarrow;906;true;focus;yes;828235;Chrome;112.0;macOS;10.15.7;undefined;undefined;1440 x 900;1440 x 900
H028;31;Vrouwelijk;Rechts;4;13;right;no;650;rightarrow;840;true;focus;yes;829840;Chrome;112.0;macOS;10.15.7;undefined;undefined;1440 x 900;1440 x 900
H028;31;Vrouwelijk;Rechts;4;14;right;yes;650;undefined;null;true;focus;yes;831870;Chrome;112.0;macOS;10.15.7;undefined;undefined;1440 x 900;1440 x 900
H028;31;Vrouwelijk;Rechts;4;15;right;no;700;rightarrow;628;true;focus;yes;833270;Chrome;112.0;macOS;10.15.7;undefined;undefined;1440 x 900;1440 x 900
H028;31;Vrouwelijk;Rechts;4;16;left;no;700;leftarrow;891;true;focus;yes;834932;Chrome;112.0;macOS;10.15.7;undefined;undefined;1440 x 900;1440 x 900
H028;31;Vrouwelijk;Rechts;4;17;left;yes;700;undefined;null;true;focus;yes;836960;Chrome;112.0;macOS;10.15.7;undefined;undefined;1440 x 900;1440 x 900
H028;31;Vrouwelijk;Rechts;4;18;left;no;750;leftarrow;719;true;focus;yes;838449;Chrome;112.0;macOS;10.15.7;undefined;undefined;1440 x 900;1440 x 900
H028;31;Vrouwelijk;Rechts;4;19;left;no;750;leftarrow;1150;true;focus;yes;840367;Chrome;112.0;macOS;10.15.7;undefined;undefined;1440 x 900;1440 x 900
H028;31;Vrouwelijk;Rechts;4;20;left;no;750;leftarrow;853;true;focus;yes;842000;Chrome;112.0;macOS;10.15.7;undefined;undefined;1440 x 900;1440 x 900
H028;31;Vrouwelijk;Rechts;4;21;right;no;750;rightarrow;1127;true;focus;yes;843896;Chrome;112.0;macOS;10.15.7;undefined;undefined;1440 x 900;1440 x 900
H028;31;Vrouwelijk;Rechts;4;22;right;no;750;rightarrow;860;true;focus;yes;845525;Chrome;112.0;macOS;10.15.7;undefined;undefined;1440 x 900;1440 x 900
H028;31;Vrouwelijk;Rechts;4;23;right;no;750;rightarrow;802;true;focus;yes;847106;Chrome;112.0;macOS;10.15.7;undefined;undefined;1440 x 900;1440 x 900
H028;31;Vrouwelijk;Rechts;4;24;right;yes;750;undefined;null;true;focus;yes;849125;Chrome;112.0;macOS;10.15.7;undefined;undefined;1440 x 900;1440 x 900
H028;31;Vrouwelijk;Rechts;4;25;left;no;800;leftarrow;455;true;focus;yes;850359;Chrome;112.0;macOS;10.15.7;undefined;undefined;1440 x 900;1440 x 900
H028;31;Vrouwelijk;Rechts;4;26;left;no;800;leftarrow;837;true;focus;yes;851967;Chrome;112.0;macOS;10.15.7;undefined;undefined;1440 x 900;1440 x 900
H028;31;Vrouwelijk;Rechts;4;27;right;no;800;rightarrow;657;true;focus;yes;853403;Chrome;112.0;macOS;10.15.7;undefined;undefined;1440 x 900;1440 x 900
H028;31;Vrouwelijk;Rechts;4;28;right;no;800;rightarrow;797;true;focus;yes;854961;Chrome;112.0;macOS;10.15.7;undefined;undefined;1440 x 900;1440 x 900
H028;31;Vrouwelijk;Rechts;4;29;right;no;800;rightarrow;912;true;focus;yes;856640;Chrome;112.0;macOS;10.15.7;undefined;undefined;1440 x 900;1440 x 900
H028;31;Vrouwelijk;Rechts;4;30;left;yes;800;leftarrow;849;false;focus;yes;858265;Chrome;112.0;macOS;10.15.7;undefined;undefined;1440 x 900;1440 x 900
H028;31;Vrouwelijk;Rechts;4;31;right;yes;750;undefined;null;true;focus;yes;860284;Chrome;112.0;macOS;10.15.7;undefined;undefined;1440 x 900;1440 x 900
H028;31;Vrouwelijk;Rechts;4;32;left;no;800;leftarrow;717;true;focus;yes;861765;Chrome;112.0;macOS;10.15.7;undefined;undefined;1440 x 900;1440 x 900
H028;31;Vrouwelijk;Rechts;4;33;right;no;800;rightarrow;1019;true;focus;yes;863550;Chrome;112.0;macOS;10.15.7;undefined;undefined;1440 x 900;1440 x 900
H028;31;Vrouwelijk;Rechts;4;34;right;yes;800;undefined;null;true;focus;yes;865571;Chrome;112.0;macOS;10.15.7;undefined;undefined;1440 x 900;1440 x 900
H028;31;Vrouwelijk;Rechts;4;35;left;yes;850;leftarrow;670;false;focus;yes;867004;Chrome;112.0;macOS;10.15.7;undefined;undefined;1440 x 900;1440 x 900
H028;31;Vrouwelijk;Rechts;4;36;right;no;800;rightarrow;932;true;focus;yes;868709;Chrome;112.0;macOS;10.15.7;undefined;undefined;1440 x 900;1440 x 900
H028;31;Vrouwelijk;Rechts;4;37;left;no;800;leftarrow;1124;true;focus;yes;870604;Chrome;112.0;macOS;10.15.7;undefined;undefined;1440 x 900;1440 x 900
H028;31;Vrouwelijk;Rechts;4;38;right;no;800;rightarrow;927;true;focus;yes;872304;Chrome;112.0;macOS;10.15.7;undefined;undefined;1440 x 900;1440 x 900
H028;31;Vrouwelijk;Rechts;4;39;left;no;800;leftarrow;870;true;focus;yes;873940;Chrome;112.0;macOS;10.15.7;undefined;undefined;1440 x 900;1440 x 900
H028;31;Vrouwelijk;Rechts;4;40;left;no;800;leftarrow;1226;true;focus;yes;875945;Chrome;112.0;macOS;10.15.7;undefined;undefined;1440 x 900;1440 x 900
H028;31;Vrouwelijk;Rechts;4;41;left;no;800;undefined;null;false;focus;yes;877970;Chrome;112.0;macOS;10.15.7;undefined;undefined;1440 x 900;1440 x 900
H028;31;Vrouwelijk;Rechts;4;42;right;no;800;rightarrow;1053;true;focus;yes;879796;Chrome;112.0;macOS;10.15.7;undefined;undefined;1440 x 900;1440 x 900
H028;31;Vrouwelijk;Rechts;4;43;right;no;800;undefined;null;false;focus;yes;881827;Chrome;112.0;macOS;10.15.7;undefined;undefined;1440 x 900;1440 x 900
H028;31;Vrouwelijk;Rechts;4;44;left;no;800;leftarrow;633;true;focus;yes;883236;Chrome;112.0;macOS;10.15.7;undefined;undefined;1440 x 900;1440 x 900
H028;31;Vrouwelijk;Rechts;4;45;right;no;800;rightarrow;701;true;focus;yes;884721;Chrome;112.0;macOS;10.15.7;undefined;undefined;1440 x 900;1440 x 900
H028;31;Vrouwelijk;Rechts;4;46;right;yes;800;rightarrow;657;false;focus;yes;886144;Chrome;112.0;macOS;10.15.7;undefined;undefined;1440 x 900;1440 x 900
H028;31;Vrouwelijk;Rechts;4;47;left;yes;750;leftarrow;604;false;focus;yes;887513;Chrome;112.0;macOS;10.15.7;undefined;undefined;1440 x 900;1440 x 900
H028;31;Vrouwelijk;Rechts;4;48;left;no;700;leftarrow;832;true;focus;yes;889112;Chrome;112.0;macOS;10.15.7;undefined;undefined;1440 x 900;1440 x 900
H028;31;Vrouwelijk;Rechts;4;49;left;no;700;leftarrow;893;true;focus;yes;890781;Chrome;112.0;macOS;10.15.7;undefined;undefined;1440 x 900;1440 x 900
H028;31;Vrouwelijk;Rechts;4;50;right;yes;700;rightarrow;631;false;focus;yes;892191;Chrome;112.0;macOS;10.15.7;undefined;undefined;1440 x 900;1440 x 900
H028;31;Vrouwelijk;Rechts;4;51;left;no;650;leftarrow;527;true;focus;yes;893486;Chrome;112.0;macOS;10.15.7;undefined;undefined;1440 x 900;1440 x 900
H028;31;Vrouwelijk;Rechts;4;52;right;no;650;rightarrow;552;true;focus;yes;894817;Chrome;112.0;macOS;10.15.7;undefined;undefined;1440 x 900;1440 x 900
H028;31;Vrouwelijk;Rechts;4;53;left;no;650;leftarrow;626;true;focus;yes;896217;Chrome;112.0;macOS;10.15.7;undefined;undefined;1440 x 900;1440 x 900
H028;31;Vrouwelijk;Rechts;4;54;left;yes;650;leftarrow;863;false;focus;yes;897846;Chrome;112.0;macOS;10.15.7;undefined;undefined;1440 x 900;1440 x 900
H028;31;Vrouwelijk;Rechts;4;55;right;no;600;rightarrow;707;true;focus;yes;899322;Chrome;112.0;macOS;10.15.7;undefined;undefined;1440 x 900;1440 x 900
H028;31;Vrouwelijk;Rechts;4;56;right;no;600;rightarrow;802;true;focus;yes;900898;Chrome;112.0;macOS;10.15.7;undefined;undefined;1440 x 900;1440 x 900
H028;31;Vrouwelijk;Rechts;4;57;right;no;600;rightarrow;616;true;focus;yes;902287;Chrome;112.0;macOS;10.15.7;undefined;undefined;1440 x 900;1440 x 900
H028;31;Vrouwelijk;Rechts;4;58;right;no;600;rightarrow;741;true;focus;yes;903788;Chrome;112.0;macOS;10.15.7;undefined;undefined;1440 x 900;1440 x 900
H028;31;Vrouwelijk;Rechts;4;59;right;yes;600;rightarrow;817;false;focus;yes;905375;Chrome;112.0;macOS;10.15.7;undefined;undefined;1440 x 900;1440 x 900
H028;31;Vrouwelijk;Rechts;4;60;left;yes;550;undefined;null;true;focus;yes;907401;Chrome;112.0;macOS;10.15.7;undefined;undefined;1440 x 900;1440 x 900
H028;31;Vrouwelijk;Rechts;4;61;right;no;600;rightarrow;492;true;focus;yes;908659;Chrome;112.0;macOS;10.15.7;undefined;undefined;1440 x 900;1440 x 900
H028;31;Vrouwelijk;Rechts;4;62;left;no;600;leftarrow;979;true;focus;yes;910410;Chrome;112.0;macOS;10.15.7;undefined;undefined;1440 x 900;1440 x 900
H028;31;Vrouwelijk;Rechts;4;63;left;no;600;undefined;null;false;focus;yes;912444;Chrome;112.0;macOS;10.15.7;undefined;undefined;1440 x 900;1440 x 900
H028;31;Vrouwelijk;Rechts;4;64;left;no;600;leftarrow;905;true;focus;yes;914126;Chrome;112.0;macOS;10.15.7;undefined;undefined;1440 x 900;1440 x 900
H028;31;Vrouwelijk;Rechts;4;65;left;no;600;leftarrow;1042;true;focus;yes;915935;Chrome;112.0;macOS;10.15.7;undefined;undefined;1440 x 900;1440 x 900
H028;31;Vrouwelijk;Rechts;4;66;right;yes;600;undefined;null;true;focus;yes;917969;Chrome;112.0;macOS;10.15.7;undefined;undefined;1440 x 900;1440 x 900
H028;31;Vrouwelijk;Rechts;4;67;right;no;650;rightarrow;750;true;focus;yes;919491;Chrome;112.0;macOS;10.15.7;undefined;undefined;1440 x 900;1440 x 900
H028;31;Vrouwelijk;Rechts;4;68;left;no;650;leftarrow;1004;true;focus;yes;921275;Chrome;112.0;macOS;10.15.7;undefined;undefined;1440 x 900;1440 x 900
H028;31;Vrouwelijk;Rechts;4;69;left;yes;650;undefined;null;true;focus;yes;923304;Chrome;112.0;macOS;10.15.7;undefined;undefined;1440 x 900;1440 x 900
H028;31;Vrouwelijk;Rechts;4;70;left;no;700;leftarrow;814;true;focus;yes;924893;Chrome;112.0;macOS;10.15.7;undefined;undefined;1440 x 900;1440 x 900
H028;31;Vrouwelijk;Rechts;4;71;right;no;700;rightarrow;1204;true;focus;yes;926865;Chrome;112.0;macOS;10.15.7;undefined;undefined;1440 x 900;1440 x 900
H028;31;Vrouwelijk;Rechts;4;72;right;no;700;rightarrow;1237;true;focus;yes;928882;Chrome;112.0;macOS;10.15.7;undefined;undefined;1440 x 900;1440 x 900
H028;31;Vrouwelijk;Rechts;4;73;right;no;700;rightarrow;984;true;focus;yes;930639;Chrome;112.0;macOS;10.15.7;undefined;undefined;1440 x 900;1440 x 900
H028;31;Vrouwelijk;Rechts;4;74;left;no;700;leftarrow;1189;true;focus;yes;932587;Chrome;112.0;macOS;10.15.7;undefined;undefined;1440 x 900;1440 x 900
H028;31;Vrouwelijk;Rechts;4;75;right;no;700;rightarrow;1229;true;focus;yes;934578;Chrome;112.0;macOS;10.15.7;undefined;undefined;1440 x 900;1440 x 900
H028;31;Vrouwelijk;Rechts;4;76;right;yes;700;undefined;null;true;focus;yes;936609;Chrome;112.0;macOS;10.15.7;undefined;undefined;1440 x 900;1440 x 900
H028;31;Vrouwelijk;Rechts;4;77;left;no;750;leftarrow;870;true;focus;yes;938252;Chrome;112.0;macOS;10.15.7;undefined;undefined;1440 x 900;1440 x 900
H028;31;Vrouwelijk;Rechts;4;78;right;no;750;rightarrow;1166;true;focus;yes;940186;Chrome;112.0;macOS;10.15.7;undefined;undefined;1440 x 900;1440 x 900
H028;31;Vrouwelijk;Rechts;4;79;left;no;750;leftarrow;1232;true;focus;yes;942201;Chrome;112.0;macOS;10.15.7;undefined;undefined;1440 x 900;1440 x 900
H028;31;Vrouwelijk;Rechts;4;80;left;yes;750;undefined;null;true;focus;yes;944227;Chrome;112.0;macOS;10.15.7;undefined;undefined;1440 x 900;1440 x 900
H028;31;Vrouwelijk;Rechts;4;81;left;yes;800;leftarrow;846;false;focus;yes;945851;Chrome;112.0;macOS;10.15.7;undefined;undefined;1440 x 900;1440 x 900
H028;31;Vrouwelijk;Rechts;4;82;left;no;750;undefined;null;false;focus;yes;947891;Chrome;112.0;macOS;10.15.7;undefined;undefined;1440 x 900;1440 x 900
H028;31;Vrouwelijk;Rechts;4;83;right;no;750;rightarrow;442;true;focus;yes;949116;Chrome;112.0;macOS;10.15.7;undefined;undefined;1440 x 900;1440 x 900
H028;31;Vrouwelijk;Rechts;4;84;left;no;750;leftarrow;497;true;focus;yes;950393;Chrome;112.0;macOS;10.15.7;undefined;undefined;1440 x 900;1440 x 900
H028;31;Vrouwelijk;Rechts;4;85;right;no;750;rightarrow;421;true;focus;yes;951586;Chrome;112.0;macOS;10.15.7;undefined;undefined;1440 x 900;1440 x 900
H028;31;Vrouwelijk;Rechts;4;86;left;no;750;leftarrow;539;true;focus;yes;952895;Chrome;112.0;macOS;10.15.7;undefined;undefined;1440 x 900;1440 x 900
H028;31;Vrouwelijk;Rechts;4;87;right;yes;750;rightarrow;411;false;focus;yes;954071;Chrome;112.0;macOS;10.15.7;undefined;undefined;1440 x 900;1440 x 900
H028;31;Vrouwelijk;Rechts;4;88;right;no;700;rightarrow;589;true;focus;yes;955426;Chrome;112.0;macOS;10.15.7;undefined;undefined;1440 x 900;1440 x 900
H028;31;Vrouwelijk;Rechts;4;89;left;no;700;leftarrow;592;true;focus;yes;956796;Chrome;112.0;macOS;10.15.7;undefined;undefined;1440 x 900;1440 x 900
H028;31;Vrouwelijk;Rechts;4;90;right;no;700;rightarrow;522;true;focus;yes;958087;Chrome;112.0;macOS;10.15.7;undefined;undefined;1440 x 900;1440 x 900
H028;31;Vrouwelijk;Rechts;4;91;right;yes;700;rightarrow;606;false;focus;yes;959458;Chrome;112.0;macOS;10.15.7;undefined;undefined;1440 x 900;1440 x 900
H028;31;Vrouwelijk;Rechts;4;92;right;no;650;rightarrow;446;true;focus;yes;960685;Chrome;112.0;macOS;10.15.7;undefined;undefined;1440 x 900;1440 x 900
H028;31;Vrouwelijk;Rechts;4;93;left;no;650;leftarrow;436;true;focus;yes;961889;Chrome;112.0;macOS;10.15.7;undefined;undefined;1440 x 900;1440 x 900
H028;31;Vrouwelijk;Rechts;4;94;right;no;650;rightarrow;471;true;focus;yes;963131;Chrome;112.0;macOS;10.15.7;undefined;undefined;1440 x 900;1440 x 900
H028;31;Vrouwelijk;Rechts;4;95;left;yes;650;leftarrow;442;false;focus;yes;964338;Chrome;112.0;macOS;10.15.7;undefined;undefined;1440 x 900;1440 x 900
H028;31;Vrouwelijk;Rechts;4;96;left;no;600;leftarrow;481;true;focus;yes;965589;Chrome;112.0;macOS;10.15.7;undefined;undefined;1440 x 900;1440 x 900
H028;31;Vrouwelijk;Rechts;4;97;left;no;600;leftarrow;439;true;focus;yes;966794;Chrome;112.0;macOS;10.15.7;undefined;undefined;1440 x 900;1440 x 900
H028;31;Vrouwelijk;Rechts;4;98;left;yes;600;leftarrow;530;false;focus;yes;968094;Chrome;112.0;macOS;10.15.7;undefined;undefined;1440 x 900;1440 x 900
H028;31;Vrouwelijk;Rechts;4;99;left;no;550;leftarrow;476;true;focus;yes;969346;Chrome;112.0;macOS;10.15.7;undefined;undefined;1440 x 900;1440 x 900
H028;31;Vrouwelijk;Rechts;4;100;right;no;550;rightarrow;371;true;focus;yes;970496;Chrome;112.0;macOS;10.15.7;undefined;undefined;1440 x 900;1440 x 900
H028;31;Vrouwelijk;Rechts;4;101;right;no;550;rightarrow;455;true;focus;yes;971722;Chrome;112.0;macOS;10.15.7;undefined;undefined;1440 x 900;1440 x 900
H028;31;Vrouwelijk;Rechts;4;102;right;yes;550;rightarrow;425;false;focus;yes;972917;Chrome;112.0;macOS;10.15.7;undefined;undefined;1440 x 900;1440 x 900
H028;31;Vrouwelijk;Rechts;4;103;right;no;500;rightarrow;428;true;focus;yes;974119;Chrome;112.0;macOS;10.15.7;undefined;undefined;1440 x 900;1440 x 900
H028;31;Vrouwelijk;Rechts;4;104;left;no;500;leftarrow;395;true;focus;yes;975288;Chrome;112.0;macOS;10.15.7;undefined;undefined;1440 x 900;1440 x 900
H028;31;Vrouwelijk;Rechts;4;105;right;yes;500;rightarrow;563;false;focus;yes;976625;Chrome;112.0;macOS;10.15.7;undefined;undefined;1440 x 900;1440 x 900
H028;31;Vrouwelijk;Rechts;4;106;right;no;450;rightarrow;652;true;focus;yes;978049;Chrome;112.0;macOS;10.15.7;undefined;undefined;1440 x 900;1440 x 900
H028;31;Vrouwelijk;Rechts;4;107;left;no;450;leftarrow;359;true;focus;yes;979188;Chrome;112.0;macOS;10.15.7;undefined;undefined;1440 x 900;1440 x 900
H028;31;Vrouwelijk;Rechts;4;108;right;no;450;leftarrow;386;false;focus;yes;980342;Chrome;112.0;macOS;10.15.7;undefined;undefined;1440 x 900;1440 x 900
H028;31;Vrouwelijk;Rechts;4;109;right;no;450;rightarrow;496;true;focus;yes;981613;Chrome;112.0;macOS;10.15.7;undefined;undefined;1440 x 900;1440 x 900
H028;31;Vrouwelijk;Rechts;4;110;left;no;450;leftarrow;410;true;focus;yes;982788;Chrome;112.0;macOS;10.15.7;undefined;undefined;1440 x 900;1440 x 900
H028;31;Vrouwelijk;Rechts;4;111;left;no;450;leftarrow;516;true;focus;yes;984071;Chrome;112.0;macOS;10.15.7;undefined;undefined;1440 x 900;1440 x 900
H028;31;Vrouwelijk;Rechts;4;112;left;yes;450;leftarrow;460;false;focus;yes;985295;Chrome;112.0;macOS;10.15.7;undefined;undefined;1440 x 900;1440 x 900
H028;31;Vrouwelijk;Rechts;4;113;right;no;400;rightarrow;372;true;focus;yes;986430;Chrome;112.0;macOS;10.15.7;undefined;undefined;1440 x 900;1440 x 900
H028;31;Vrouwelijk;Rechts;4;114;right;yes;400;rightarrow;384;false;focus;yes;987579;Chrome;112.0;macOS;10.15.7;undefined;undefined;1440 x 900;1440 x 900
H028;31;Vrouwelijk;Rechts;4;115;right;no;350;rightarrow;533;true;focus;yes;988889;Chrome;112.0;macOS;10.15.7;undefined;undefined;1440 x 900;1440 x 900
H028;31;Vrouwelijk;Rechts;4;116;left;yes;350;leftarrow;529;false;focus;yes;990184;Chrome;112.0;macOS;10.15.7;undefined;undefined;1440 x 900;1440 x 900
H028;31;Vrouwelijk;Rechts;4;117;left;no;300;leftarrow;516;true;focus;yes;991471;Chrome;112.0;macOS;10.15.7;undefined;undefined;1440 x 900;1440 x 900
H028;31;Vrouwelijk;Rechts;4;118;left;no;300;leftarrow;470;true;focus;yes;992715;Chrome;112.0;macOS;10.15.7;undefined;undefined;1440 x 900;1440 x 900
H028;31;Vrouwelijk;Rechts;4;119;left;no;300;leftarrow;433;true;focus;yes;993915;Chrome;112.0;macOS;10.15.7;undefined;undefined;1440 x 900;1440 x 900
H028;31;Vrouwelijk;Rechts;4;120;right;no;300;rightarrow;607;true;focus;yes;995289;Chrome;112.0;macOS;10.15.7;undefined;undefined;1440 x 900;1440 x 900
H028;31;Vrouwelijk;Rechts;4;121;left;no;300;leftarrow;732;true;focus;yes;996791;Chrome;112.0;macOS;10.15.7;undefined;undefined;1440 x 900;1440 x 900
H028;31;Vrouwelijk;Rechts;4;122;left;no;300;leftarrow;634;true;focus;yes;998200;Chrome;112.0;macOS;10.15.7;undefined;undefined;1440 x 900;1440 x 900
H028;31;Vrouwelijk;Rechts;4;123;right;no;300;rightarrow;535;true;focus;yes;999501;Chrome;112.0;macOS;10.15.7;undefined;undefined;1440 x 900;1440 x 900
H028;31;Vrouwelijk;Rechts;4;124;right;yes;300;undefined;null;true;focus;yes;1001526;Chrome;112.0;macOS;10.15.7;undefined;undefined;1440 x 900;1440 x 900
H028;31;Vrouwelijk;Rechts;4;125;right;no;350;rightarrow;473;true;focus;yes;1002772;Chrome;112.0;macOS;10.15.7;undefined;undefined;1440 x 900;1440 x 900
H028;31;Vrouwelijk;Rechts;4;126;left;no;350;leftarrow;681;true;focus;yes;1004228;Chrome;112.0;macOS;10.15.7;undefined;undefined;1440 x 900;1440 x 900
H028;31;Vrouwelijk;Rechts;4;127;left;yes;350;undefined;null;true;focus;yes;1006256;Chrome;112.0;macOS;10.15.7;undefined;undefined;1440 x 900;1440 x 900
H028;31;Vrouwelijk;Rechts;4;128;right;no;400;rightarrow;447;true;focus;yes;1007479;Chrome;112.0;macOS;10.15.7;undefined;undefined;1440 x 900;1440 x 900
H028;31;Vrouwelijk;Rechts;5;1;right;yes;400;rightarrow;707;false;focus;yes;1063706;Chrome;112.0;macOS;10.15.7;undefined;undefined;1440 x 900;1440 x 900
H028;31;Vrouwelijk;Rechts;5;2;left;no;350;leftarrow;630;true;focus;yes;1065101;Chrome;112.0;macOS;10.15.7;undefined;undefined;1440 x 900;1440 x 900
H028;31;Vrouwelijk;Rechts;5;3;right;no;350;rightarrow;491;true;focus;yes;1066364;Chrome;112.0;macOS;10.15.7;undefined;undefined;1440 x 900;1440 x 900
H028;31;Vrouwelijk;Rechts;5;4;right;no;350;rightarrow;609;true;focus;yes;1067737;Chrome;112.0;macOS;10.15.7;undefined;undefined;1440 x 900;1440 x 900
H028;31;Vrouwelijk;Rechts;5;5;right;no;350;rightarrow;732;true;focus;yes;1069246;Chrome;112.0;macOS;10.15.7;undefined;undefined;1440 x 900;1440 x 900
H028;31;Vrouwelijk;Rechts;5;6;left;no;350;leftarrow;540;true;focus;yes;1070565;Chrome;112.0;macOS;10.15.7;undefined;undefined;1440 x 900;1440 x 900
H028;31;Vrouwelijk;Rechts;5;7;left;no;350;leftarrow;433;true;focus;yes;1071779;Chrome;112.0;macOS;10.15.7;undefined;undefined;1440 x 900;1440 x 900
H028;31;Vrouwelijk;Rechts;5;8;left;yes;350;leftarrow;474;false;focus;yes;1073028;Chrome;112.0;macOS;10.15.7;undefined;undefined;1440 x 900;1440 x 900
H028;31;Vrouwelijk;Rechts;5;9;left;yes;300;undefined;null;true;focus;yes;1075041;Chrome;112.0;macOS;10.15.7;undefined;undefined;1440 x 900;1440 x 900
H028;31;Vrouwelijk;Rechts;5;10;right;yes;350;rightarrow;360;false;focus;yes;1076180;Chrome;112.0;macOS;10.15.7;undefined;undefined;1440 x 900;1440 x 900
H028;31;Vrouwelijk;Rechts;5;11;left;no;300;leftarrow;719;true;focus;yes;1077669;Chrome;112.0;macOS;10.15.7;undefined;undefined;1440 x 900;1440 x 900
H028;31;Vrouwelijk;Rechts;5;12;left;no;300;leftarrow;965;true;focus;yes;1079405;Chrome;112.0;macOS;10.15.7;undefined;undefined;1440 x 900;1440 x 900
H028;31;Vrouwelijk;Rechts;5;13;right;no;300;rightarrow;767;true;focus;yes;1080942;Chrome;112.0;macOS;10.15.7;undefined;undefined;1440 x 900;1440 x 900
H028;31;Vrouwelijk;Rechts;5;14;left;no;300;leftarrow;821;true;focus;yes;1082543;Chrome;112.0;macOS;10.15.7;undefined;undefined;1440 x 900;1440 x 900
H028;31;Vrouwelijk;Rechts;5;15;right;no;300;rightarrow;926;true;focus;yes;1084238;Chrome;112.0;macOS;10.15.7;undefined;undefined;1440 x 900;1440 x 900
H028;31;Vrouwelijk;Rechts;5;16;right;no;300;rightarrow;920;true;focus;yes;1085937;Chrome;112.0;macOS;10.15.7;undefined;undefined;1440 x 900;1440 x 900
H028;31;Vrouwelijk;Rechts;5;17;left;yes;300;undefined;null;true;focus;yes;1087960;Chrome;112.0;macOS;10.15.7;undefined;undefined;1440 x 900;1440 x 900
H028;31;Vrouwelijk;Rechts;5;18;left;no;350;leftarrow;667;true;focus;yes;1089396;Chrome;112.0;macOS;10.15.7;undefined;undefined;1440 x 900;1440 x 900
H028;31;Vrouwelijk;Rechts;5;19;right;no;350;undefined;null;false;focus;yes;1091427;Chrome;112.0;macOS;10.15.7;undefined;undefined;1440 x 900;1440 x 900
H028;31;Vrouwelijk;Rechts;5;20;left;no;350;leftarrow;389;true;focus;yes;1092593;Chrome;112.0;macOS;10.15.7;undefined;undefined;1440 x 900;1440 x 900
H028;31;Vrouwelijk;Rechts;5;21;right;no;350;rightarrow;465;true;focus;yes;1093824;Chrome;112.0;macOS;10.15.7;undefined;undefined;1440 x 900;1440 x 900
H028;31;Vrouwelijk;Rechts;5;22;right;yes;350;rightarrow;523;false;focus;yes;1095123;Chrome;112.0;macOS;10.15.7;undefined;undefined;1440 x 900;1440 x 900
H028;31;Vrouwelijk;Rechts;5;23;left;no;300;leftarrow;326;true;focus;yes;1096221;Chrome;112.0;macOS;10.15.7;undefined;undefined;1440 x 900;1440 x 900
H028;31;Vrouwelijk;Rechts;5;24;right;no;300;rightarrow;662;true;focus;yes;1097661;Chrome;112.0;macOS;10.15.7;undefined;undefined;1440 x 900;1440 x 900
H028;31;Vrouwelijk;Rechts;5;25;left;no;300;leftarrow;657;true;focus;yes;1099090;Chrome;112.0;macOS;10.15.7;undefined;undefined;1440 x 900;1440 x 900
H028;31;Vrouwelijk;Rechts;5;26;left;no;300;leftarrow;718;true;focus;yes;1100580;Chrome;112.0;macOS;10.15.7;undefined;undefined;1440 x 900;1440 x 900
H028;31;Vrouwelijk;Rechts;5;27;left;no;300;leftarrow;809;true;focus;yes;1102159;Chrome;112.0;macOS;10.15.7;undefined;undefined;1440 x 900;1440 x 900
H028;31;Vrouwelijk;Rechts;5;28;right;yes;300;undefined;null;true;focus;yes;1104184;Chrome;112.0;macOS;10.15.7;undefined;undefined;1440 x 900;1440 x 900
H028;31;Vrouwelijk;Rechts;5;29;right;no;350;rightarrow;631;true;focus;yes;1105584;Chrome;112.0;macOS;10.15.7;undefined;undefined;1440 x 900;1440 x 900
H028;31;Vrouwelijk;Rechts;5;30;left;yes;350;undefined;null;true;focus;yes;1107620;Chrome;112.0;macOS;10.15.7;undefined;undefined;1440 x 900;1440 x 900
H028;31;Vrouwelijk;Rechts;5;31;right;no;400;rightarrow;659;true;focus;yes;1109062;Chrome;112.0;macOS;10.15.7;undefined;undefined;1440 x 900;1440 x 900
H028;31;Vrouwelijk;Rechts;5;32;right;no;400;rightarrow;672;true;focus;yes;1110502;Chrome;112.0;macOS;10.15.7;undefined;undefined;1440 x 900;1440 x 900
H028;31;Vrouwelijk;Rechts;5;33;left;yes;400;undefined;null;true;focus;yes;1112538;Chrome;112.0;macOS;10.15.7;undefined;undefined;1440 x 900;1440 x 900
H028;31;Vrouwelijk;Rechts;5;34;right;yes;450;rightarrow;516;false;focus;yes;1113838;Chrome;112.0;macOS;10.15.7;undefined;undefined;1440 x 900;1440 x 900
H028;31;Vrouwelijk;Rechts;5;35;left;no;400;leftarrow;633;true;focus;yes;1115241;Chrome;112.0;macOS;10.15.7;undefined;undefined;1440 x 900;1440 x 900
H028;31;Vrouwelijk;Rechts;5;36;right;no;400;rightarrow;842;true;focus;yes;1116848;Chrome;112.0;macOS;10.15.7;undefined;undefined;1440 x 900;1440 x 900
H028;31;Vrouwelijk;Rechts;5;37;left;no;400;leftarrow;671;true;focus;yes;1118284;Chrome;112.0;macOS;10.15.7;undefined;undefined;1440 x 900;1440 x 900
H028;31;Vrouwelijk;Rechts;5;38;right;no;400;rightarrow;953;true;focus;yes;1120008;Chrome;112.0;macOS;10.15.7;undefined;undefined;1440 x 900;1440 x 900
H028;31;Vrouwelijk;Rechts;5;39;left;no;400;leftarrow;583;true;focus;yes;1121367;Chrome;112.0;macOS;10.15.7;undefined;undefined;1440 x 900;1440 x 900
H028;31;Vrouwelijk;Rechts;5;40;right;no;400;rightarrow;695;true;focus;yes;1122836;Chrome;112.0;macOS;10.15.7;undefined;undefined;1440 x 900;1440 x 900
H028;31;Vrouwelijk;Rechts;5;41;right;yes;400;undefined;null;true;focus;yes;1124868;Chrome;112.0;macOS;10.15.7;undefined;undefined;1440 x 900;1440 x 900
H028;31;Vrouwelijk;Rechts;5;42;left;no;450;leftarrow;443;true;focus;yes;1126094;Chrome;112.0;macOS;10.15.7;undefined;undefined;1440 x 900;1440 x 900
H028;31;Vrouwelijk;Rechts;5;43;left;no;450;leftarrow;771;true;focus;yes;1127640;Chrome;112.0;macOS;10.15.7;undefined;undefined;1440 x 900;1440 x 900
H028;31;Vrouwelijk;Rechts;5;44;right;no;450;rightarrow;838;true;focus;yes;1129245;Chrome;112.0;macOS;10.15.7;undefined;undefined;1440 x 900;1440 x 900
H028;31;Vrouwelijk;Rechts;5;45;right;no;450;rightarrow;570;true;focus;yes;1130591;Chrome;112.0;macOS;10.15.7;undefined;undefined;1440 x 900;1440 x 900
H028;31;Vrouwelijk;Rechts;5;46;left;yes;450;undefined;null;true;focus;yes;1132627;Chrome;112.0;macOS;10.15.7;undefined;undefined;1440 x 900;1440 x 900
H028;31;Vrouwelijk;Rechts;5;47;right;no;500;rightarrow;450;true;focus;yes;1133846;Chrome;112.0;macOS;10.15.7;undefined;undefined;1440 x 900;1440 x 900
H028;31;Vrouwelijk;Rechts;5;48;left;no;500;leftarrow;836;true;focus;yes;1135448;Chrome;112.0;macOS;10.15.7;undefined;undefined;1440 x 900;1440 x 900
H028;31;Vrouwelijk;Rechts;5;49;right;yes;500;rightarrow;502;false;focus;yes;1136723;Chrome;112.0;macOS;10.15.7;undefined;undefined;1440 x 900;1440 x 900
H028;31;Vrouwelijk;Rechts;5;50;left;no;450;leftarrow;537;true;focus;yes;1138024;Chrome;112.0;macOS;10.15.7;undefined;undefined;1440 x 900;1440 x 900
H028;31;Vrouwelijk;Rechts;5;51;left;no;450;leftarrow;1016;true;focus;yes;1139814;Chrome;112.0;macOS;10.15.7;undefined;undefined;1440 x 900;1440 x 900
H028;31;Vrouwelijk;Rechts;5;52;left;no;450;leftarrow;589;true;focus;yes;1141170;Chrome;112.0;macOS;10.15.7;undefined;undefined;1440 x 900;1440 x 900
H028;31;Vrouwelijk;Rechts;5;53;right;no;450;rightarrow;513;true;focus;yes;1142466;Chrome;112.0;macOS;10.15.7;undefined;undefined;1440 x 900;1440 x 900
H028;31;Vrouwelijk;Rechts;5;54;left;yes;450;undefined;null;true;focus;yes;1144504;Chrome;112.0;macOS;10.15.7;undefined;undefined;1440 x 900;1440 x 900
H028;31;Vrouwelijk;Rechts;5;55;right;no;500;rightarrow;382;true;focus;yes;1145659;Chrome;112.0;macOS;10.15.7;undefined;undefined;1440 x 900;1440 x 900
H028;31;Vrouwelijk;Rechts;5;56;right;no;500;rightarrow;675;true;focus;yes;1147113;Chrome;112.0;macOS;10.15.7;undefined;undefined;1440 x 900;1440 x 900
H028;31;Vrouwelijk;Rechts;5;57;left;yes;500;undefined;null;true;focus;yes;1149134;Chrome;112.0;macOS;10.15.7;undefined;undefined;1440 x 900;1440 x 900
H028;31;Vrouwelijk;Rechts;5;58;left;no;550;leftarrow;443;true;focus;yes;1150348;Chrome;112.0;macOS;10.15.7;undefined;undefined;1440 x 900;1440 x 900
H028;31;Vrouwelijk;Rechts;5;59;right;no;550;rightarrow;467;true;focus;yes;1151585;Chrome;112.0;macOS;10.15.7;undefined;undefined;1440 x 900;1440 x 900
H028;31;Vrouwelijk;Rechts;5;60;left;no;550;leftarrow;625;true;focus;yes;1152982;Chrome;112.0;macOS;10.15.7;undefined;undefined;1440 x 900;1440 x 900
H028;31;Vrouwelijk;Rechts;5;61;left;no;550;leftarrow;521;true;focus;yes;1154280;Chrome;112.0;macOS;10.15.7;undefined;undefined;1440 x 900;1440 x 900
H028;31;Vrouwelijk;Rechts;5;62;right;yes;550;rightarrow;604;false;focus;yes;1155659;Chrome;112.0;macOS;10.15.7;undefined;undefined;1440 x 900;1440 x 900
H028;31;Vrouwelijk;Rechts;5;63;right;no;500;rightarrow;570;true;focus;yes;1156997;Chrome;112.0;macOS;10.15.7;undefined;undefined;1440 x 900;1440 x 900
H028;31;Vrouwelijk;Rechts;5;64;right;no;500;rightarrow;654;true;focus;yes;1158418;Chrome;112.0;macOS;10.15.7;undefined;undefined;1440 x 900;1440 x 900
H028;31;Vrouwelijk;Rechts;5;65;left;yes;500;leftarrow;634;false;focus;yes;1159822;Chrome;112.0;macOS;10.15.7;undefined;undefined;1440 x 900;1440 x 900
H028;31;Vrouwelijk;Rechts;5;66;right;no;450;rightarrow;400;true;focus;yes;1160997;Chrome;112.0;macOS;10.15.7;undefined;undefined;1440 x 900;1440 x 900
H028;31;Vrouwelijk;Rechts;5;67;left;no;450;leftarrow;491;true;focus;yes;1162254;Chrome;112.0;macOS;10.15.7;undefined;undefined;1440 x 900;1440 x 900
H028;31;Vrouwelijk;Rechts;5;68;right;yes;450;rightarrow;550;false;focus;yes;1163582;Chrome;112.0;macOS;10.15.7;undefined;undefined;1440 x 900;1440 x 900
H028;31;Vrouwelijk;Rechts;5;69;right;no;400;rightarrow;539;true;focus;yes;1164889;Chrome;112.0;macOS;10.15.7;undefined;undefined;1440 x 900;1440 x 900
H028;31;Vrouwelijk;Rechts;5;70;right;no;400;rightarrow;719;true;focus;yes;1166378;Chrome;112.0;macOS;10.15.7;undefined;undefined;1440 x 900;1440 x 900
H028;31;Vrouwelijk;Rechts;5;71;left;no;400;leftarrow;435;true;focus;yes;1167584;Chrome;112.0;macOS;10.15.7;undefined;undefined;1440 x 900;1440 x 900
H028;31;Vrouwelijk;Rechts;5;72;left;no;400;leftarrow;643;true;focus;yes;1169009;Chrome;112.0;macOS;10.15.7;undefined;undefined;1440 x 900;1440 x 900
H028;31;Vrouwelijk;Rechts;5;73;left;no;400;leftarrow;593;true;focus;yes;1170383;Chrome;112.0;macOS;10.15.7;undefined;undefined;1440 x 900;1440 x 900
H028;31;Vrouwelijk;Rechts;5;74;left;no;400;leftarrow;612;true;focus;yes;1171770;Chrome;112.0;macOS;10.15.7;undefined;undefined;1440 x 900;1440 x 900
H028;31;Vrouwelijk;Rechts;5;75;right;yes;400;rightarrow;638;false;focus;yes;1173180;Chrome;112.0;macOS;10.15.7;undefined;undefined;1440 x 900;1440 x 900
H028;31;Vrouwelijk;Rechts;5;76;left;yes;350;undefined;null;true;focus;yes;1175217;Chrome;112.0;macOS;10.15.7;undefined;undefined;1440 x 900;1440 x 900
H028;31;Vrouwelijk;Rechts;5;77;right;no;400;rightarrow;529;true;focus;yes;1176524;Chrome;112.0;macOS;10.15.7;undefined;undefined;1440 x 900;1440 x 900
H028;31;Vrouwelijk;Rechts;5;78;left;no;400;leftarrow;541;true;focus;yes;1177833;Chrome;112.0;macOS;10.15.7;undefined;undefined;1440 x 900;1440 x 900
H028;31;Vrouwelijk;Rechts;5;79;right;no;400;rightarrow;640;true;focus;yes;1179244;Chrome;112.0;macOS;10.15.7;undefined;undefined;1440 x 900;1440 x 900
H028;31;Vrouwelijk;Rechts;5;80;right;no;400;rightarrow;672;true;focus;yes;1180684;Chrome;112.0;macOS;10.15.7;undefined;undefined;1440 x 900;1440 x 900
H028;31;Vrouwelijk;Rechts;5;81;left;no;400;leftarrow;657;true;focus;yes;1182109;Chrome;112.0;macOS;10.15.7;undefined;undefined;1440 x 900;1440 x 900
H028;31;Vrouwelijk;Rechts;5;82;right;no;400;rightarrow;697;true;focus;yes;1183573;Chrome;112.0;macOS;10.15.7;undefined;undefined;1440 x 900;1440 x 900
H028;31;Vrouwelijk;Rechts;5;83;right;no;400;rightarrow;759;true;focus;yes;1185109;Chrome;112.0;macOS;10.15.7;undefined;undefined;1440 x 900;1440 x 900
H028;31;Vrouwelijk;Rechts;5;84;left;no;400;leftarrow;736;true;focus;yes;1186612;Chrome;112.0;macOS;10.15.7;undefined;undefined;1440 x 900;1440 x 900
H028;31;Vrouwelijk;Rechts;5;85;left;no;400;leftarrow;892;true;focus;yes;1188284;Chrome;112.0;macOS;10.15.7;undefined;undefined;1440 x 900;1440 x 900
H028;31;Vrouwelijk;Rechts;5;86;right;yes;400;undefined;null;true;focus;yes;1190313;Chrome;112.0;macOS;10.15.7;undefined;undefined;1440 x 900;1440 x 900
H028;31;Vrouwelijk;Rechts;5;87;right;no;450;rightarrow;440;true;focus;yes;1191524;Chrome;112.0;macOS;10.15.7;undefined;undefined;1440 x 900;1440 x 900
H028;31;Vrouwelijk;Rechts;5;88;left;yes;450;leftarrow;665;false;focus;yes;1192957;Chrome;112.0;macOS;10.15.7;undefined;undefined;1440 x 900;1440 x 900
H028;31;Vrouwelijk;Rechts;5;89;right;no;400;rightarrow;1074;true;focus;yes;1194799;Chrome;112.0;macOS;10.15.7;undefined;undefined;1440 x 900;1440 x 900
H028;31;Vrouwelijk;Rechts;5;90;right;yes;400;undefined;null;true;focus;yes;1196831;Chrome;112.0;macOS;10.15.7;undefined;undefined;1440 x 900;1440 x 900
H028;31;Vrouwelijk;Rechts;5;91;left;no;450;leftarrow;714;true;focus;yes;1198319;Chrome;112.0;macOS;10.15.7;undefined;undefined;1440 x 900;1440 x 900
H028;31;Vrouwelijk;Rechts;5;92;left;no;450;leftarrow;709;true;focus;yes;1199809;Chrome;112.0;macOS;10.15.7;undefined;undefined;1440 x 900;1440 x 900
H028;31;Vrouwelijk;Rechts;5;93;left;yes;450;undefined;null;true;focus;yes;1201841;Chrome;112.0;macOS;10.15.7;undefined;undefined;1440 x 900;1440 x 900
H028;31;Vrouwelijk;Rechts;5;94;left;no;500;leftarrow;616;true;focus;yes;1203231;Chrome;112.0;macOS;10.15.7;undefined;undefined;1440 x 900;1440 x 900
H028;31;Vrouwelijk;Rechts;5;95;right;no;500;rightarrow;807;true;focus;yes;1204818;Chrome;112.0;macOS;10.15.7;undefined;undefined;1440 x 900;1440 x 900
H028;31;Vrouwelijk;Rechts;5;96;right;no;500;rightarrow;480;true;focus;yes;1206068;Chrome;112.0;macOS;10.15.7;undefined;undefined;1440 x 900;1440 x 900
H028;31;Vrouwelijk;Rechts;5;97;left;no;500;leftarrow;636;true;focus;yes;1207471;Chrome;112.0;macOS;10.15.7;undefined;undefined;1440 x 900;1440 x 900
H028;31;Vrouwelijk;Rechts;5;98;left;no;500;leftarrow;568;true;focus;yes;1208811;Chrome;112.0;macOS;10.15.7;undefined;undefined;1440 x 900;1440 x 900
H028;31;Vrouwelijk;Rechts;5;99;right;no;500;rightarrow;709;true;focus;yes;1210287;Chrome;112.0;macOS;10.15.7;undefined;undefined;1440 x 900;1440 x 900
H028;31;Vrouwelijk;Rechts;5;100;right;yes;500;undefined;null;true;focus;yes;1212327;Chrome;112.0;macOS;10.15.7;undefined;undefined;1440 x 900;1440 x 900
H028;31;Vrouwelijk;Rechts;5;101;left;no;550;leftarrow;737;true;focus;yes;1213846;Chrome;112.0;macOS;10.15.7;undefined;undefined;1440 x 900;1440 x 900
H028;31;Vrouwelijk;Rechts;5;102;right;no;550;rightarrow;788;true;focus;yes;1215406;Chrome;112.0;macOS;10.15.7;undefined;undefined;1440 x 900;1440 x 900
H028;31;Vrouwelijk;Rechts;5;103;right;no;550;rightarrow;922;true;focus;yes;1217108;Chrome;112.0;macOS;10.15.7;undefined;undefined;1440 x 900;1440 x 900
H028;31;Vrouwelijk;Rechts;5;104;left;yes;550;undefined;null;true;focus;yes;1219144;Chrome;112.0;macOS;10.15.7;undefined;undefined;1440 x 900;1440 x 900
H028;31;Vrouwelijk;Rechts;5;105;left;no;600;leftarrow;522;true;focus;yes;1220444;Chrome;112.0;macOS;10.15.7;undefined;undefined;1440 x 900;1440 x 900
H028;31;Vrouwelijk;Rechts;5;106;right;no;600;rightarrow;733;true;focus;yes;1221954;Chrome;112.0;macOS;10.15.7;undefined;undefined;1440 x 900;1440 x 900
H028;31;Vrouwelijk;Rechts;5;107;left;no;600;leftarrow;851;true;focus;yes;1223581;Chrome;112.0;macOS;10.15.7;undefined;undefined;1440 x 900;1440 x 900
H028;31;Vrouwelijk;Rechts;5;108;right;yes;600;undefined;null;true;focus;yes;1225612;Chrome;112.0;macOS;10.15.7;undefined;undefined;1440 x 900;1440 x 900
H028;31;Vrouwelijk;Rechts;5;109;right;no;650;rightarrow;572;true;focus;yes;1226951;Chrome;112.0;macOS;10.15.7;undefined;undefined;1440 x 900;1440 x 900
H028;31;Vrouwelijk;Rechts;5;110;right;no;650;rightarrow;917;true;focus;yes;1228639;Chrome;112.0;macOS;10.15.7;undefined;undefined;1440 x 900;1440 x 900
H028;31;Vrouwelijk;Rechts;5;111;left;yes;650;leftarrow;852;false;focus;yes;1230263;Chrome;112.0;macOS;10.15.7;undefined;undefined;1440 x 900;1440 x 900
H028;31;Vrouwelijk;Rechts;5;112;left;no;600;leftarrow;835;true;focus;yes;1231869;Chrome;112.0;macOS;10.15.7;undefined;undefined;1440 x 900;1440 x 900
H028;31;Vrouwelijk;Rechts;5;113;left;yes;600;undefined;null;true;focus;yes;1233892;Chrome;112.0;macOS;10.15.7;undefined;undefined;1440 x 900;1440 x 900
H028;31;Vrouwelijk;Rechts;5;114;right;no;650;rightarrow;730;true;focus;yes;1235406;Chrome;112.0;macOS;10.15.7;undefined;undefined;1440 x 900;1440 x 900
H028;31;Vrouwelijk;Rechts;5;115;left;no;650;leftarrow;1095;true;focus;yes;1237273;Chrome;112.0;macOS;10.15.7;undefined;undefined;1440 x 900;1440 x 900
H028;31;Vrouwelijk;Rechts;5;116;right;no;650;rightarrow;602;true;focus;yes;1238643;Chrome;112.0;macOS;10.15.7;undefined;undefined;1440 x 900;1440 x 900
H028;31;Vrouwelijk;Rechts;5;117;left;no;650;leftarrow;957;true;focus;yes;1240369;Chrome;112.0;macOS;10.15.7;undefined;undefined;1440 x 900;1440 x 900
H028;31;Vrouwelijk;Rechts;5;118;right;no;650;undefined;null;false;focus;yes;1242407;Chrome;112.0;macOS;10.15.7;undefined;undefined;1440 x 900;1440 x 900
H028;31;Vrouwelijk;Rechts;5;119;right;yes;650;rightarrow;494;false;focus;yes;1243672;Chrome;112.0;macOS;10.15.7;undefined;undefined;1440 x 900;1440 x 900
H028;31;Vrouwelijk;Rechts;5;120;left;no;600;leftarrow;640;true;focus;yes;1245083;Chrome;112.0;macOS;10.15.7;undefined;undefined;1440 x 900;1440 x 900
H028;31;Vrouwelijk;Rechts;5;121;left;no;600;leftarrow;515;true;focus;yes;1246374;Chrome;112.0;macOS;10.15.7;undefined;undefined;1440 x 900;1440 x 900
H028;31;Vrouwelijk;Rechts;5;122;right;no;600;rightarrow;607;true;focus;yes;1247755;Chrome;112.0;macOS;10.15.7;undefined;undefined;1440 x 900;1440 x 900
H028;31;Vrouwelijk;Rechts;5;123;left;yes;600;leftarrow;621;false;focus;yes;1249143;Chrome;112.0;macOS;10.15.7;undefined;undefined;1440 x 900;1440 x 900
H028;31;Vrouwelijk;Rechts;5;124;right;no;550;rightarrow;593;true;focus;yes;1250507;Chrome;112.0;macOS;10.15.7;undefined;undefined;1440 x 900;1440 x 900
H028;31;Vrouwelijk;Rechts;5;125;left;no;550;leftarrow;643;true;focus;yes;1251917;Chrome;112.0;macOS;10.15.7;undefined;undefined;1440 x 900;1440 x 900
H028;31;Vrouwelijk;Rechts;5;126;right;yes;550;rightarrow;544;false;focus;yes;1253232;Chrome;112.0;macOS;10.15.7;undefined;undefined;1440 x 900;1440 x 900
H028;31;Vrouwelijk;Rechts;5;127;left;no;500;leftarrow;764;true;focus;yes;1254766;Chrome;112.0;macOS;10.15.7;undefined;undefined;1440 x 900;1440 x 900
H028;31;Vrouwelijk;Rechts;5;128;right;no;500;rightarrow;534;true;focus;yes;1256073;Chrome;112.0;macOS;10.15.7;undefined;undefined;1440 x 900;1440 x 900
H028;31;Vrouwelijk;Rechts;6;1;left;yes;500;undefined;null;true;focus;yes;1312762;Chrome;112.0;macOS;10.15.7;undefined;undefined;1440 x 900;1440 x 900
H028;31;Vrouwelijk;Rechts;6;2;right;no;550;rightarrow;574;true;focus;yes;1314111;Chrome;112.0;macOS;10.15.7;undefined;undefined;1440 x 900;1440 x 900
H028;31;Vrouwelijk;Rechts;6;3;right;no;550;rightarrow;708;true;focus;yes;1315596;Chrome;112.0;macOS;10.15.7;undefined;undefined;1440 x 900;1440 x 900
H028;31;Vrouwelijk;Rechts;6;4;left;no;550;leftarrow;744;true;focus;yes;1317121;Chrome;112.0;macOS;10.15.7;undefined;undefined;1440 x 900;1440 x 900
H028;31;Vrouwelijk;Rechts;6;5;left;no;550;leftarrow;781;true;focus;yes;1318678;Chrome;112.0;macOS;10.15.7;undefined;undefined;1440 x 900;1440 x 900
H028;31;Vrouwelijk;Rechts;6;6;left;no;550;leftarrow;909;true;focus;yes;1320352;Chrome;112.0;macOS;10.15.7;undefined;undefined;1440 x 900;1440 x 900
H028;31;Vrouwelijk;Rechts;6;7;right;yes;550;undefined;null;true;focus;yes;1322384;Chrome;112.0;macOS;10.15.7;undefined;undefined;1440 x 900;1440 x 900
H028;31;Vrouwelijk;Rechts;6;8;right;no;600;rightarrow;797;true;focus;yes;1323965;Chrome;112.0;macOS;10.15.7;undefined;undefined;1440 x 900;1440 x 900
H028;31;Vrouwelijk;Rechts;6;9;right;no;600;rightarrow;954;true;focus;yes;1325689;Chrome;112.0;macOS;10.15.7;undefined;undefined;1440 x 900;1440 x 900
H028;31;Vrouwelijk;Rechts;6;10;left;yes;600;undefined;null;true;focus;yes;1327724;Chrome;112.0;macOS;10.15.7;undefined;undefined;1440 x 900;1440 x 900
H028;31;Vrouwelijk;Rechts;6;11;left;no;650;leftarrow;765;true;focus;yes;1329262;Chrome;112.0;macOS;10.15.7;undefined;undefined;1440 x 900;1440 x 900
H028;31;Vrouwelijk;Rechts;6;12;left;no;650;leftarrow;829;true;focus;yes;1330859;Chrome;112.0;macOS;10.15.7;undefined;undefined;1440 x 900;1440 x 900
H028;31;Vrouwelijk;Rechts;6;13;right;yes;650;undefined;null;true;focus;yes;1332898;Chrome;112.0;macOS;10.15.7;undefined;undefined;1440 x 900;1440 x 900
H028;31;Vrouwelijk;Rechts;6;14;right;no;700;rightarrow;834;true;focus;yes;1334506;Chrome;112.0;macOS;10.15.7;undefined;undefined;1440 x 900;1440 x 900
