participantID;age;gender;handedness;block_i;trial_i;stim;signal;SSD;response;rt;correct;focus;Fullscreen;time_elapsed;browser_name;browser_version;os_name;os_version;tablet;mobile;screen_resolution;window_resolution
S018;36;Mannelijk;Rechts;0;1;right;no;200;rightarrow;761;true;focus;yes;1367245;Chrome;112.0;Windows;10;undefined;undefined;1536 x 864;1536 x 864
S018;36;Mannelijk;Rechts;0;2;left;no;200;leftarrow;431;true;focus;yes;1369211;Chrome;112.0;Windows;10;undefined;undefined;1536 x 864;1536 x 864
S018;36;Mannelijk;Rechts;0;3;left;no;200;leftarrow;401;true;focus;yes;1371145;Chrome;112.0;Windows;10;undefined;undefined;1536 x 864;1536 x 864
S018;36;Mannelijk;Rechts;0;4;left;no;200;leftarrow;405;true;focus;yes;1373083;Chrome;112.0;Windows;10;undefined;undefined;1536 x 864;1536 x 864
S018;36;Mannelijk;Rechts;0;5;right;no;200;rightarrow;399;true;focus;yes;1375012;Chrome;112.0;Windows;10;undefined;undefined;1536 x 864;1536 x 864
S018;36;Mannelijk;Rechts;0;6;right;yes;200;rightarrow;429;false;focus;yes;1376974;Chrome;112.0;Windows;10;undefined;undefined;1536 x 864;1536 x 864
S018;36;Mannelijk;Rechts;0;7;left;yes;150;leftarrow;545;false;focus;yes;1379059;Chrome;112.0;Windows;10;undefined;undefined;1536 x 864;1536 x 864
S018;36;Mannelijk;Rechts;0;8;right;no;100;rightarrow;299;true;focus;yes;1380895;Chrome;112.0;Windows;10;undefined;undefined;1536 x 864;1536 x 864
S018;36;Mannelijk;Rechts;1;1;right;yes;100;rightarrow;403;false;focus;yes;1456704;Chrome;112.0;Windows;10;undefined;undefined;1536 x 864;1536 x 864
S018;36;Mannelijk;Rechts;1;2;left;yes;50;leftarrow;379;false;focus;yes;1457851;Chrome;112.0;Windows;10;undefined;undefined;1536 x 864;1536 x 864
S018;36;Mannelijk;Rechts;1;3;right;no;50;rightarrow;252;true;focus;yes;1458864;Chrome;112.0;Windows;10;undefined;undefined;1536 x 864;1536 x 864
S018;36;Mannelijk;Rechts;1;4;right;no;50;leftarrow;216;false;focus;yes;1459859;Chrome;112.0;Windows;10;undefined;undefined;1536 x 864;1536 x 864
S018;36;Mannelijk;Rechts;1;5;left;no;50;leftarrow;364;true;focus;yes;1460991;Chrome;112.0;Windows;10;undefined;undefined;1536 x 864;1536 x 864
S018;36;Mannelijk;Rechts;1;6;left;no;50;leftarrow;427;true;focus;yes;1462185;Chrome;112.0;Windows;10;undefined;undefined;1536 x 864;1536 x 864
S018;36;Mannelijk;Rechts;1;7;left;no;50;leftarrow;285;true;focus;yes;1463243;Chrome;112.0;Windows;10;undefined;undefined;1536 x 864;1536 x 864
S018;36;Mannelijk;Rechts;1;8;right;no;50;leftarrow;251;false;focus;yes;1464261;Chrome;112.0;Windows;10;undefined;undefined;1536 x 864;1536 x 864
S018;36;Mannelijk;Rechts;1;9;left;no;50;leftarrow;342;true;focus;yes;1465368;Chrome;112.0;Windows;10;undefined;undefined;1536 x 864;1536 x 864
S018;36;Mannelijk;Rechts;1;10;left;no;50;rightarrow;191;false;focus;yes;1466334;Chrome;112.0;Windows;10;undefined;undefined;1536 x 864;1536 x 864
S018;36;Mannelijk;Rechts;1;11;right;no;50;rightarrow;581;true;focus;yes;1467677;Chrome;112.0;Windows;10;undefined;undefined;1536 x 864;1536 x 864
S018;36;Mannelijk;Rechts;1;12;right;yes;50;rightarrow;1102;false;focus;yes;1469561;Chrome;112.0;Windows;10;undefined;undefined;1536 x 864;1536 x 864
S018;36;Mannelijk;Rechts;1;13;right;no;50;rightarrow;461;true;focus;yes;1470790;Chrome;112.0;Windows;10;undefined;undefined;1536 x 864;1536 x 864
S018;36;Mannelijk;Rechts;1;14;left;yes;50;leftarrow;384;false;focus;yes;1471943;Chrome;112.0;Windows;10;undefined;undefined;1536 x 864;1536 x 864
S018;36;Mannelijk;Rechts;1;15;left;no;50;leftarrow;498;true;focus;yes;1473210;Chrome;112.0;Windows;10;undefined;undefined;1536 x 864;1536 x 864
S018;36;Mannelijk;Rechts;1;16;right;no;50;rightarrow;312;true;focus;yes;1474287;Chrome;112.0;Windows;10;undefined;undefined;1536 x 864;1536 x 864
S018;36;Mannelijk;Rechts;1;17;right;no;50;rightarrow;352;true;focus;yes;1475412;Chrome;112.0;Windows;10;undefined;undefined;1536 x 864;1536 x 864
S018;36;Mannelijk;Rechts;1;18;left;no;50;leftarrow;332;true;focus;yes;1476527;Chrome;112.0;Windows;10;undefined;undefined;1536 x 864;1536 x 864
S018;36;Mannelijk;Rechts;1;19;left;yes;50;leftarrow;550;false;focus;yes;1477844;Chrome;112.0;Windows;10;undefined;undefined;1536 x 864;1536 x 864
S018;36;Mannelijk;Rechts;1;20;right;no;50;rightarrow;368;true;focus;yes;1478978;Chrome;112.0;Windows;10;undefined;undefined;1536 x 864;1536 x 864
S018;36;Mannelijk;Rechts;1;21;right;no;50;rightarrow;416;true;focus;yes;1480174;Chrome;112.0;Windows;10;undefined;undefined;1536 x 864;1536 x 864
S018;36;Mannelijk;Rechts;1;22;left;no;50;leftarrow;315;true;focus;yes;1481258;Chrome;112.0;Windows;10;undefined;undefined;1536 x 864;1536 x 864
S018;36;Mannelijk;Rechts;1;23;right;yes;50;rightarrow;466;false;focus;yes;1482492;Chrome;112.0;Windows;10;undefined;undefined;1536 x 864;1536 x 864
S018;36;Mannelijk;Rechts;1;24;left;no;50;leftarrow;328;true;focus;yes;1483586;Chrome;112.0;Windows;10;undefined;undefined;1536 x 864;1536 x 864
S018;36;Mannelijk;Rechts;1;25;left;no;50;leftarrow;429;true;focus;yes;1484787;Chrome;112.0;Windows;10;undefined;undefined;1536 x 864;1536 x 864
S018;36;Mannelijk;Rechts;1;26;right;no;50;rightarrow;296;true;focus;yes;1485855;Chrome;112.0;Windows;10;undefined;undefined;1536 x 864;1536 x 864
S018;36;Mannelijk;Rechts;1;27;right;no;50;rightarrow;372;true;focus;yes;1486984;Chrome;112.0;Windows;10;undefined;undefined;1536 x 864;1536 x 864
S018;36;Mannelijk;Rechts;1;28;left;yes;50;leftarrow;511;false;focus;yes;1488272;Chrome;112.0;Windows;10;undefined;undefined;1536 x 864;1536 x 864
S018;36;Mannelijk;Rechts;1;29;left;no;50;leftarrow;476;true;focus;yes;1489520;Chrome;112.0;Windows;10;undefined;undefined;1536 x 864;1536 x 864
S018;36;Mannelijk;Rechts;1;30;right;no;50;rightarrow;418;true;focus;yes;1490711;Chrome;112.0;Windows;10;undefined;undefined;1536 x 864;1536 x 864
S018;36;Mannelijk;Rechts;1;31;right;yes;50;rightarrow;482;false;focus;yes;1491961;Chrome;112.0;Windows;10;undefined;undefined;1536 x 864;1536 x 864
S018;36;Mannelijk;Rechts;1;32;left;no;50;leftarrow;275;true;focus;yes;1493003;Chrome;112.0;Windows;10;undefined;undefined;1536 x 864;1536 x 864
S018;36;Mannelijk;Rechts;1;33;right;yes;50;rightarrow;296;false;focus;yes;1494075;Chrome;112.0;Windows;10;undefined;undefined;1536 x 864;1536 x 864
S018;36;Mannelijk;Rechts;1;34;left;no;50;leftarrow;283;true;focus;yes;1495127;Chrome;112.0;Windows;10;undefined;undefined;1536 x 864;1536 x 864
S018;36;Mannelijk;Rechts;1;35;right;no;50;rightarrow;391;true;focus;yes;1496287;Chrome;112.0;Windows;10;undefined;undefined;1536 x 864;1536 x 864
S018;36;Mannelijk;Rechts;1;36;left;no;50;leftarrow;333;true;focus;yes;1497379;Chrome;112.0;Windows;10;undefined;undefined;1536 x 864;1536 x 864
S018;36;Mannelijk;Rechts;1;37;left;yes;50;leftarrow;386;false;focus;yes;1498546;Chrome;112.0;Windows;10;undefined;undefined;1536 x 864;1536 x 864
S018;36;Mannelijk;Rechts;1;38;right;no;50;rightarrow;272;true;focus;yes;1499598;Chrome;112.0;Windows;10;undefined;undefined;1536 x 864;1536 x 864
S018;36;Mannelijk;Rechts;1;39;left;no;50;leftarrow;424;true;focus;yes;1500803;Chrome;112.0;Windows;10;undefined;undefined;1536 x 864;1536 x 864
S018;36;Mannelijk;Rechts;1;40;right;no;50;rightarrow;775;true;focus;yes;1502352;Chrome;112.0;Windows;10;undefined;undefined;1536 x 864;1536 x 864
S018;36;Mannelijk;Rechts;1;41;right;no;50;rightarrow;387;true;focus;yes;1503514;Chrome;112.0;Windows;10;undefined;undefined;1536 x 864;1536 x 864
S018;36;Mannelijk;Rechts;1;42;right;no;50;rightarrow;436;true;focus;yes;1504728;Chrome;112.0;Windows;10;undefined;undefined;1536 x 864;1536 x 864
S018;36;Mannelijk;Rechts;1;43;right;yes;50;rightarrow;238;false;focus;yes;1505733;Chrome;112.0;Windows;10;undefined;undefined;1536 x 864;1536 x 864
S018;36;Mannelijk;Rechts;1;44;left;no;50;leftarrow;285;true;focus;yes;1506796;Chrome;112.0;Windows;10;undefined;undefined;1536 x 864;1536 x 864
S018;36;Mannelijk;Rechts;1;45;right;no;50;rightarrow;343;true;focus;yes;1507919;Chrome;112.0;Windows;10;undefined;undefined;1536 x 864;1536 x 864
S018;36;Mannelijk;Rechts;1;46;left;no;50;leftarrow;268;true;focus;yes;1508961;Chrome;112.0;Windows;10;undefined;undefined;1536 x 864;1536 x 864
S018;36;Mannelijk;Rechts;1;47;left;yes;50;rightarrow;234;false;focus;yes;1509959;Chrome;112.0;Windows;10;undefined;undefined;1536 x 864;1536 x 864
S018;36;Mannelijk;Rechts;1;48;left;no;50;leftarrow;416;true;focus;yes;1511143;Chrome;112.0;Windows;10;undefined;undefined;1536 x 864;1536 x 864
S018;36;Mannelijk;Rechts;1;49;right;no;50;rightarrow;367;true;focus;yes;1512277;Chrome;112.0;Windows;10;undefined;undefined;1536 x 864;1536 x 864
S018;36;Mannelijk;Rechts;1;50;left;no;50;leftarrow;369;true;focus;yes;1513412;Chrome;112.0;Windows;10;undefined;undefined;1536 x 864;1536 x 864
S018;36;Mannelijk;Rechts;1;51;left;no;50;leftarrow;373;true;focus;yes;1514568;Chrome;112.0;Windows;10;undefined;undefined;1536 x 864;1536 x 864
S018;36;Mannelijk;Rechts;1;52;left;no;50;leftarrow;293;true;focus;yes;1515635;Chrome;112.0;Windows;10;undefined;undefined;1536 x 864;1536 x 864
S018;36;Mannelijk;Rechts;1;53;right;yes;50;rightarrow;391;false;focus;yes;1516800;Chrome;112.0;Windows;10;undefined;undefined;1536 x 864;1536 x 864
S018;36;Mannelijk;Rechts;1;54;right;no;50;rightarrow;374;true;focus;yes;1517934;Chrome;112.0;Windows;10;undefined;undefined;1536 x 864;1536 x 864
S018;36;Mannelijk;Rechts;1;55;left;yes;50;leftarrow;364;false;focus;yes;1519061;Chrome;112.0;Windows;10;undefined;undefined;1536 x 864;1536 x 864
S018;36;Mannelijk;Rechts;1;56;right;no;50;rightarrow;359;true;focus;yes;1520186;Chrome;112.0;Windows;10;undefined;undefined;1536 x 864;1536 x 864
S018;36;Mannelijk;Rechts;1;57;left;no;50;leftarrow;238;true;focus;yes;1521185;Chrome;112.0;Windows;10;undefined;undefined;1536 x 864;1536 x 864
S018;36;Mannelijk;Rechts;1;58;right;no;50;rightarrow;226;true;focus;yes;1522185;Chrome;112.0;Windows;10;undefined;undefined;1536 x 864;1536 x 864
S018;36;Mannelijk;Rechts;1;59;left;no;50;leftarrow;249;true;focus;yes;1523209;Chrome;112.0;Windows;10;undefined;undefined;1536 x 864;1536 x 864
S018;36;Mannelijk;Rechts;1;60;left;no;50;leftarrow;408;true;focus;yes;1524385;Chrome;112.0;Windows;10;undefined;undefined;1536 x 864;1536 x 864
S018;36;Mannelijk;Rechts;1;61;right;yes;50;rightarrow;388;false;focus;yes;1525550;Chrome;112.0;Windows;10;undefined;undefined;1536 x 864;1536 x 864
S018;36;Mannelijk;Rechts;1;62;right;no;50;rightarrow;382;true;focus;yes;1526709;Chrome;112.0;Windows;10;undefined;undefined;1536 x 864;1536 x 864
S018;36;Mannelijk;Rechts;1;63;left;yes;50;leftarrow;285;false;focus;yes;1527760;Chrome;112.0;Windows;10;undefined;undefined;1536 x 864;1536 x 864
S018;36;Mannelijk;Rechts;1;64;right;no;50;rightarrow;365;true;focus;yes;1528892;Chrome;112.0;Windows;10;undefined;undefined;1536 x 864;1536 x 864
S018;36;Mannelijk;Rechts;1;65;left;no;50;leftarrow;309;true;focus;yes;1529968;Chrome;112.0;Windows;10;undefined;undefined;1536 x 864;1536 x 864
S018;36;Mannelijk;Rechts;1;66;right;no;50;rightarrow;222;true;focus;yes;1530965;Chrome;112.0;Windows;10;undefined;undefined;1536 x 864;1536 x 864
S018;36;Mannelijk;Rechts;1;67;left;yes;50;leftarrow;289;false;focus;yes;1532031;Chrome;112.0;Windows;10;undefined;undefined;1536 x 864;1536 x 864
S018;36;Mannelijk;Rechts;1;68;right;no;50;rightarrow;314;true;focus;yes;1533124;Chrome;112.0;Windows;10;undefined;undefined;1536 x 864;1536 x 864
S018;36;Mannelijk;Rechts;1;69;left;no;50;leftarrow;401;true;focus;yes;1534294;Chrome;112.0;Windows;10;undefined;undefined;1536 x 864;1536 x 864
S018;36;Mannelijk;Rechts;1;70;left;no;50;leftarrow;385;true;focus;yes;1535448;Chrome;112.0;Windows;10;undefined;undefined;1536 x 864;1536 x 864
S018;36;Mannelijk;Rechts;1;71;right;yes;50;rightarrow;467;false;focus;yes;1536691;Chrome;112.0;Windows;10;undefined;undefined;1536 x 864;1536 x 864
S018;36;Mannelijk;Rechts;1;72;right;no;50;rightarrow;422;true;focus;yes;1537882;Chrome;112.0;Windows;10;undefined;undefined;1536 x 864;1536 x 864
S018;36;Mannelijk;Rechts;1;73;right;no;50;rightarrow;527;true;focus;yes;1539187;Chrome;112.0;Windows;10;undefined;undefined;1536 x 864;1536 x 864
S018;36;Mannelijk;Rechts;1;74;right;yes;50;rightarrow;412;false;focus;yes;1540376;Chrome;112.0;Windows;10;undefined;undefined;1536 x 864;1536 x 864
S018;36;Mannelijk;Rechts;1;75;right;no;50;rightarrow;358;true;focus;yes;1541486;Chrome;112.0;Windows;10;undefined;undefined;1536 x 864;1536 x 864
S018;36;Mannelijk;Rechts;1;76;left;no;50;rightarrow;171;false;focus;yes;1542432;Chrome;112.0;Windows;10;undefined;undefined;1536 x 864;1536 x 864
S018;36;Mannelijk;Rechts;1;77;left;no;50;leftarrow;508;true;focus;yes;1543718;Chrome;112.0;Windows;10;undefined;undefined;1536 x 864;1536 x 864
S018;36;Mannelijk;Rechts;1;78;left;yes;50;leftarrow;524;false;focus;yes;1545002;Chrome;112.0;Windows;10;undefined;undefined;1536 x 864;1536 x 864
S018;36;Mannelijk;Rechts;1;79;right;no;50;rightarrow;331;true;focus;yes;1546107;Chrome;112.0;Windows;10;undefined;undefined;1536 x 864;1536 x 864
S018;36;Mannelijk;Rechts;1;80;left;no;50;leftarrow;351;true;focus;yes;1547227;Chrome;112.0;Windows;10;undefined;undefined;1536 x 864;1536 x 864
S018;36;Mannelijk;Rechts;1;81;right;no;50;rightarrow;434;true;focus;yes;1548441;Chrome;112.0;Windows;10;undefined;undefined;1536 x 864;1536 x 864
S018;36;Mannelijk;Rechts;1;82;left;no;50;leftarrow;335;true;focus;yes;1549546;Chrome;112.0;Windows;10;undefined;undefined;1536 x 864;1536 x 864
S018;36;Mannelijk;Rechts;1;83;left;no;50;leftarrow;361;true;focus;yes;1550670;Chrome;112.0;Windows;10;undefined;undefined;1536 x 864;1536 x 864
S018;36;Mannelijk;Rechts;1;84;left;no;50;leftarrow;309;true;focus;yes;1551751;Chrome;112.0;Windows;10;undefined;undefined;1536 x 864;1536 x 864
S018;36;Mannelijk;Rechts;1;85;right;no;50;rightarrow;409;true;focus;yes;1552921;Chrome;112.0;Windows;10;undefined;undefined;1536 x 864;1536 x 864
S018;36;Mannelijk;Rechts;1;86;left;yes;50;leftarrow;319;false;focus;yes;1554012;Chrome;112.0;Windows;10;undefined;undefined;1536 x 864;1536 x 864
S018;36;Mannelijk;Rechts;1;87;right;yes;50;rightarrow;500;false;focus;yes;1555292;Chrome;112.0;Windows;10;undefined;undefined;1536 x 864;1536 x 864
S018;36;Mannelijk;Rechts;1;88;right;no;50;rightarrow;509;true;focus;yes;1556569;Chrome;112.0;Windows;10;undefined;undefined;1536 x 864;1536 x 864
S018;36;Mannelijk;Rechts;1;89;left;no;50;leftarrow;345;true;focus;yes;1557675;Chrome;112.0;Windows;10;undefined;undefined;1536 x 864;1536 x 864
S018;36;Mannelijk;Rechts;1;90;right;yes;50;rightarrow;369;false;focus;yes;1558810;Chrome;112.0;Windows;10;undefined;undefined;1536 x 864;1536 x 864
S018;36;Mannelijk;Rechts;1;91;left;no;50;leftarrow;278;true;focus;yes;1559855;Chrome;112.0;Windows;10;undefined;undefined;1536 x 864;1536 x 864
S018;36;Mannelijk;Rechts;1;92;right;no;50;rightarrow;331;true;focus;yes;1560958;Chrome;112.0;Windows;10;undefined;undefined;1536 x 864;1536 x 864
S018;36;Mannelijk;Rechts;1;93;right;no;50;rightarrow;431;true;focus;yes;1562159;Chrome;112.0;Windows;10;undefined;undefined;1536 x 864;1536 x 864
S018;36;Mannelijk;Rechts;1;94;right;no;50;rightarrow;462;true;focus;yes;1563392;Chrome;112.0;Windows;10;undefined;undefined;1536 x 864;1536 x 864
S018;36;Mannelijk;Rechts;1;95;left;no;50;leftarrow;275;true;focus;yes;1564436;Chrome;112.0;Windows;10;undefined;undefined;1536 x 864;1536 x 864
S018;36;Mannelijk;Rechts;1;96;left;yes;50;leftarrow;388;false;focus;yes;1565586;Chrome;112.0;Windows;10;undefined;undefined;1536 x 864;1536 x 864
S018;36;Mannelijk;Rechts;1;97;left;yes;50;leftarrow;370;false;focus;yes;1566727;Chrome;112.0;Windows;10;undefined;undefined;1536 x 864;1536 x 864
S018;36;Mannelijk;Rechts;1;98;right;no;50;rightarrow;315;true;focus;yes;1567808;Chrome;112.0;Windows;10;undefined;undefined;1536 x 864;1536 x 864
S018;36;Mannelijk;Rechts;1;99;left;no;50;leftarrow;332;true;focus;yes;1568909;Chrome;112.0;Windows;10;undefined;undefined;1536 x 864;1536 x 864
S018;36;Mannelijk;Rechts;1;100;right;no;50;rightarrow;365;true;focus;yes;1570042;Chrome;112.0;Windows;10;undefined;undefined;1536 x 864;1536 x 864
S018;36;Mannelijk;Rechts;1;101;left;no;50;leftarrow;298;true;focus;yes;1571108;Chrome;112.0;Windows;10;undefined;undefined;1536 x 864;1536 x 864
S018;36;Mannelijk;Rechts;1;102;right;no;50;rightarrow;242;true;focus;yes;1572118;Chrome;112.0;Windows;10;undefined;undefined;1536 x 864;1536 x 864
S018;36;Mannelijk;Rechts;1;103;left;no;50;leftarrow;291;true;focus;yes;1573182;Chrome;112.0;Windows;10;undefined;undefined;1536 x 864;1536 x 864
S018;36;Mannelijk;Rechts;1;104;right;yes;50;rightarrow;330;false;focus;yes;1574275;Chrome;112.0;Windows;10;undefined;undefined;1536 x 864;1536 x 864
S018;36;Mannelijk;Rechts;1;105;right;no;50;leftarrow;238;false;focus;yes;1575297;Chrome;112.0;Windows;10;undefined;undefined;1536 x 864;1536 x 864
S018;36;Mannelijk;Rechts;1;106;left;no;50;leftarrow;330;true;focus;yes;1576392;Chrome;112.0;Windows;10;undefined;undefined;1536 x 864;1536 x 864
S018;36;Mannelijk;Rechts;1;107;right;no;50;rightarrow;338;true;focus;yes;1577498;Chrome;112.0;Windows;10;undefined;undefined;1536 x 864;1536 x 864
S018;36;Mannelijk;Rechts;1;108;right;yes;50;rightarrow;403;false;focus;yes;1578662;Chrome;112.0;Windows;10;undefined;undefined;1536 x 864;1536 x 864
S018;36;Mannelijk;Rechts;1;109;left;no;50;leftarrow;359;true;focus;yes;1579803;Chrome;112.0;Windows;10;undefined;undefined;1536 x 864;1536 x 864
S018;36;Mannelijk;Rechts;1;110;right;no;50;rightarrow;388;true;focus;yes;1580962;Chrome;112.0;Windows;10;undefined;undefined;1536 x 864;1536 x 864
S018;36;Mannelijk;Rechts;1;111;left;no;50;leftarrow;367;true;focus;yes;1582109;Chrome;112.0;Windows;10;undefined;undefined;1536 x 864;1536 x 864
S018;36;Mannelijk;Rechts;1;112;left;yes;50;leftarrow;392;false;focus;yes;1583268;Chrome;112.0;Windows;10;undefined;undefined;1536 x 864;1536 x 864
S018;36;Mannelijk;Rechts;1;113;left;no;50;leftarrow;340;true;focus;yes;1584382;Chrome;112.0;Windows;10;undefined;undefined;1536 x 864;1536 x 864
S018;36;Mannelijk;Rechts;1;114;right;no;50;rightarrow;352;true;focus;yes;1585495;Chrome;112.0;Windows;10;undefined;undefined;1536 x 864;1536 x 864
S018;36;Mannelijk;Rechts;1;115;left;no;50;leftarrow;481;true;focus;yes;1586758;Chrome;112.0;Windows;10;undefined;undefined;1536 x 864;1536 x 864
S018;36;Mannelijk;Rechts;1;116;right;yes;50;rightarrow;384;false;focus;yes;1587910;Chrome;112.0;Windows;10;undefined;undefined;1536 x 864;1536 x 864
S018;36;Mannelijk;Rechts;1;117;left;no;50;leftarrow;349;true;focus;yes;1589027;Chrome;112.0;Windows;10;undefined;undefined;1536 x 864;1536 x 864
S018;36;Mannelijk;Rechts;1;118;right;no;50;rightarrow;383;true;focus;yes;1590176;Chrome;112.0;Windows;10;undefined;undefined;1536 x 864;1536 x 864
S018;36;Mannelijk;Rechts;1;119;left;yes;50;leftarrow;824;false;focus;yes;1591765;Chrome;112.0;Windows;10;undefined;undefined;1536 x 864;1536 x 864
S018;36;Mannelijk;Rechts;1;120;right;no;50;rightarrow;775;true;focus;yes;1593317;Chrome;112.0;Windows;10;undefined;undefined;1536 x 864;1536 x 864
S018;36;Mannelijk;Rechts;1;121;right;yes;50;rightarrow;370;false;focus;yes;1594446;Chrome;112.0;Windows;10;undefined;undefined;1536 x 864;1536 x 864
S018;36;Mannelijk;Rechts;1;122;left;yes;50;leftarrow;487;false;focus;yes;1595712;Chrome;112.0;Windows;10;undefined;undefined;1536 x 864;1536 x 864
S018;36;Mannelijk;Rechts;1;123;left;no;50;leftarrow;476;true;focus;yes;1596967;Chrome;112.0;Windows;10;undefined;undefined;1536 x 864;1536 x 864
S018;36;Mannelijk;Rechts;1;124;left;no;50;leftarrow;423;true;focus;yes;1598164;Chrome;112.0;Windows;10;undefined;undefined;1536 x 864;1536 x 864
S018;36;Mannelijk;Rechts;1;125;right;no;50;rightarrow;442;true;focus;yes;1599370;Chrome;112.0;Windows;10;undefined;undefined;1536 x 864;1536 x 864
S018;36;Mannelijk;Rechts;1;126;right;no;50;rightarrow;307;true;focus;yes;1600435;Chrome;112.0;Windows;10;undefined;undefined;1536 x 864;1536 x 864
S018;36;Mannelijk;Rechts;1;127;left;no;50;leftarrow;332;true;focus;yes;1601540;Chrome;112.0;Windows;10;undefined;undefined;1536 x 864;1536 x 864
S018;36;Mannelijk;Rechts;1;128;right;no;50;rightarrow;297;true;focus;yes;1602604;Chrome;112.0;Windows;10;undefined;undefined;1536 x 864;1536 x 864
S018;36;Mannelijk;Rechts;2;1;left;no;50;leftarrow;373;true;focus;yes;1622659;Chrome;112.0;Windows;10;undefined;undefined;1536 x 864;1536 x 864
S018;36;Mannelijk;Rechts;2;2;left;no;50;leftarrow;288;true;focus;yes;1623726;Chrome;112.0;Windows;10;undefined;undefined;1536 x 864;1536 x 864
S018;36;Mannelijk;Rechts;2;3;right;no;50;rightarrow;374;true;focus;yes;1624867;Chrome;112.0;Windows;10;undefined;undefined;1536 x 864;1536 x 864
S018;36;Mannelijk;Rechts;2;4;right;no;50;rightarrow;428;true;focus;yes;1626068;Chrome;112.0;Windows;10;undefined;undefined;1536 x 864;1536 x 864
S018;36;Mannelijk;Rechts;2;5;left;yes;50;leftarrow;435;false;focus;yes;1627274;Chrome;112.0;Windows;10;undefined;undefined;1536 x 864;1536 x 864
S018;36;Mannelijk;Rechts;2;6;right;yes;50;rightarrow;355;false;focus;yes;1628397;Chrome;112.0;Windows;10;undefined;undefined;1536 x 864;1536 x 864
S018;36;Mannelijk;Rechts;2;7;left;no;50;leftarrow;249;true;focus;yes;1629407;Chrome;112.0;Windows;10;undefined;undefined;1536 x 864;1536 x 864
S018;36;Mannelijk;Rechts;2;8;right;no;50;rightarrow;461;true;focus;yes;1630621;Chrome;112.0;Windows;10;undefined;undefined;1536 x 864;1536 x 864
S018;36;Mannelijk;Rechts;2;9;right;yes;50;rightarrow;432;false;focus;yes;1631809;Chrome;112.0;Windows;10;undefined;undefined;1536 x 864;1536 x 864
S018;36;Mannelijk;Rechts;2;10;left;yes;50;leftarrow;282;false;focus;yes;1632873;Chrome;112.0;Windows;10;undefined;undefined;1536 x 864;1536 x 864
S018;36;Mannelijk;Rechts;2;11;left;no;50;leftarrow;471;true;focus;yes;1634114;Chrome;112.0;Windows;10;undefined;undefined;1536 x 864;1536 x 864
S018;36;Mannelijk;Rechts;2;12;right;no;50;rightarrow;323;true;focus;yes;1635216;Chrome;112.0;Windows;10;undefined;undefined;1536 x 864;1536 x 864
S018;36;Mannelijk;Rechts;2;13;right;no;50;rightarrow;434;true;focus;yes;1636411;Chrome;112.0;Windows;10;undefined;undefined;1536 x 864;1536 x 864
S018;36;Mannelijk;Rechts;2;14;right;no;50;rightarrow;339;true;focus;yes;1637530;Chrome;112.0;Windows;10;undefined;undefined;1536 x 864;1536 x 864
S018;36;Mannelijk;Rechts;2;15;left;no;50;leftarrow;357;true;focus;yes;1638665;Chrome;112.0;Windows;10;undefined;undefined;1536 x 864;1536 x 864
S018;36;Mannelijk;Rechts;2;16;left;no;50;leftarrow;499;true;focus;yes;1639940;Chrome;112.0;Windows;10;undefined;undefined;1536 x 864;1536 x 864
S018;36;Mannelijk;Rechts;2;17;left;no;50;leftarrow;296;true;focus;yes;1641004;Chrome;112.0;Windows;10;undefined;undefined;1536 x 864;1536 x 864
S018;36;Mannelijk;Rechts;2;18;left;no;50;leftarrow;321;true;focus;yes;1642097;Chrome;112.0;Windows;10;undefined;undefined;1536 x 864;1536 x 864
S018;36;Mannelijk;Rechts;2;19;right;no;50;rightarrow;615;true;focus;yes;1643489;Chrome;112.0;Windows;10;undefined;undefined;1536 x 864;1536 x 864
S018;36;Mannelijk;Rechts;2;20;left;no;50;leftarrow;694;true;focus;yes;1644951;Chrome;112.0;Windows;10;undefined;undefined;1536 x 864;1536 x 864
S018;36;Mannelijk;Rechts;2;21;right;no;50;rightarrow;616;true;focus;yes;1646340;Chrome;112.0;Windows;10;undefined;undefined;1536 x 864;1536 x 864
S018;36;Mannelijk;Rechts;2;22;left;yes;50;leftarrow;315;false;focus;yes;1647423;Chrome;112.0;Windows;10;undefined;undefined;1536 x 864;1536 x 864
S018;36;Mannelijk;Rechts;2;23;right;no;50;rightarrow;322;true;focus;yes;1648513;Chrome;112.0;Windows;10;undefined;undefined;1536 x 864;1536 x 864
S018;36;Mannelijk;Rechts;2;24;right;yes;50;rightarrow;366;false;focus;yes;1649657;Chrome;112.0;Windows;10;undefined;undefined;1536 x 864;1536 x 864
S018;36;Mannelijk;Rechts;2;25;right;no;50;rightarrow;345;true;focus;yes;1650768;Chrome;112.0;Windows;10;undefined;undefined;1536 x 864;1536 x 864
S018;36;Mannelijk;Rechts;2;26;left;no;50;leftarrow;376;true;focus;yes;1651916;Chrome;112.0;Windows;10;undefined;undefined;1536 x 864;1536 x 864
S018;36;Mannelijk;Rechts;2;27;left;yes;50;leftarrow;498;false;focus;yes;1653173;Chrome;112.0;Windows;10;undefined;undefined;1536 x 864;1536 x 864
S018;36;Mannelijk;Rechts;2;28;left;no;50;leftarrow;369;true;focus;yes;1654309;Chrome;112.0;Windows;10;undefined;undefined;1536 x 864;1536 x 864
S018;36;Mannelijk;Rechts;2;29;left;no;50;leftarrow;340;true;focus;yes;1655417;Chrome;112.0;Windows;10;undefined;undefined;1536 x 864;1536 x 864
S018;36;Mannelijk;Rechts;2;30;right;yes;50;rightarrow;427;false;focus;yes;1656602;Chrome;112.0;Windows;10;undefined;undefined;1536 x 864;1536 x 864
S018;36;Mannelijk;Rechts;2;31;right;no;50;rightarrow;380;true;focus;yes;1657756;Chrome;112.0;Windows;10;undefined;undefined;1536 x 864;1536 x 864
S018;36;Mannelijk;Rechts;2;32;right;no;50;rightarrow;398;true;focus;yes;1658923;Chrome;112.0;Windows;10;undefined;undefined;1536 x 864;1536 x 864
S018;36;Mannelijk;Rechts;2;33;right;no;50;rightarrow;311;true;focus;yes;1660001;Chrome;112.0;Windows;10;undefined;undefined;1536 x 864;1536 x 864
S018;36;Mannelijk;Rechts;2;34;left;no;50;leftarrow;362;true;focus;yes;1661134;Chrome;112.0;Windows;10;undefined;undefined;1536 x 864;1536 x 864
S018;36;Mannelijk;Rechts;2;35;left;yes;50;leftarrow;308;false;focus;yes;1662202;Chrome;112.0;Windows;10;undefined;undefined;1536 x 864;1536 x 864
S018;36;Mannelijk;Rechts;2;36;left;no;50;leftarrow;314;true;focus;yes;1663273;Chrome;112.0;Windows;10;undefined;undefined;1536 x 864;1536 x 864
S018;36;Mannelijk;Rechts;2;37;right;yes;50;rightarrow;415;false;focus;yes;1664456;Chrome;112.0;Windows;10;undefined;undefined;1536 x 864;1536 x 864
S018;36;Mannelijk;Rechts;2;38;left;no;50;leftarrow;429;true;focus;yes;1665639;Chrome;112.0;Windows;10;undefined;undefined;1536 x 864;1536 x 864
S018;36;Mannelijk;Rechts;2;39;right;no;50;rightarrow;366;true;focus;yes;1666772;Chrome;112.0;Windows;10;undefined;undefined;1536 x 864;1536 x 864
S018;36;Mannelijk;Rechts;2;40;right;no;50;rightarrow;364;true;focus;yes;1667896;Chrome;112.0;Windows;10;undefined;undefined;1536 x 864;1536 x 864
S018;36;Mannelijk;Rechts;2;41;left;no;50;leftarrow;417;true;focus;yes;1669080;Chrome;112.0;Windows;10;undefined;undefined;1536 x 864;1536 x 864
S018;36;Mannelijk;Rechts;2;42;right;yes;50;rightarrow;352;false;focus;yes;1670196;Chrome;112.0;Windows;10;undefined;undefined;1536 x 864;1536 x 864
S018;36;Mannelijk;Rechts;2;43;right;no;50;rightarrow;321;true;focus;yes;1671300;Chrome;112.0;Windows;10;undefined;undefined;1536 x 864;1536 x 864
S018;36;Mannelijk;Rechts;2;44;left;yes;50;leftarrow;455;false;focus;yes;1672520;Chrome;112.0;Windows;10;undefined;undefined;1536 x 864;1536 x 864
S018;36;Mannelijk;Rechts;2;45;left;no;50;leftarrow;320;true;focus;yes;1673601;Chrome;112.0;Windows;10;undefined;undefined;1536 x 864;1536 x 864
S018;36;Mannelijk;Rechts;2;46;left;no;50;leftarrow;359;true;focus;yes;1674724;Chrome;112.0;Windows;10;undefined;undefined;1536 x 864;1536 x 864
S018;36;Mannelijk;Rechts;2;47;right;no;50;rightarrow;710;true;focus;yes;1676206;Chrome;112.0;Windows;10;undefined;undefined;1536 x 864;1536 x 864
S018;36;Mannelijk;Rechts;2;48;right;no;50;rightarrow;392;true;focus;yes;1677371;Chrome;112.0;Windows;10;undefined;undefined;1536 x 864;1536 x 864
S018;36;Mannelijk;Rechts;2;49;right;no;50;rightarrow;309;true;focus;yes;1678440;Chrome;112.0;Windows;10;undefined;undefined;1536 x 864;1536 x 864
S018;36;Mannelijk;Rechts;2;50;left;no;50;leftarrow;635;true;focus;yes;1679846;Chrome;112.0;Windows;10;undefined;undefined;1536 x 864;1536 x 864
S018;36;Mannelijk;Rechts;2;51;left;yes;50;leftarrow;349;false;focus;yes;1680977;Chrome;112.0;Windows;10;undefined;undefined;1536 x 864;1536 x 864
S018;36;Mannelijk;Rechts;2;52;left;no;50;leftarrow;367;true;focus;yes;1682113;Chrome;112.0;Windows;10;undefined;undefined;1536 x 864;1536 x 864
S018;36;Mannelijk;Rechts;2;53;right;no;50;rightarrow;357;true;focus;yes;1683252;Chrome;112.0;Windows;10;undefined;undefined;1536 x 864;1536 x 864
S018;36;Mannelijk;Rechts;2;54;right;yes;50;rightarrow;275;false;focus;yes;1684302;Chrome;112.0;Windows;10;undefined;undefined;1536 x 864;1536 x 864
S018;36;Mannelijk;Rechts;2;55;right;no;50;rightarrow;337;true;focus;yes;1685414;Chrome;112.0;Windows;10;undefined;undefined;1536 x 864;1536 x 864
S018;36;Mannelijk;Rechts;2;56;left;no;50;leftarrow;318;true;focus;yes;1686513;Chrome;112.0;Windows;10;undefined;undefined;1536 x 864;1536 x 864
S018;36;Mannelijk;Rechts;2;57;right;no;50;rightarrow;380;true;focus;yes;1687662;Chrome;112.0;Windows;10;undefined;undefined;1536 x 864;1536 x 864
S018;36;Mannelijk;Rechts;2;58;left;yes;50;leftarrow;432;false;focus;yes;1688861;Chrome;112.0;Windows;10;undefined;undefined;1536 x 864;1536 x 864
S018;36;Mannelijk;Rechts;2;59;right;no;50;rightarrow;668;true;focus;yes;1690297;Chrome;112.0;Windows;10;undefined;undefined;1536 x 864;1536 x 864
S018;36;Mannelijk;Rechts;2;60;left;no;50;leftarrow;282;true;focus;yes;1691343;Chrome;112.0;Windows;10;undefined;undefined;1536 x 864;1536 x 864
S018;36;Mannelijk;Rechts;2;61;right;yes;50;rightarrow;365;false;focus;yes;1692476;Chrome;112.0;Windows;10;undefined;undefined;1536 x 864;1536 x 864
S018;36;Mannelijk;Rechts;2;62;right;no;50;rightarrow;326;true;focus;yes;1693571;Chrome;112.0;Windows;10;undefined;undefined;1536 x 864;1536 x 864
S018;36;Mannelijk;Rechts;2;63;left;no;50;leftarrow;515;true;focus;yes;1694860;Chrome;112.0;Windows;10;undefined;undefined;1536 x 864;1536 x 864
S018;36;Mannelijk;Rechts;2;64;left;no;50;leftarrow;903;true;focus;yes;1696529;Chrome;112.0;Windows;10;undefined;undefined;1536 x 864;1536 x 864
S018;36;Mannelijk;Rechts;2;65;left;no;50;leftarrow;310;true;focus;yes;1697605;Chrome;112.0;Windows;10;undefined;undefined;1536 x 864;1536 x 864
S018;36;Mannelijk;Rechts;2;66;right;no;50;rightarrow;370;true;focus;yes;1698734;Chrome;112.0;Windows;10;undefined;undefined;1536 x 864;1536 x 864
S018;36;Mannelijk;Rechts;2;67;right;no;50;rightarrow;342;true;focus;yes;1699855;Chrome;112.0;Windows;10;undefined;undefined;1536 x 864;1536 x 864
S018;36;Mannelijk;Rechts;2;68;left;yes;50;leftarrow;366;false;focus;yes;1700997;Chrome;112.0;Windows;10;undefined;undefined;1536 x 864;1536 x 864
S018;36;Mannelijk;Rechts;2;69;left;no;50;leftarrow;319;true;focus;yes;1702097;Chrome;112.0;Windows;10;undefined;undefined;1536 x 864;1536 x 864
S018;36;Mannelijk;Rechts;2;70;left;no;50;leftarrow;354;true;focus;yes;1703231;Chrome;112.0;Windows;10;undefined;undefined;1536 x 864;1536 x 864
S018;36;Mannelijk;Rechts;2;71;right;no;50;rightarrow;405;true;focus;yes;1704416;Chrome;112.0;Windows;10;undefined;undefined;1536 x 864;1536 x 864
S018;36;Mannelijk;Rechts;2;72;right;yes;50;rightarrow;663;false;focus;yes;1705859;Chrome;112.0;Windows;10;undefined;undefined;1536 x 864;1536 x 864
S018;36;Mannelijk;Rechts;2;73;right;no;50;rightarrow;433;true;focus;yes;1707061;Chrome;112.0;Windows;10;undefined;undefined;1536 x 864;1536 x 864
S018;36;Mannelijk;Rechts;2;74;right;no;50;rightarrow;450;true;focus;yes;1708294;Chrome;112.0;Windows;10;undefined;undefined;1536 x 864;1536 x 864
S018;36;Mannelijk;Rechts;2;75;right;no;50;rightarrow;538;true;focus;yes;1709600;Chrome;112.0;Windows;10;undefined;undefined;1536 x 864;1536 x 864
S018;36;Mannelijk;Rechts;2;76;left;no;50;leftarrow;350;true;focus;yes;1710714;Chrome;112.0;Windows;10;undefined;undefined;1536 x 864;1536 x 864
S018;36;Mannelijk;Rechts;2;77;left;yes;50;leftarrow;275;false;focus;yes;1711770;Chrome;112.0;Windows;10;undefined;undefined;1536 x 864;1536 x 864
S018;36;Mannelijk;Rechts;2;78;right;yes;50;rightarrow;692;false;focus;yes;1713221;Chrome;112.0;Windows;10;undefined;undefined;1536 x 864;1536 x 864
S018;36;Mannelijk;Rechts;2;79;left;no;50;leftarrow;283;true;focus;yes;1714277;Chrome;112.0;Windows;10;undefined;undefined;1536 x 864;1536 x 864
S018;36;Mannelijk;Rechts;2;80;left;no;50;leftarrow;278;true;focus;yes;1715324;Chrome;112.0;Windows;10;undefined;undefined;1536 x 864;1536 x 864
S018;36;Mannelijk;Rechts;2;81;right;no;50;rightarrow;366;true;focus;yes;1716461;Chrome;112.0;Windows;10;undefined;undefined;1536 x 864;1536 x 864
S018;36;Mannelijk;Rechts;2;82;right;yes;50;rightarrow;349;false;focus;yes;1717580;Chrome;112.0;Windows;10;undefined;undefined;1536 x 864;1536 x 864
S018;36;Mannelijk;Rechts;2;83;right;no;50;rightarrow;409;true;focus;yes;1718752;Chrome;112.0;Windows;10;undefined;undefined;1536 x 864;1536 x 864
S018;36;Mannelijk;Rechts;2;84;left;no;50;leftarrow;517;true;focus;yes;1720028;Chrome;112.0;Windows;10;undefined;undefined;1536 x 864;1536 x 864
S018;36;Mannelijk;Rechts;2;85;left;yes;50;leftarrow;364;false;focus;yes;1721160;Chrome;112.0;Windows;10;undefined;undefined;1536 x 864;1536 x 864
S018;36;Mannelijk;Rechts;2;86;right;no;50;rightarrow;333;true;focus;yes;1722261;Chrome;112.0;Windows;10;undefined;undefined;1536 x 864;1536 x 864
S018;36;Mannelijk;Rechts;2;87;left;no;50;leftarrow;341;true;focus;yes;1723355;Chrome;112.0;Windows;10;undefined;undefined;1536 x 864;1536 x 864
S018;36;Mannelijk;Rechts;2;88;left;no;50;leftarrow;331;true;focus;yes;1724460;Chrome;112.0;Windows;10;undefined;undefined;1536 x 864;1536 x 864
S018;36;Mannelijk;Rechts;2;89;left;yes;50;leftarrow;381;false;focus;yes;1725611;Chrome;112.0;Windows;10;undefined;undefined;1536 x 864;1536 x 864
S018;36;Mannelijk;Rechts;2;90;right;no;50;rightarrow;351;true;focus;yes;1726729;Chrome;112.0;Windows;10;undefined;undefined;1536 x 864;1536 x 864
S018;36;Mannelijk;Rechts;2;91;right;no;50;rightarrow;351;true;focus;yes;1727857;Chrome;112.0;Windows;10;undefined;undefined;1536 x 864;1536 x 864
S018;36;Mannelijk;Rechts;2;92;left;no;50;leftarrow;494;true;focus;yes;1729117;Chrome;112.0;Windows;10;undefined;undefined;1536 x 864;1536 x 864
S018;36;Mannelijk;Rechts;2;93;left;no;50;leftarrow;383;true;focus;yes;1730272;Chrome;112.0;Windows;10;undefined;undefined;1536 x 864;1536 x 864
S018;36;Mannelijk;Rechts;2;94;left;no;50;leftarrow;352;true;focus;yes;1731390;Chrome;112.0;Windows;10;undefined;undefined;1536 x 864;1536 x 864
S018;36;Mannelijk;Rechts;2;95;right;no;50;rightarrow;597;true;focus;yes;1732755;Chrome;112.0;Windows;10;undefined;undefined;1536 x 864;1536 x 864
S018;36;Mannelijk;Rechts;2;96;right;yes;50;rightarrow;299;false;focus;yes;1733822;Chrome;112.0;Windows;10;undefined;undefined;1536 x 864;1536 x 864
S018;36;Mannelijk;Rechts;2;97;right;no;50;rightarrow;345;true;focus;yes;1734935;Chrome;112.0;Windows;10;undefined;undefined;1536 x 864;1536 x 864
S018;36;Mannelijk;Rechts;2;98;right;no;50;rightarrow;423;true;focus;yes;1736129;Chrome;112.0;Windows;10;undefined;undefined;1536 x 864;1536 x 864
S018;36;Mannelijk;Rechts;2;99;left;no;50;leftarrow;353;true;focus;yes;1737258;Chrome;112.0;Windows;10;undefined;undefined;1536 x 864;1536 x 864
S018;36;Mannelijk;Rechts;2;100;left;yes;50;leftarrow;352;false;focus;yes;1738389;Chrome;112.0;Windows;10;undefined;undefined;1536 x 864;1536 x 864
S018;36;Mannelijk;Rechts;2;101;left;no;50;leftarrow;431;true;focus;yes;1739588;Chrome;112.0;Windows;10;undefined;undefined;1536 x 864;1536 x 864
S018;36;Mannelijk;Rechts;2;102;right;yes;50;rightarrow;449;false;focus;yes;1740806;Chrome;112.0;Windows;10;undefined;undefined;1536 x 864;1536 x 864
S018;36;Mannelijk;Rechts;2;103;right;no;50;rightarrow;760;true;focus;yes;1742334;Chrome;112.0;Windows;10;undefined;undefined;1536 x 864;1536 x 864
S018;36;Mannelijk;Rechts;2;104;left;no;50;leftarrow;548;true;focus;yes;1743654;Chrome;112.0;Windows;10;undefined;undefined;1536 x 864;1536 x 864
S018;36;Mannelijk;Rechts;2;105;right;yes;50;rightarrow;306;false;focus;yes;1744729;Chrome;112.0;Windows;10;undefined;undefined;1536 x 864;1536 x 864
S018;36;Mannelijk;Rechts;2;106;left;yes;50;leftarrow;294;false;focus;yes;1745799;Chrome;112.0;Windows;10;undefined;undefined;1536 x 864;1536 x 864
S018;36;Mannelijk;Rechts;2;107;left;no;50;leftarrow;335;true;focus;yes;1746906;Chrome;112.0;Windows;10;undefined;undefined;1536 x 864;1536 x 864
S018;36;Mannelijk;Rechts;2;108;right;no;50;rightarrow;415;true;focus;yes;1748089;Chrome;112.0;Windows;10;undefined;undefined;1536 x 864;1536 x 864
S018;36;Mannelijk;Rechts;2;109;left;no;50;leftarrow;349;true;focus;yes;1749205;Chrome;112.0;Windows;10;undefined;undefined;1536 x 864;1536 x 864
S018;36;Mannelijk;Rechts;2;110;left;no;50;leftarrow;366;true;focus;yes;1750340;Chrome;112.0;Windows;10;undefined;undefined;1536 x 864;1536 x 864
S018;36;Mannelijk;Rechts;2;111;right;no;50;rightarrow;400;true;focus;yes;1751506;Chrome;112.0;Windows;10;undefined;undefined;1536 x 864;1536 x 864
S018;36;Mannelijk;Rechts;2;112;right;no;50;rightarrow;540;true;focus;yes;1752812;Chrome;112.0;Windows;10;undefined;undefined;1536 x 864;1536 x 864
S018;36;Mannelijk;Rechts;2;113;left;no;50;leftarrow;314;true;focus;yes;1753888;Chrome;112.0;Windows;10;undefined;undefined;1536 x 864;1536 x 864
S018;36;Mannelijk;Rechts;2;114;left;yes;50;leftarrow;385;false;focus;yes;1755040;Chrome;112.0;Windows;10;undefined;undefined;1536 x 864;1536 x 864
S018;36;Mannelijk;Rechts;2;115;right;no;50;rightarrow;286;true;focus;yes;1756093;Chrome;112.0;Windows;10;undefined;undefined;1536 x 864;1536 x 864
S018;36;Mannelijk;Rechts;2;116;right;yes;50;rightarrow;674;false;focus;yes;1757545;Chrome;112.0;Windows;10;undefined;undefined;1536 x 864;1536 x 864
S018;36;Mannelijk;Rechts;2;117;right;no;50;rightarrow;497;true;focus;yes;1758804;Chrome;112.0;Windows;10;undefined;undefined;1536 x 864;1536 x 864
S018;36;Mannelijk;Rechts;2;118;right;no;50;leftarrow;242;false;focus;yes;1759815;Chrome;112.0;Windows;10;undefined;undefined;1536 x 864;1536 x 864
S018;36;Mannelijk;Rechts;2;119;left;no;50;leftarrow;308;true;focus;yes;1760897;Chrome;112.0;Windows;10;undefined;undefined;1536 x 864;1536 x 864
S018;36;Mannelijk;Rechts;2;120;left;no;50;leftarrow;334;true;focus;yes;1762006;Chrome;112.0;Windows;10;undefined;undefined;1536 x 864;1536 x 864
S018;36;Mannelijk;Rechts;2;121;right;no;50;rightarrow;397;true;focus;yes;1763171;Chrome;112.0;Windows;10;undefined;undefined;1536 x 864;1536 x 864
S018;36;Mannelijk;Rechts;2;122;right;yes;50;rightarrow;433;false;focus;yes;1764373;Chrome;112.0;Windows;10;undefined;undefined;1536 x 864;1536 x 864
S018;36;Mannelijk;Rechts;2;123;left;yes;50;leftarrow;340;false;focus;yes;1765478;Chrome;112.0;Windows;10;undefined;undefined;1536 x 864;1536 x 864
S018;36;Mannelijk;Rechts;2;124;left;no;50;rightarrow;203;false;focus;yes;1766443;Chrome;112.0;Windows;10;undefined;undefined;1536 x 864;1536 x 864
S018;36;Mannelijk;Rechts;2;125;left;no;50;leftarrow;360;true;focus;yes;1767584;Chrome;112.0;Windows;10;undefined;undefined;1536 x 864;1536 x 864
S018;36;Mannelijk;Rechts;2;126;right;no;50;rightarrow;332;true;focus;yes;1768689;Chrome;112.0;Windows;10;undefined;undefined;1536 x 864;1536 x 864
S018;36;Mannelijk;Rechts;2;127;right;no;50;rightarrow;412;true;focus;yes;1769870;Chrome;112.0;Windows;10;undefined;undefined;1536 x 864;1536 x 864
S018;36;Mannelijk;Rechts;2;128;left;no;50;leftarrow;482;true;focus;yes;1771121;Chrome;112.0;Windows;10;undefined;undefined;1536 x 864;1536 x 864
S018;36;Mannelijk;Rechts;3;1;left;no;50;leftarrow;347;true;focus;yes;1793002;Chrome;112.0;Windows;10;undefined;undefined;1536 x 864;1536 x 864
S018;36;Mannelijk;Rechts;3;2;right;no;50;rightarrow;317;true;focus;yes;1794086;Chrome;112.0;Windows;10;undefined;undefined;1536 x 864;1536 x 864
S018;36;Mannelijk;Rechts;3;3;left;no;50;leftarrow;282;true;focus;yes;1795138;Chrome;112.0;Windows;10;undefined;undefined;1536 x 864;1536 x 864
S018;36;Mannelijk;Rechts;3;4;right;no;50;rightarrow;338;true;focus;yes;1796243;Chrome;112.0;Windows;10;undefined;undefined;1536 x 864;1536 x 864
S018;36;Mannelijk;Rechts;3;5;right;yes;50;rightarrow;349;false;focus;yes;1797370;Chrome;112.0;Windows;10;undefined;undefined;1536 x 864;1536 x 864
S018;36;Mannelijk;Rechts;3;6;right;no;50;rightarrow;418;true;focus;yes;1798556;Chrome;112.0;Windows;10;undefined;undefined;1536 x 864;1536 x 864
S018;36;Mannelijk;Rechts;3;7;left;no;50;leftarrow;337;true;focus;yes;1799674;Chrome;112.0;Windows;10;undefined;undefined;1536 x 864;1536 x 864
S018;36;Mannelijk;Rechts;3;8;left;yes;50;leftarrow;349;false;focus;yes;1800803;Chrome;112.0;Windows;10;undefined;undefined;1536 x 864;1536 x 864
S018;36;Mannelijk;Rechts;3;9;left;no;50;leftarrow;436;true;focus;yes;1802008;Chrome;112.0;Windows;10;undefined;undefined;1536 x 864;1536 x 864
S018;36;Mannelijk;Rechts;3;10;right;yes;50;rightarrow;355;false;focus;yes;1803142;Chrome;112.0;Windows;10;undefined;undefined;1536 x 864;1536 x 864
S018;36;Mannelijk;Rechts;3;11;right;no;50;rightarrow;427;true;focus;yes;1804347;Chrome;112.0;Windows;10;undefined;undefined;1536 x 864;1536 x 864
S018;36;Mannelijk;Rechts;3;12;left;no;50;leftarrow;319;true;focus;yes;1805439;Chrome;112.0;Windows;10;undefined;undefined;1536 x 864;1536 x 864
S018;36;Mannelijk;Rechts;3;13;left;yes;50;leftarrow;388;false;focus;yes;1806590;Chrome;112.0;Windows;10;undefined;undefined;1536 x 864;1536 x 864
S018;36;Mannelijk;Rechts;3;14;right;no;50;rightarrow;432;true;focus;yes;1807803;Chrome;112.0;Windows;10;undefined;undefined;1536 x 864;1536 x 864
S018;36;Mannelijk;Rechts;3;15;left;no;50;leftarrow;284;true;focus;yes;1808855;Chrome;112.0;Windows;10;undefined;undefined;1536 x 864;1536 x 864
S018;36;Mannelijk;Rechts;3;16;right;no;50;rightarrow;367;true;focus;yes;1810005;Chrome;112.0;Windows;10;undefined;undefined;1536 x 864;1536 x 864
S018;36;Mannelijk;Rechts;3;17;right;no;50;rightarrow;444;true;focus;yes;1811214;Chrome;112.0;Windows;10;undefined;undefined;1536 x 864;1536 x 864
S018;36;Mannelijk;Rechts;3;18;right;no;50;rightarrow;977;true;focus;yes;1812965;Chrome;112.0;Windows;10;undefined;undefined;1536 x 864;1536 x 864
S018;36;Mannelijk;Rechts;3;19;left;no;50;leftarrow;352;true;focus;yes;1814089;Chrome;112.0;Windows;10;undefined;undefined;1536 x 864;1536 x 864
S018;36;Mannelijk;Rechts;3;20;left;yes;50;leftarrow;389;false;focus;yes;1815261;Chrome;112.0;Windows;10;undefined;undefined;1536 x 864;1536 x 864
S018;36;Mannelijk;Rechts;3;21;left;no;50;leftarrow;370;true;focus;yes;1816407;Chrome;112.0;Windows;10;undefined;undefined;1536 x 864;1536 x 864
S018;36;Mannelijk;Rechts;3;22;left;no;50;leftarrow;371;true;focus;yes;1817559;Chrome;112.0;Windows;10;undefined;undefined;1536 x 864;1536 x 864
S018;36;Mannelijk;Rechts;3;23;right;no;50;rightarrow;397;true;focus;yes;1818735;Chrome;112.0;Windows;10;undefined;undefined;1536 x 864;1536 x 864
S018;36;Mannelijk;Rechts;3;24;right;yes;50;rightarrow;372;false;focus;yes;1819862;Chrome;112.0;Windows;10;undefined;undefined;1536 x 864;1536 x 864
S018;36;Mannelijk;Rechts;3;25;left;no;50;leftarrow;308;true;focus;yes;1820946;Chrome;112.0;Windows;10;undefined;undefined;1536 x 864;1536 x 864
S018;36;Mannelijk;Rechts;3;26;right;no;50;rightarrow;399;true;focus;yes;1822120;Chrome;112.0;Windows;10;undefined;undefined;1536 x 864;1536 x 864
S018;36;Mannelijk;Rechts;3;27;right;no;50;rightarrow;401;true;focus;yes;1823304;Chrome;112.0;Windows;10;undefined;undefined;1536 x 864;1536 x 864
S018;36;Mannelijk;Rechts;3;28;right;yes;50;rightarrow;406;false;focus;yes;1824479;Chrome;112.0;Windows;10;undefined;undefined;1536 x 864;1536 x 864
S018;36;Mannelijk;Rechts;3;29;left;no;50;leftarrow;393;true;focus;yes;1825648;Chrome;112.0;Windows;10;undefined;undefined;1536 x 864;1536 x 864
S018;36;Mannelijk;Rechts;3;30;right;no;50;rightarrow;402;true;focus;yes;1826821;Chrome;112.0;Windows;10;undefined;undefined;1536 x 864;1536 x 864
S018;36;Mannelijk;Rechts;3;31;left;no;50;leftarrow;330;true;focus;yes;1827918;Chrome;112.0;Windows;10;undefined;undefined;1536 x 864;1536 x 864
S018;36;Mannelijk;Rechts;3;32;left;yes;50;leftarrow;366;false;focus;yes;1829054;Chrome;112.0;Windows;10;undefined;undefined;1536 x 864;1536 x 864
S018;36;Mannelijk;Rechts;3;33;left;no;50;leftarrow;405;true;focus;yes;1830224;Chrome;112.0;Windows;10;undefined;undefined;1536 x 864;1536 x 864
S018;36;Mannelijk;Rechts;3;34;right;no;50;rightarrow;398;true;focus;yes;1831403;Chrome;112.0;Windows;10;undefined;undefined;1536 x 864;1536 x 864
S018;36;Mannelijk;Rechts;3;35;left;yes;50;leftarrow;333;false;focus;yes;1832503;Chrome;112.0;Windows;10;undefined;undefined;1536 x 864;1536 x 864
S018;36;Mannelijk;Rechts;3;36;left;no;50;leftarrow;351;true;focus;yes;1833621;Chrome;112.0;Windows;10;undefined;undefined;1536 x 864;1536 x 864
S018;36;Mannelijk;Rechts;3;37;right;no;50;rightarrow;347;true;focus;yes;1834736;Chrome;112.0;Windows;10;undefined;undefined;1536 x 864;1536 x 864
S018;36;Mannelijk;Rechts;3;38;left;no;50;leftarrow;360;true;focus;yes;1835863;Chrome;112.0;Windows;10;undefined;undefined;1536 x 864;1536 x 864
S018;36;Mannelijk;Rechts;3;39;right;yes;50;rightarrow;340;false;focus;yes;1836978;Chrome;112.0;Windows;10;undefined;undefined;1536 x 864;1536 x 864
S018;36;Mannelijk;Rechts;3;40;right;no;50;rightarrow;526;true;focus;yes;1838279;Chrome;112.0;Windows;10;undefined;undefined;1536 x 864;1536 x 864
S018;36;Mannelijk;Rechts;3;41;right;yes;50;rightarrow;402;false;focus;yes;1839456;Chrome;112.0;Windows;10;undefined;undefined;1536 x 864;1536 x 864
S018;36;Mannelijk;Rechts;3;42;left;no;50;leftarrow;309;true;focus;yes;1840545;Chrome;112.0;Windows;10;undefined;undefined;1536 x 864;1536 x 864
S018;36;Mannelijk;Rechts;3;43;left;no;50;leftarrow;299;true;focus;yes;1841619;Chrome;112.0;Windows;10;undefined;undefined;1536 x 864;1536 x 864
S018;36;Mannelijk;Rechts;3;44;right;no;50;rightarrow;400;true;focus;yes;1842788;Chrome;112.0;Windows;10;undefined;undefined;1536 x 864;1536 x 864
S018;36;Mannelijk;Rechts;3;45;right;no;50;leftarrow;211;false;focus;yes;1843780;Chrome;112.0;Windows;10;undefined;undefined;1536 x 864;1536 x 864
S018;36;Mannelijk;Rechts;3;46;left;no;50;leftarrow;398;true;focus;yes;1844952;Chrome;112.0;Windows;10;undefined;undefined;1536 x 864;1536 x 864
S018;36;Mannelijk;Rechts;3;47;left;yes;50;leftarrow;384;false;focus;yes;1846103;Chrome;112.0;Windows;10;undefined;undefined;1536 x 864;1536 x 864
S018;36;Mannelijk;Rechts;3;48;right;no;50;rightarrow;374;true;focus;yes;1847247;Chrome;112.0;Windows;10;undefined;undefined;1536 x 864;1536 x 864
S018;36;Mannelijk;Rechts;3;49;left;no;50;leftarrow;335;true;focus;yes;1848340;Chrome;112.0;Windows;10;undefined;undefined;1536 x 864;1536 x 864
S018;36;Mannelijk;Rechts;3;50;left;no;50;leftarrow;283;true;focus;yes;1849402;Chrome;112.0;Windows;10;undefined;undefined;1536 x 864;1536 x 864
S018;36;Mannelijk;Rechts;3;51;right;yes;50;rightarrow;281;false;focus;yes;1850452;Chrome;112.0;Windows;10;undefined;undefined;1536 x 864;1536 x 864
S018;36;Mannelijk;Rechts;3;52;right;no;50;rightarrow;409;true;focus;yes;1851630;Chrome;112.0;Windows;10;undefined;undefined;1536 x 864;1536 x 864
S018;36;Mannelijk;Rechts;3;53;left;no;50;leftarrow;331;true;focus;yes;1852736;Chrome;112.0;Windows;10;undefined;undefined;1536 x 864;1536 x 864
S018;36;Mannelijk;Rechts;3;54;right;no;50;leftarrow;368;false;focus;yes;1853874;Chrome;112.0;Windows;10;undefined;undefined;1536 x 864;1536 x 864
S018;36;Mannelijk;Rechts;3;55;left;yes;50;leftarrow;327;false;focus;yes;1854981;Chrome;112.0;Windows;10;undefined;undefined;1536 x 864;1536 x 864
S018;36;Mannelijk;Rechts;3;56;right;no;50;rightarrow;333;true;focus;yes;1856087;Chrome;112.0;Windows;10;undefined;undefined;1536 x 864;1536 x 864
S018;36;Mannelijk;Rechts;3;57;left;no;50;leftarrow;556;true;focus;yes;1857410;Chrome;112.0;Windows;10;undefined;undefined;1536 x 864;1536 x 864
S018;36;Mannelijk;Rechts;3;58;right;no;50;rightarrow;318;true;focus;yes;1858503;Chrome;112.0;Windows;10;undefined;undefined;1536 x 864;1536 x 864
S018;36;Mannelijk;Rechts;3;59;left;no;50;leftarrow;298;true;focus;yes;1859586;Chrome;112.0;Windows;10;undefined;undefined;1536 x 864;1536 x 864
S018;36;Mannelijk;Rechts;3;60;left;no;50;leftarrow;401;true;focus;yes;1860757;Chrome;112.0;Windows;10;undefined;undefined;1536 x 864;1536 x 864
S018;36;Mannelijk;Rechts;3;61;left;yes;50;leftarrow;399;false;focus;yes;1861922;Chrome;112.0;Windows;10;undefined;undefined;1536 x 864;1536 x 864
S018;36;Mannelijk;Rechts;3;62;right;no;50;rightarrow;465;true;focus;yes;1863169;Chrome;112.0;Windows;10;undefined;undefined;1536 x 864;1536 x 864
S018;36;Mannelijk;Rechts;3;63;right;yes;50;rightarrow;401;false;focus;yes;1864337;Chrome;112.0;Windows;10;undefined;undefined;1536 x 864;1536 x 864
S018;36;Mannelijk;Rechts;3;64;right;no;50;rightarrow;751;true;focus;yes;1865871;Chrome;112.0;Windows;10;undefined;undefined;1536 x 864;1536 x 864
S018;36;Mannelijk;Rechts;3;65;left;yes;50;leftarrow;578;false;focus;yes;1867216;Chrome;112.0;Windows;10;undefined;undefined;1536 x 864;1536 x 864
S018;36;Mannelijk;Rechts;3;66;left;no;50;leftarrow;531;true;focus;yes;1868504;Chrome;112.0;Windows;10;undefined;undefined;1536 x 864;1536 x 864
S018;36;Mannelijk;Rechts;3;67;right;yes;50;rightarrow;343;false;focus;yes;1869616;Chrome;112.0;Windows;10;undefined;undefined;1536 x 864;1536 x 864
S018;36;Mannelijk;Rechts;3;68;right;no;50;rightarrow;436;true;focus;yes;1870825;Chrome;112.0;Windows;10;undefined;undefined;1536 x 864;1536 x 864
S018;36;Mannelijk;Rechts;3;69;right;no;50;rightarrow;352;true;focus;yes;1871957;Chrome;112.0;Windows;10;undefined;undefined;1536 x 864;1536 x 864
S018;36;Mannelijk;Rechts;3;70;right;no;50;rightarrow;319;true;focus;yes;1873056;Chrome;112.0;Windows;10;undefined;undefined;1536 x 864;1536 x 864
S018;36;Mannelijk;Rechts;3;71;left;no;50;leftarrow;370;true;focus;yes;1874205;Chrome;112.0;Windows;10;undefined;undefined;1536 x 864;1536 x 864
S018;36;Mannelijk;Rechts;3;72;left;no;50;leftarrow;385;true;focus;yes;1875371;Chrome;112.0;Windows;10;undefined;undefined;1536 x 864;1536 x 864
S018;36;Mannelijk;Rechts;3;73;left;yes;50;leftarrow;320;false;focus;yes;1876476;Chrome;112.0;Windows;10;undefined;undefined;1536 x 864;1536 x 864
S018;36;Mannelijk;Rechts;3;74;left;no;50;leftarrow;391;true;focus;yes;1877644;Chrome;112.0;Windows;10;undefined;undefined;1536 x 864;1536 x 864
S018;36;Mannelijk;Rechts;3;75;right;yes;50;rightarrow;378;false;focus;yes;1878798;Chrome;112.0;Windows;10;undefined;undefined;1536 x 864;1536 x 864
S018;36;Mannelijk;Rechts;3;76;right;no;50;rightarrow;401;true;focus;yes;1879971;Chrome;112.0;Windows;10;undefined;undefined;1536 x 864;1536 x 864
S018;36;Mannelijk;Rechts;3;77;right;no;50;rightarrow;332;true;focus;yes;1881071;Chrome;112.0;Windows;10;undefined;undefined;1536 x 864;1536 x 864
S018;36;Mannelijk;Rechts;3;78;left;no;50;leftarrow;360;true;focus;yes;1882198;Chrome;112.0;Windows;10;undefined;undefined;1536 x 864;1536 x 864
S018;36;Mannelijk;Rechts;3;79;left;no;50;leftarrow;335;true;focus;yes;1883303;Chrome;112.0;Windows;10;undefined;undefined;1536 x 864;1536 x 864
S018;36;Mannelijk;Rechts;3;80;right;no;50;rightarrow;385;true;focus;yes;1884454;Chrome;112.0;Windows;10;undefined;undefined;1536 x 864;1536 x 864
S018;36;Mannelijk;Rechts;3;81;left;no;50;leftarrow;333;true;focus;yes;1885554;Chrome;112.0;Windows;10;undefined;undefined;1536 x 864;1536 x 864
S018;36;Mannelijk;Rechts;3;82;right;no;50;rightarrow;371;true;focus;yes;1886708;Chrome;112.0;Windows;10;undefined;undefined;1536 x 864;1536 x 864
S018;36;Mannelijk;Rechts;3;83;left;yes;50;leftarrow;397;false;focus;yes;1887870;Chrome;112.0;Windows;10;undefined;undefined;1536 x 864;1536 x 864
S018;36;Mannelijk;Rechts;3;84;left;no;50;leftarrow;437;true;focus;yes;1889075;Chrome;112.0;Windows;10;undefined;undefined;1536 x 864;1536 x 864
S018;36;Mannelijk;Rechts;3;85;left;no;50;leftarrow;498;true;focus;yes;1890352;Chrome;112.0;Windows;10;undefined;undefined;1536 x 864;1536 x 864
S018;36;Mannelijk;Rechts;3;86;right;no;50;rightarrow;331;true;focus;yes;1891452;Chrome;112.0;Windows;10;undefined;undefined;1536 x 864;1536 x 864
S018;36;Mannelijk;Rechts;3;87;right;no;50;leftarrow;365;false;focus;yes;1892586;Chrome;112.0;Windows;10;undefined;undefined;1536 x 864;1536 x 864
S018;36;Mannelijk;Rechts;3;88;right;yes;50;rightarrow;451;false;focus;yes;1893805;Chrome;112.0;Windows;10;undefined;undefined;1536 x 864;1536 x 864
S018;36;Mannelijk;Rechts;3;89;left;no;50;leftarrow;344;true;focus;yes;1894930;Chrome;112.0;Windows;10;undefined;undefined;1536 x 864;1536 x 864
S018;36;Mannelijk;Rechts;3;90;left;no;50;leftarrow;330;true;focus;yes;1896036;Chrome;112.0;Windows;10;undefined;undefined;1536 x 864;1536 x 864
S018;36;Mannelijk;Rechts;3;91;right;yes;50;rightarrow;418;false;focus;yes;1897223;Chrome;112.0;Windows;10;undefined;undefined;1536 x 864;1536 x 864
S018;36;Mannelijk;Rechts;3;92;right;no;50;undefined;null;false;focus;yes;1899251;Chrome;112.0;Windows;10;undefined;undefined;1536 x 864;1536 x 864
S018;36;Mannelijk;Rechts;3;93;left;yes;50;leftarrow;472;false;focus;yes;1900492;Chrome;112.0;Windows;10;undefined;undefined;1536 x 864;1536 x 864
S018;36;Mannelijk;Rechts;3;94;right;no;50;rightarrow;433;true;focus;yes;1901703;Chrome;112.0;Windows;10;undefined;undefined;1536 x 864;1536 x 864
S018;36;Mannelijk;Rechts;3;95;left;no;50;leftarrow;377;true;focus;yes;1902846;Chrome;112.0;Windows;10;undefined;undefined;1536 x 864;1536 x 864
S018;36;Mannelijk;Rechts;3;96;right;no;50;rightarrow;337;true;focus;yes;1903957;Chrome;112.0;Windows;10;undefined;undefined;1536 x 864;1536 x 864
S018;36;Mannelijk;Rechts;3;97;right;no;50;rightarrow;556;true;focus;yes;1905293;Chrome;112.0;Windows;10;undefined;undefined;1536 x 864;1536 x 864
S018;36;Mannelijk;Rechts;3;98;right;yes;50;rightarrow;383;false;focus;yes;1906438;Chrome;112.0;Windows;10;undefined;undefined;1536 x 864;1536 x 864
S018;36;Mannelijk;Rechts;3;99;left;no;50;leftarrow;239;true;focus;yes;1907441;Chrome;112.0;Windows;10;undefined;undefined;1536 x 864;1536 x 864
S018;36;Mannelijk;Rechts;3;100;left;no;50;leftarrow;301;true;focus;yes;1908507;Chrome;112.0;Windows;10;undefined;undefined;1536 x 864;1536 x 864
S018;36;Mannelijk;Rechts;3;101;right;no;50;rightarrow;354;true;focus;yes;1909639;Chrome;112.0;Windows;10;undefined;undefined;1536 x 864;1536 x 864
S018;36;Mannelijk;Rechts;3;102;left;no;50;leftarrow;248;true;focus;yes;1910669;Chrome;112.0;Windows;10;undefined;undefined;1536 x 864;1536 x 864
S018;36;Mannelijk;Rechts;3;103;right;no;50;rightarrow;400;true;focus;yes;1911836;Chrome;112.0;Windows;10;undefined;undefined;1536 x 864;1536 x 864
S018;36;Mannelijk;Rechts;3;104;left;yes;50;leftarrow;297;false;focus;yes;1912885;Chrome;112.0;Windows;10;undefined;undefined;1536 x 864;1536 x 864
S018;36;Mannelijk;Rechts;3;105;right;no;50;rightarrow;300;true;focus;yes;1913952;Chrome;112.0;Windows;10;undefined;undefined;1536 x 864;1536 x 864
S018;36;Mannelijk;Rechts;3;106;left;yes;50;leftarrow;393;false;focus;yes;1915114;Chrome;112.0;Windows;10;undefined;undefined;1536 x 864;1536 x 864
S018;36;Mannelijk;Rechts;3;107;right;no;50;rightarrow;263;true;focus;yes;1916134;Chrome;112.0;Windows;10;undefined;undefined;1536 x 864;1536 x 864
S018;36;Mannelijk;Rechts;3;108;left;no;50;leftarrow;275;true;focus;yes;1917178;Chrome;112.0;Windows;10;undefined;undefined;1536 x 864;1536 x 864
S018;36;Mannelijk;Rechts;3;109;left;no;50;leftarrow;333;true;focus;yes;1918271;Chrome;112.0;Windows;10;undefined;undefined;1536 x 864;1536 x 864
S018;36;Mannelijk;Rechts;3;110;right;yes;50;rightarrow;438;false;focus;yes;1919475;Chrome;112.0;Windows;10;undefined;undefined;1536 x 864;1536 x 864
S018;36;Mannelijk;Rechts;3;111;left;no;50;leftarrow;315;true;focus;yes;1920568;Chrome;112.0;Windows;10;undefined;undefined;1536 x 864;1536 x 864
S018;36;Mannelijk;Rechts;3;112;right;no;50;leftarrow;333;false;focus;yes;1921671;Chrome;112.0;Windows;10;undefined;undefined;1536 x 864;1536 x 864
S018;36;Mannelijk;Rechts;3;113;left;yes;50;leftarrow;366;false;focus;yes;1922819;Chrome;112.0;Windows;10;undefined;undefined;1536 x 864;1536 x 864
S018;36;Mannelijk;Rechts;3;114;left;no;50;leftarrow;521;true;focus;yes;1924093;Chrome;112.0;Windows;10;undefined;undefined;1536 x 864;1536 x 864
S018;36;Mannelijk;Rechts;3;115;left;no;50;leftarrow;399;true;focus;yes;1925269;Chrome;112.0;Windows;10;undefined;undefined;1536 x 864;1536 x 864
S018;36;Mannelijk;Rechts;3;116;right;no;50;rightarrow;428;true;focus;yes;1926464;Chrome;112.0;Windows;10;undefined;undefined;1536 x 864;1536 x 864
S018;36;Mannelijk;Rechts;3;117;left;no;50;leftarrow;305;true;focus;yes;1927541;Chrome;112.0;Windows;10;undefined;undefined;1536 x 864;1536 x 864
S018;36;Mannelijk;Rechts;3;118;right;yes;50;rightarrow;364;false;focus;yes;1928685;Chrome;112.0;Windows;10;undefined;undefined;1536 x 864;1536 x 864
S018;36;Mannelijk;Rechts;3;119;right;no;50;rightarrow;397;true;focus;yes;1929851;Chrome;112.0;Windows;10;undefined;undefined;1536 x 864;1536 x 864
S018;36;Mannelijk;Rechts;3;120;right;no;50;rightarrow;412;true;focus;yes;1931019;Chrome;112.0;Windows;10;undefined;undefined;1536 x 864;1536 x 864
S018;36;Mannelijk;Rechts;3;121;right;no;50;rightarrow;411;true;focus;yes;1932185;Chrome;112.0;Windows;10;undefined;undefined;1536 x 864;1536 x 864
S018;36;Mannelijk;Rechts;3;122;left;no;50;leftarrow;385;true;focus;yes;1933338;Chrome;112.0;Windows;10;undefined;undefined;1536 x 864;1536 x 864
S018;36;Mannelijk;Rechts;3;123;right;yes;50;rightarrow;411;false;focus;yes;1934530;Chrome;112.0;Windows;10;undefined;undefined;1536 x 864;1536 x 864
S018;36;Mannelijk;Rechts;3;124;left;no;50;leftarrow;415;true;focus;yes;1935718;Chrome;112.0;Windows;10;undefined;undefined;1536 x 864;1536 x 864
S018;36;Mannelijk;Rechts;3;125;right;no;50;rightarrow;381;true;focus;yes;1936867;Chrome;112.0;Windows;10;undefined;undefined;1536 x 864;1536 x 864
S018;36;Mannelijk;Rechts;3;126;left;no;50;leftarrow;367;true;focus;yes;1938004;Chrome;112.0;Windows;10;undefined;undefined;1536 x 864;1536 x 864
S018;36;Mannelijk;Rechts;3;127;left;yes;50;leftarrow;424;false;focus;yes;1939195;Chrome;112.0;Windows;10;undefined;undefined;1536 x 864;1536 x 864
S018;36;Mannelijk;Rechts;3;128;right;no;50;rightarrow;366;true;focus;yes;1940335;Chrome;112.0;Windows;10;undefined;undefined;1536 x 864;1536 x 864
S018;36;Mannelijk;Rechts;4;1;right;no;50;rightarrow;531;true;focus;yes;1960055;Chrome;112.0;Windows;10;undefined;undefined;1536 x 864;1536 x 864
S018;36;Mannelijk;Rechts;4;2;left;no;50;leftarrow;391;true;focus;yes;1961225;Chrome;112.0;Windows;10;undefined;undefined;1536 x 864;1536 x 864
S018;36;Mannelijk;Rechts;4;3;right;yes;50;rightarrow;389;false;focus;yes;1962392;Chrome;112.0;Windows;10;undefined;undefined;1536 x 864;1536 x 864
S018;36;Mannelijk;Rechts;4;4;left;yes;50;leftarrow;463;false;focus;yes;1963618;Chrome;112.0;Windows;10;undefined;undefined;1536 x 864;1536 x 864
S018;36;Mannelijk;Rechts;4;5;left;no;50;leftarrow;442;true;focus;yes;1964828;Chrome;112.0;Windows;10;undefined;undefined;1536 x 864;1536 x 864
S018;36;Mannelijk;Rechts;4;6;left;no;50;leftarrow;443;true;focus;yes;1966046;Chrome;112.0;Windows;10;undefined;undefined;1536 x 864;1536 x 864
S018;36;Mannelijk;Rechts;4;7;right;no;50;rightarrow;391;true;focus;yes;1967210;Chrome;112.0;Windows;10;undefined;undefined;1536 x 864;1536 x 864
S018;36;Mannelijk;Rechts;4;8;right;no;50;rightarrow;350;true;focus;yes;1968320;Chrome;112.0;Windows;10;undefined;undefined;1536 x 864;1536 x 864
S018;36;Mannelijk;Rechts;4;9;right;no;50;rightarrow;355;true;focus;yes;1969455;Chrome;112.0;Windows;10;undefined;undefined;1536 x 864;1536 x 864
S018;36;Mannelijk;Rechts;4;10;right;yes;50;rightarrow;447;false;focus;yes;1970668;Chrome;112.0;Windows;10;undefined;undefined;1536 x 864;1536 x 864
S018;36;Mannelijk;Rechts;4;11;right;no;50;rightarrow;398;true;focus;yes;1971835;Chrome;112.0;Windows;10;undefined;undefined;1536 x 864;1536 x 864
S018;36;Mannelijk;Rechts;4;12;left;no;50;leftarrow;398;true;focus;yes;1973001;Chrome;112.0;Windows;10;undefined;undefined;1536 x 864;1536 x 864
S018;36;Mannelijk;Rechts;4;13;right;no;50;rightarrow;542;true;focus;yes;1974311;Chrome;112.0;Windows;10;undefined;undefined;1536 x 864;1536 x 864
S018;36;Mannelijk;Rechts;4;14;left;yes;50;leftarrow;362;false;focus;yes;1975434;Chrome;112.0;Windows;10;undefined;undefined;1536 x 864;1536 x 864
S018;36;Mannelijk;Rechts;4;15;left;no;50;leftarrow;390;true;focus;yes;1976580;Chrome;112.0;Windows;10;undefined;undefined;1536 x 864;1536 x 864
S018;36;Mannelijk;Rechts;4;16;left;no;50;leftarrow;441;true;focus;yes;1977795;Chrome;112.0;Windows;10;undefined;undefined;1536 x 864;1536 x 864
S018;36;Mannelijk;Rechts;4;17;left;no;50;leftarrow;292;true;focus;yes;1978860;Chrome;112.0;Windows;10;undefined;undefined;1536 x 864;1536 x 864
S018;36;Mannelijk;Rechts;4;18;right;no;50;rightarrow;374;true;focus;yes;1980010;Chrome;112.0;Windows;10;undefined;undefined;1536 x 864;1536 x 864
S018;36;Mannelijk;Rechts;4;19;right;no;50;rightarrow;383;true;focus;yes;1981168;Chrome;112.0;Windows;10;undefined;undefined;1536 x 864;1536 x 864
S018;36;Mannelijk;Rechts;4;20;left;yes;50;leftarrow;505;false;focus;yes;1982440;Chrome;112.0;Windows;10;undefined;undefined;1536 x 864;1536 x 864
S018;36;Mannelijk;Rechts;4;21;right;yes;50;undefined;null;true;focus;yes;1984481;Chrome;112.0;Windows;10;undefined;undefined;1536 x 864;1536 x 864
S018;36;Mannelijk;Rechts;4;22;right;no;100;rightarrow;466;true;focus;yes;1985717;Chrome;112.0;Windows;10;undefined;undefined;1536 x 864;1536 x 864
S018;36;Mannelijk;Rechts;4;23;left;no;100;leftarrow;567;true;focus;yes;1987053;Chrome;112.0;Windows;10;undefined;undefined;1536 x 864;1536 x 864
S018;36;Mannelijk;Rechts;4;24;left;no;100;leftarrow;421;true;focus;yes;1988244;Chrome;112.0;Windows;10;undefined;undefined;1536 x 864;1536 x 864
S018;36;Mannelijk;Rechts;4;25;left;no;100;leftarrow;594;true;focus;yes;1989613;Chrome;112.0;Windows;10;undefined;undefined;1536 x 864;1536 x 864
S018;36;Mannelijk;Rechts;4;26;right;no;100;rightarrow;335;true;focus;yes;1990721;Chrome;112.0;Windows;10;undefined;undefined;1536 x 864;1536 x 864
S018;36;Mannelijk;Rechts;4;27;right;yes;100;rightarrow;416;false;focus;yes;1991918;Chrome;112.0;Windows;10;undefined;undefined;1536 x 864;1536 x 864
S018;36;Mannelijk;Rechts;4;28;left;no;50;leftarrow;318;true;focus;yes;1993019;Chrome;112.0;Windows;10;undefined;undefined;1536 x 864;1536 x 864
S018;36;Mannelijk;Rechts;4;29;right;no;50;rightarrow;398;true;focus;yes;1994184;Chrome;112.0;Windows;10;undefined;undefined;1536 x 864;1536 x 864
S018;36;Mannelijk;Rechts;4;30;left;yes;50;leftarrow;319;false;focus;yes;1995271;Chrome;112.0;Windows;10;undefined;undefined;1536 x 864;1536 x 864
S018;36;Mannelijk;Rechts;4;31;left;no;50;leftarrow;358;true;focus;yes;1996410;Chrome;112.0;Windows;10;undefined;undefined;1536 x 864;1536 x 864
S018;36;Mannelijk;Rechts;4;32;right;no;50;rightarrow;378;true;focus;yes;1997546;Chrome;112.0;Windows;10;undefined;undefined;1536 x 864;1536 x 864
S018;36;Mannelijk;Rechts;4;33;right;no;50;rightarrow;419;true;focus;yes;1998737;Chrome;112.0;Windows;10;undefined;undefined;1536 x 864;1536 x 864
S018;36;Mannelijk;Rechts;4;34;right;yes;50;rightarrow;466;false;focus;yes;1999983;Chrome;112.0;Windows;10;undefined;undefined;1536 x 864;1536 x 864
S018;36;Mannelijk;Rechts;4;35;left;no;50;leftarrow;350;true;focus;yes;2001101;Chrome;112.0;Windows;10;undefined;undefined;1536 x 864;1536 x 864
S018;36;Mannelijk;Rechts;4;36;right;no;50;rightarrow;352;true;focus;yes;2002222;Chrome;112.0;Windows;10;undefined;undefined;1536 x 864;1536 x 864
S018;36;Mannelijk;Rechts;4;37;left;no;50;leftarrow;379;true;focus;yes;2003367;Chrome;112.0;Windows;10;undefined;undefined;1536 x 864;1536 x 864
S018;36;Mannelijk;Rechts;4;38;right;no;50;rightarrow;397;true;focus;yes;2004518;Chrome;112.0;Windows;10;undefined;undefined;1536 x 864;1536 x 864
S018;36;Mannelijk;Rechts;4;39;left;yes;50;leftarrow;360;false;focus;yes;2005646;Chrome;112.0;Windows;10;undefined;undefined;1536 x 864;1536 x 864
S018;36;Mannelijk;Rechts;4;40;left;no;50;leftarrow;399;true;focus;yes;2006817;Chrome;112.0;Windows;10;undefined;undefined;1536 x 864;1536 x 864
S018;36;Mannelijk;Rechts;4;41;left;no;50;leftarrow;404;true;focus;yes;2007989;Chrome;112.0;Windows;10;undefined;undefined;1536 x 864;1536 x 864
S018;36;Mannelijk;Rechts;4;42;left;no;50;leftarrow;395;true;focus;yes;2009150;Chrome;112.0;Windows;10;undefined;undefined;1536 x 864;1536 x 864
S018;36;Mannelijk;Rechts;4;43;right;no;50;rightarrow;363;true;focus;yes;2010282;Chrome;112.0;Windows;10;undefined;undefined;1536 x 864;1536 x 864
S018;36;Mannelijk;Rechts;4;44;right;no;50;rightarrow;364;true;focus;yes;2011416;Chrome;112.0;Windows;10;undefined;undefined;1536 x 864;1536 x 864
S018;36;Mannelijk;Rechts;4;45;left;yes;50;leftarrow;338;false;focus;yes;2012524;Chrome;112.0;Windows;10;undefined;undefined;1536 x 864;1536 x 864
S018;36;Mannelijk;Rechts;4;46;left;no;50;leftarrow;347;true;focus;yes;2013634;Chrome;112.0;Windows;10;undefined;undefined;1536 x 864;1536 x 864
S018;36;Mannelijk;Rechts;4;47;right;no;50;rightarrow;436;true;focus;yes;2014838;Chrome;112.0;Windows;10;undefined;undefined;1536 x 864;1536 x 864
S018;36;Mannelijk;Rechts;4;48;right;yes;50;rightarrow;438;false;focus;yes;2016056;Chrome;112.0;Windows;10;undefined;undefined;1536 x 864;1536 x 864
S018;36;Mannelijk;Rechts;4;49;right;no;50;rightarrow;436;true;focus;yes;2017271;Chrome;112.0;Windows;10;undefined;undefined;1536 x 864;1536 x 864
S018;36;Mannelijk;Rechts;4;50;left;no;50;leftarrow;299;true;focus;yes;2018334;Chrome;112.0;Windows;10;undefined;undefined;1536 x 864;1536 x 864
S018;36;Mannelijk;Rechts;4;51;right;no;50;rightarrow;332;true;focus;yes;2019434;Chrome;112.0;Windows;10;undefined;undefined;1536 x 864;1536 x 864
S018;36;Mannelijk;Rechts;4;52;left;no;50;leftarrow;367;true;focus;yes;2020567;Chrome;112.0;Windows;10;undefined;undefined;1536 x 864;1536 x 864
S018;36;Mannelijk;Rechts;4;53;left;yes;50;leftarrow;324;false;focus;yes;2021658;Chrome;112.0;Windows;10;undefined;undefined;1536 x 864;1536 x 864
S018;36;Mannelijk;Rechts;4;54;left;no;50;leftarrow;333;true;focus;yes;2022752;Chrome;112.0;Windows;10;undefined;undefined;1536 x 864;1536 x 864
S018;36;Mannelijk;Rechts;4;55;right;yes;50;rightarrow;334;false;focus;yes;2023855;Chrome;112.0;Windows;10;undefined;undefined;1536 x 864;1536 x 864
S018;36;Mannelijk;Rechts;4;56;right;no;50;rightarrow;448;true;focus;yes;2025069;Chrome;112.0;Windows;10;undefined;undefined;1536 x 864;1536 x 864
S018;36;Mannelijk;Rechts;4;57;right;no;50;rightarrow;431;true;focus;yes;2026267;Chrome;112.0;Windows;10;undefined;undefined;1536 x 864;1536 x 864
S018;36;Mannelijk;Rechts;4;58;right;yes;50;rightarrow;460;false;focus;yes;2027496;Chrome;112.0;Windows;10;undefined;undefined;1536 x 864;1536 x 864
S018;36;Mannelijk;Rechts;4;59;right;no;50;rightarrow;350;true;focus;yes;2028617;Chrome;112.0;Windows;10;undefined;undefined;1536 x 864;1536 x 864
S018;36;Mannelijk;Rechts;4;60;left;no;50;leftarrow;320;true;focus;yes;2029721;Chrome;112.0;Windows;10;undefined;undefined;1536 x 864;1536 x 864
S018;36;Mannelijk;Rechts;4;61;left;no;50;leftarrow;431;true;focus;yes;2030917;Chrome;112.0;Windows;10;undefined;undefined;1536 x 864;1536 x 864
S018;36;Mannelijk;Rechts;4;62;left;yes;50;rightarrow;234;false;focus;yes;2031917;Chrome;112.0;Windows;10;undefined;undefined;1536 x 864;1536 x 864
S018;36;Mannelijk;Rechts;4;63;left;no;50;leftarrow;346;true;focus;yes;2033034;Chrome;112.0;Windows;10;undefined;undefined;1536 x 864;1536 x 864
S018;36;Mannelijk;Rechts;4;64;right;no;50;rightarrow;332;true;focus;yes;2034134;Chrome;112.0;Windows;10;undefined;undefined;1536 x 864;1536 x 864
S018;36;Mannelijk;Rechts;4;65;left;no;50;leftarrow;276;true;focus;yes;2035177;Chrome;112.0;Windows;10;undefined;undefined;1536 x 864;1536 x 864
S018;36;Mannelijk;Rechts;4;66;left;no;50;leftarrow;349;true;focus;yes;2036299;Chrome;112.0;Windows;10;undefined;undefined;1536 x 864;1536 x 864
S018;36;Mannelijk;Rechts;4;67;right;no;50;rightarrow;404;true;focus;yes;2037471;Chrome;112.0;Windows;10;undefined;undefined;1536 x 864;1536 x 864
S018;36;Mannelijk;Rechts;4;68;right;no;50;rightarrow;414;true;focus;yes;2038666;Chrome;112.0;Windows;10;undefined;undefined;1536 x 864;1536 x 864
S018;36;Mannelijk;Rechts;4;69;right;no;50;rightarrow;309;true;focus;yes;2039743;Chrome;112.0;Windows;10;undefined;undefined;1536 x 864;1536 x 864
S018;36;Mannelijk;Rechts;4;70;left;yes;50;leftarrow;344;false;focus;yes;2040862;Chrome;112.0;Windows;10;undefined;undefined;1536 x 864;1536 x 864
S018;36;Mannelijk;Rechts;4;71;left;no;50;leftarrow;299;true;focus;yes;2041934;Chrome;112.0;Windows;10;undefined;undefined;1536 x 864;1536 x 864
S018;36;Mannelijk;Rechts;4;72;right;yes;50;rightarrow;366;false;focus;yes;2043084;Chrome;112.0;Windows;10;undefined;undefined;1536 x 864;1536 x 864
S018;36;Mannelijk;Rechts;4;73;right;no;50;leftarrow;232;false;focus;yes;2044083;Chrome;112.0;Windows;10;undefined;undefined;1536 x 864;1536 x 864
S018;36;Mannelijk;Rechts;4;74;left;yes;50;leftarrow;394;false;focus;yes;2045245;Chrome;112.0;Windows;10;undefined;undefined;1536 x 864;1536 x 864
S018;36;Mannelijk;Rechts;4;75;right;no;50;rightarrow;336;true;focus;yes;2046353;Chrome;112.0;Windows;10;undefined;undefined;1536 x 864;1536 x 864
S018;36;Mannelijk;Rechts;4;76;right;yes;50;rightarrow;357;false;focus;yes;2047492;Chrome;112.0;Windows;10;undefined;undefined;1536 x 864;1536 x 864
S018;36;Mannelijk;Rechts;4;77;left;no;50;leftarrow;349;true;focus;yes;2048617;Chrome;112.0;Windows;10;undefined;undefined;1536 x 864;1536 x 864
S018;36;Mannelijk;Rechts;4;78;left;no;50;leftarrow;310;true;focus;yes;2049695;Chrome;112.0;Windows;10;undefined;undefined;1536 x 864;1536 x 864
S018;36;Mannelijk;Rechts;4;79;left;no;50;leftarrow;320;true;focus;yes;2050788;Chrome;112.0;Windows;10;undefined;undefined;1536 x 864;1536 x 864
S018;36;Mannelijk;Rechts;4;80;right;no;50;rightarrow;385;true;focus;yes;2051952;Chrome;112.0;Windows;10;undefined;undefined;1536 x 864;1536 x 864
S018;36;Mannelijk;Rechts;4;81;left;no;50;leftarrow;439;true;focus;yes;2053173;Chrome;112.0;Windows;10;undefined;undefined;1536 x 864;1536 x 864
S018;36;Mannelijk;Rechts;4;82;left;no;50;leftarrow;427;true;focus;yes;2054377;Chrome;112.0;Windows;10;undefined;undefined;1536 x 864;1536 x 864
S018;36;Mannelijk;Rechts;4;83;right;yes;50;rightarrow;392;false;focus;yes;2055543;Chrome;112.0;Windows;10;undefined;undefined;1536 x 864;1536 x 864
S018;36;Mannelijk;Rechts;4;84;right;no;50;rightarrow;374;true;focus;yes;2056676;Chrome;112.0;Windows;10;undefined;undefined;1536 x 864;1536 x 864
S018;36;Mannelijk;Rechts;4;85;left;yes;50;leftarrow;845;false;focus;yes;2058299;Chrome;112.0;Windows;10;undefined;undefined;1536 x 864;1536 x 864
S018;36;Mannelijk;Rechts;4;86;left;no;50;leftarrow;383;true;focus;yes;2059451;Chrome;112.0;Windows;10;undefined;undefined;1536 x 864;1536 x 864
S018;36;Mannelijk;Rechts;4;87;right;no;50;rightarrow;436;true;focus;yes;2060655;Chrome;112.0;Windows;10;undefined;undefined;1536 x 864;1536 x 864
S018;36;Mannelijk;Rechts;4;88;right;no;50;rightarrow;413;true;focus;yes;2061846;Chrome;112.0;Windows;10;undefined;undefined;1536 x 864;1536 x 864
S018;36;Mannelijk;Rechts;4;89;left;no;50;leftarrow;410;true;focus;yes;2063028;Chrome;112.0;Windows;10;undefined;undefined;1536 x 864;1536 x 864
S018;36;Mannelijk;Rechts;4;90;left;yes;50;leftarrow;332;false;focus;yes;2064132;Chrome;112.0;Windows;10;undefined;undefined;1536 x 864;1536 x 864
S018;36;Mannelijk;Rechts;4;91;right;no;50;rightarrow;556;true;focus;yes;2065458;Chrome;112.0;Windows;10;undefined;undefined;1536 x 864;1536 x 864
S018;36;Mannelijk;Rechts;4;92;right;no;50;rightarrow;465;true;focus;yes;2066683;Chrome;112.0;Windows;10;undefined;undefined;1536 x 864;1536 x 864
S018;36;Mannelijk;Rechts;4;93;left;no;50;leftarrow;361;true;focus;yes;2067811;Chrome;112.0;Windows;10;undefined;undefined;1536 x 864;1536 x 864
S018;36;Mannelijk;Rechts;4;94;right;no;50;rightarrow;415;true;focus;yes;2069001;Chrome;112.0;Windows;10;undefined;undefined;1536 x 864;1536 x 864
S018;36;Mannelijk;Rechts;4;95;right;yes;50;rightarrow;417;false;focus;yes;2070184;Chrome;112.0;Windows;10;undefined;undefined;1536 x 864;1536 x 864
S018;36;Mannelijk;Rechts;4;96;left;no;50;leftarrow;341;true;focus;yes;2071294;Chrome;112.0;Windows;10;undefined;undefined;1536 x 864;1536 x 864
S018;36;Mannelijk;Rechts;4;97;left;no;50;leftarrow;427;true;focus;yes;2072494;Chrome;112.0;Windows;10;undefined;undefined;1536 x 864;1536 x 864
S018;36;Mannelijk;Rechts;4;98;right;no;50;rightarrow;407;true;focus;yes;2073674;Chrome;112.0;Windows;10;undefined;undefined;1536 x 864;1536 x 864
S018;36;Mannelijk;Rechts;4;99;left;no;50;leftarrow;348;true;focus;yes;2074799;Chrome;112.0;Windows;10;undefined;undefined;1536 x 864;1536 x 864
S018;36;Mannelijk;Rechts;4;100;right;no;50;rightarrow;284;true;focus;yes;2075852;Chrome;112.0;Windows;10;undefined;undefined;1536 x 864;1536 x 864
S018;36;Mannelijk;Rechts;4;101;right;yes;50;rightarrow;409;false;focus;yes;2077025;Chrome;112.0;Windows;10;undefined;undefined;1536 x 864;1536 x 864
S018;36;Mannelijk;Rechts;4;102;right;no;50;rightarrow;387;true;focus;yes;2078188;Chrome;112.0;Windows;10;undefined;undefined;1536 x 864;1536 x 864
S018;36;Mannelijk;Rechts;4;103;left;yes;50;leftarrow;315;false;focus;yes;2079282;Chrome;112.0;Windows;10;undefined;undefined;1536 x 864;1536 x 864
S018;36;Mannelijk;Rechts;4;104;left;no;50;leftarrow;422;true;focus;yes;2080472;Chrome;112.0;Windows;10;undefined;undefined;1536 x 864;1536 x 864
S018;36;Mannelijk;Rechts;4;105;right;no;50;rightarrow;383;true;focus;yes;2081633;Chrome;112.0;Windows;10;undefined;undefined;1536 x 864;1536 x 864
S018;36;Mannelijk;Rechts;4;106;left;no;50;leftarrow;388;true;focus;yes;2082791;Chrome;112.0;Windows;10;undefined;undefined;1536 x 864;1536 x 864
S018;36;Mannelijk;Rechts;4;107;left;no;50;leftarrow;300;true;focus;yes;2083867;Chrome;112.0;Windows;10;undefined;undefined;1536 x 864;1536 x 864
S018;36;Mannelijk;Rechts;4;108;left;no;50;leftarrow;310;true;focus;yes;2084944;Chrome;112.0;Windows;10;undefined;undefined;1536 x 864;1536 x 864
S018;36;Mannelijk;Rechts;4;109;left;yes;50;leftarrow;299;false;focus;yes;2086015;Chrome;112.0;Windows;10;undefined;undefined;1536 x 864;1536 x 864
S018;36;Mannelijk;Rechts;4;110;right;yes;50;rightarrow;386;false;focus;yes;2087169;Chrome;112.0;Windows;10;undefined;undefined;1536 x 864;1536 x 864
S018;36;Mannelijk;Rechts;4;111;right;no;50;rightarrow;336;true;focus;yes;2088285;Chrome;112.0;Windows;10;undefined;undefined;1536 x 864;1536 x 864
S018;36;Mannelijk;Rechts;4;112;right;no;50;rightarrow;300;true;focus;yes;2089367;Chrome;112.0;Windows;10;undefined;undefined;1536 x 864;1536 x 864
S018;36;Mannelijk;Rechts;4;113;right;no;50;rightarrow;335;true;focus;yes;2090468;Chrome;112.0;Windows;10;undefined;undefined;1536 x 864;1536 x 864
S018;36;Mannelijk;Rechts;4;114;left;no;50;leftarrow;416;true;focus;yes;2091663;Chrome;112.0;Windows;10;undefined;undefined;1536 x 864;1536 x 864
S018;36;Mannelijk;Rechts;4;115;left;no;50;leftarrow;313;true;focus;yes;2092759;Chrome;112.0;Windows;10;undefined;undefined;1536 x 864;1536 x 864
S018;36;Mannelijk;Rechts;4;116;left;yes;50;leftarrow;334;false;focus;yes;2093863;Chrome;112.0;Windows;10;undefined;undefined;1536 x 864;1536 x 864
S018;36;Mannelijk;Rechts;4;117;right;no;50;rightarrow;400;true;focus;yes;2095034;Chrome;112.0;Windows;10;undefined;undefined;1536 x 864;1536 x 864
S018;36;Mannelijk;Rechts;4;118;right;yes;50;rightarrow;448;false;focus;yes;2096264;Chrome;112.0;Windows;10;undefined;undefined;1536 x 864;1536 x 864
S018;36;Mannelijk;Rechts;4;119;left;no;50;leftarrow;400;true;focus;yes;2097432;Chrome;112.0;Windows;10;undefined;undefined;1536 x 864;1536 x 864
S018;36;Mannelijk;Rechts;4;120;right;no;50;rightarrow;682;true;focus;yes;2098896;Chrome;112.0;Windows;10;undefined;undefined;1536 x 864;1536 x 864
S018;36;Mannelijk;Rechts;4;121;right;no;50;rightarrow;350;true;focus;yes;2100014;Chrome;112.0;Windows;10;undefined;undefined;1536 x 864;1536 x 864
S018;36;Mannelijk;Rechts;4;122;left;yes;50;leftarrow;350;false;focus;yes;2101146;Chrome;112.0;Windows;10;undefined;undefined;1536 x 864;1536 x 864
S018;36;Mannelijk;Rechts;4;123;right;no;50;rightarrow;417;true;focus;yes;2102333;Chrome;112.0;Windows;10;undefined;undefined;1536 x 864;1536 x 864
S018;36;Mannelijk;Rechts;4;124;left;no;50;leftarrow;376;true;focus;yes;2103489;Chrome;112.0;Windows;10;undefined;undefined;1536 x 864;1536 x 864
S018;36;Mannelijk;Rechts;4;125;left;no;50;leftarrow;385;true;focus;yes;2104636;Chrome;112.0;Windows;10;undefined;undefined;1536 x 864;1536 x 864
S018;36;Mannelijk;Rechts;4;126;right;no;50;rightarrow;399;true;focus;yes;2105813;Chrome;112.0;Windows;10;undefined;undefined;1536 x 864;1536 x 864
S018;36;Mannelijk;Rechts;4;127;left;no;50;leftarrow;282;true;focus;yes;2106864;Chrome;112.0;Windows;10;undefined;undefined;1536 x 864;1536 x 864
S018;36;Mannelijk;Rechts;4;128;right;yes;50;rightarrow;419;false;focus;yes;2108048;Chrome;112.0;Windows;10;undefined;undefined;1536 x 864;1536 x 864
S018;36;Mannelijk;Rechts;5;1;left;no;50;leftarrow;597;true;focus;yes;2128861;Chrome;112.0;Windows;10;undefined;undefined;1536 x 864;1536 x 864
S018;36;Mannelijk;Rechts;5;2;left;yes;50;leftarrow;338;false;focus;yes;2129968;Chrome;112.0;Windows;10;undefined;undefined;1536 x 864;1536 x 864
S018;36;Mannelijk;Rechts;5;3;right;yes;50;rightarrow;362;false;focus;yes;2131096;Chrome;112.0;Windows;10;undefined;undefined;1536 x 864;1536 x 864
S018;36;Mannelijk;Rechts;5;4;right;no;50;rightarrow;405;true;focus;yes;2132268;Chrome;112.0;Windows;10;undefined;undefined;1536 x 864;1536 x 864
S018;36;Mannelijk;Rechts;5;5;left;no;50;leftarrow;550;true;focus;yes;2133595;Chrome;112.0;Windows;10;undefined;undefined;1536 x 864;1536 x 864
S018;36;Mannelijk;Rechts;5;6;left;no;50;leftarrow;360;true;focus;yes;2134723;Chrome;112.0;Windows;10;undefined;undefined;1536 x 864;1536 x 864
S018;36;Mannelijk;Rechts;5;7;right;no;50;rightarrow;332;true;focus;yes;2135829;Chrome;112.0;Windows;10;undefined;undefined;1536 x 864;1536 x 864
S018;36;Mannelijk;Rechts;5;8;right;no;50;rightarrow;414;true;focus;yes;2137012;Chrome;112.0;Windows;10;undefined;undefined;1536 x 864;1536 x 864
S018;36;Mannelijk;Rechts;5;9;right;no;50;rightarrow;365;true;focus;yes;2138146;Chrome;112.0;Windows;10;undefined;undefined;1536 x 864;1536 x 864
S018;36;Mannelijk;Rechts;5;10;left;no;50;leftarrow;369;true;focus;yes;2139298;Chrome;112.0;Windows;10;undefined;undefined;1536 x 864;1536 x 864
S018;36;Mannelijk;Rechts;5;11;right;no;50;rightarrow;388;true;focus;yes;2140451;Chrome;112.0;Windows;10;undefined;undefined;1536 x 864;1536 x 864
S018;36;Mannelijk;Rechts;5;12;left;no;50;leftarrow;396;true;focus;yes;2141625;Chrome;112.0;Windows;10;undefined;undefined;1536 x 864;1536 x 864
S018;36;Mannelijk;Rechts;5;13;left;no;50;leftarrow;415;true;focus;yes;2142813;Chrome;112.0;Windows;10;undefined;undefined;1536 x 864;1536 x 864
S018;36;Mannelijk;Rechts;5;14;right;no;50;rightarrow;388;true;focus;yes;2143984;Chrome;112.0;Windows;10;undefined;undefined;1536 x 864;1536 x 864
S018;36;Mannelijk;Rechts;5;15;left;yes;50;leftarrow;283;false;focus;yes;2145046;Chrome;112.0;Windows;10;undefined;undefined;1536 x 864;1536 x 864
S018;36;Mannelijk;Rechts;5;16;right;yes;50;rightarrow;216;false;focus;yes;2146030;Chrome;112.0;Windows;10;undefined;undefined;1536 x 864;1536 x 864
S018;36;Mannelijk;Rechts;5;17;left;no;50;leftarrow;264;true;focus;yes;2147062;Chrome;112.0;Windows;10;undefined;undefined;1536 x 864;1536 x 864
S018;36;Mannelijk;Rechts;5;18;left;yes;50;leftarrow;280;false;focus;yes;2148111;Chrome;112.0;Windows;10;undefined;undefined;1536 x 864;1536 x 864
S018;36;Mannelijk;Rechts;5;19;left;no;50;leftarrow;331;true;focus;yes;2149212;Chrome;112.0;Windows;10;undefined;undefined;1536 x 864;1536 x 864
S018;36;Mannelijk;Rechts;5;20;right;no;50;rightarrow;323;true;focus;yes;2150302;Chrome;112.0;Windows;10;undefined;undefined;1536 x 864;1536 x 864
S018;36;Mannelijk;Rechts;5;21;right;yes;50;rightarrow;386;false;focus;yes;2151468;Chrome;112.0;Windows;10;undefined;undefined;1536 x 864;1536 x 864
S018;36;Mannelijk;Rechts;5;22;right;no;50;rightarrow;391;true;focus;yes;2152639;Chrome;112.0;Windows;10;undefined;undefined;1536 x 864;1536 x 864
S018;36;Mannelijk;Rechts;5;23;left;no;50;leftarrow;367;true;focus;yes;2153782;Chrome;112.0;Windows;10;undefined;undefined;1536 x 864;1536 x 864
S018;36;Mannelijk;Rechts;5;24;right;no;50;rightarrow;339;true;focus;yes;2154890;Chrome;112.0;Windows;10;undefined;undefined;1536 x 864;1536 x 864
S018;36;Mannelijk;Rechts;5;25;right;no;50;rightarrow;409;true;focus;yes;2156073;Chrome;112.0;Windows;10;undefined;undefined;1536 x 864;1536 x 864
S018;36;Mannelijk;Rechts;5;26;right;no;50;rightarrow;344;true;focus;yes;2157192;Chrome;112.0;Windows;10;undefined;undefined;1536 x 864;1536 x 864
S018;36;Mannelijk;Rechts;5;27;left;yes;50;leftarrow;386;false;focus;yes;2158353;Chrome;112.0;Windows;10;undefined;undefined;1536 x 864;1536 x 864
S018;36;Mannelijk;Rechts;5;28;left;no;50;leftarrow;332;true;focus;yes;2159449;Chrome;112.0;Windows;10;undefined;undefined;1536 x 864;1536 x 864
S018;36;Mannelijk;Rechts;5;29;left;no;50;leftarrow;308;true;focus;yes;2160539;Chrome;112.0;Windows;10;undefined;undefined;1536 x 864;1536 x 864
S018;36;Mannelijk;Rechts;5;30;left;no;50;leftarrow;346;true;focus;yes;2161661;Chrome;112.0;Windows;10;undefined;undefined;1536 x 864;1536 x 864
S018;36;Mannelijk;Rechts;5;31;right;yes;50;rightarrow;345;false;focus;yes;2162766;Chrome;112.0;Windows;10;undefined;undefined;1536 x 864;1536 x 864
S018;36;Mannelijk;Rechts;5;32;right;no;50;rightarrow;351;true;focus;yes;2163899;Chrome;112.0;Windows;10;undefined;undefined;1536 x 864;1536 x 864
S018;36;Mannelijk;Rechts;5;33;right;no;50;rightarrow;325;true;focus;yes;2164992;Chrome;112.0;Windows;10;undefined;undefined;1536 x 864;1536 x 864
S018;36;Mannelijk;Rechts;5;34;left;no;50;leftarrow;344;true;focus;yes;2166110;Chrome;112.0;Windows;10;undefined;undefined;1536 x 864;1536 x 864
S018;36;Mannelijk;Rechts;5;35;left;no;50;leftarrow;320;true;focus;yes;2167204;Chrome;112.0;Windows;10;undefined;undefined;1536 x 864;1536 x 864
S018;36;Mannelijk;Rechts;5;36;right;no;50;rightarrow;383;true;focus;yes;2168364;Chrome;112.0;Windows;10;undefined;undefined;1536 x 864;1536 x 864
S018;36;Mannelijk;Rechts;5;37;left;no;50;leftarrow;317;true;focus;yes;2169448;Chrome;112.0;Windows;10;undefined;undefined;1536 x 864;1536 x 864
S018;36;Mannelijk;Rechts;5;38;left;yes;50;leftarrow;310;false;focus;yes;2170526;Chrome;112.0;Windows;10;undefined;undefined;1536 x 864;1536 x 864
S018;36;Mannelijk;Rechts;5;39;right;no;50;rightarrow;360;true;focus;yes;2171659;Chrome;112.0;Windows;10;undefined;undefined;1536 x 864;1536 x 864
S018;36;Mannelijk;Rechts;5;40;right;yes;50;rightarrow;369;false;focus;yes;2172799;Chrome;112.0;Windows;10;undefined;undefined;1536 x 864;1536 x 864
S018;36;Mannelijk;Rechts;5;41;right;no;50;rightarrow;307;true;focus;yes;2173887;Chrome;112.0;Windows;10;undefined;undefined;1536 x 864;1536 x 864
S018;36;Mannelijk;Rechts;5;42;left;no;50;leftarrow;369;true;focus;yes;2175019;Chrome;112.0;Windows;10;undefined;undefined;1536 x 864;1536 x 864
S018;36;Mannelijk;Rechts;5;43;left;no;50;leftarrow;397;true;focus;yes;2176197;Chrome;112.0;Windows;10;undefined;undefined;1536 x 864;1536 x 864
S018;36;Mannelijk;Rechts;5;44;right;no;50;rightarrow;369;true;focus;yes;2177334;Chrome;112.0;Windows;10;undefined;undefined;1536 x 864;1536 x 864
S018;36;Mannelijk;Rechts;5;45;left;yes;50;leftarrow;279;false;focus;yes;2178382;Chrome;112.0;Windows;10;undefined;undefined;1536 x 864;1536 x 864
S018;36;Mannelijk;Rechts;5;46;right;yes;50;rightarrow;356;false;focus;yes;2179505;Chrome;112.0;Windows;10;undefined;undefined;1536 x 864;1536 x 864
S018;36;Mannelijk;Rechts;5;47;right;no;50;rightarrow;415;true;focus;yes;2180697;Chrome;112.0;Windows;10;undefined;undefined;1536 x 864;1536 x 864
S018;36;Mannelijk;Rechts;5;48;left;no;50;leftarrow;285;true;focus;yes;2181751;Chrome;112.0;Windows;10;undefined;undefined;1536 x 864;1536 x 864
S018;36;Mannelijk;Rechts;5;49;right;yes;50;rightarrow;310;false;focus;yes;2182842;Chrome;112.0;Windows;10;undefined;undefined;1536 x 864;1536 x 864
S018;36;Mannelijk;Rechts;5;50;right;no;50;rightarrow;418;true;focus;yes;2184032;Chrome;112.0;Windows;10;undefined;undefined;1536 x 864;1536 x 864
S018;36;Mannelijk;Rechts;5;51;right;no;50;rightarrow;420;true;focus;yes;2185206;Chrome;112.0;Windows;10;undefined;undefined;1536 x 864;1536 x 864
S018;36;Mannelijk;Rechts;5;52;left;no;50;leftarrow;351;true;focus;yes;2186333;Chrome;112.0;Windows;10;undefined;undefined;1536 x 864;1536 x 864
S018;36;Mannelijk;Rechts;5;53;left;no;50;leftarrow;291;true;focus;yes;2187406;Chrome;112.0;Windows;10;undefined;undefined;1536 x 864;1536 x 864
S018;36;Mannelijk;Rechts;5;54;right;no;50;rightarrow;286;true;focus;yes;2188467;Chrome;112.0;Windows;10;undefined;undefined;1536 x 864;1536 x 864
S018;36;Mannelijk;Rechts;5;55;left;no;50;leftarrow;364;true;focus;yes;2189614;Chrome;112.0;Windows;10;undefined;undefined;1536 x 864;1536 x 864
S018;36;Mannelijk;Rechts;5;56;left;yes;50;leftarrow;304;false;focus;yes;2190690;Chrome;112.0;Windows;10;undefined;undefined;1536 x 864;1536 x 864
S018;36;Mannelijk;Rechts;5;57;right;no;50;rightarrow;367;true;focus;yes;2191831;Chrome;112.0;Windows;10;undefined;undefined;1536 x 864;1536 x 864
S018;36;Mannelijk;Rechts;5;58;right;yes;50;rightarrow;389;false;focus;yes;2192987;Chrome;112.0;Windows;10;undefined;undefined;1536 x 864;1536 x 864
S018;36;Mannelijk;Rechts;5;59;left;no;50;leftarrow;312;true;focus;yes;2194076;Chrome;112.0;Windows;10;undefined;undefined;1536 x 864;1536 x 864
S018;36;Mannelijk;Rechts;5;60;left;no;50;rightarrow;264;false;focus;yes;2195097;Chrome;112.0;Windows;10;undefined;undefined;1536 x 864;1536 x 864
S018;36;Mannelijk;Rechts;5;61;right;no;50;rightarrow;405;true;focus;yes;2196270;Chrome;112.0;Windows;10;undefined;undefined;1536 x 864;1536 x 864
S018;36;Mannelijk;Rechts;5;62;left;no;50;leftarrow;324;true;focus;yes;2197373;Chrome;112.0;Windows;10;undefined;undefined;1536 x 864;1536 x 864
S018;36;Mannelijk;Rechts;5;63;left;yes;50;leftarrow;495;false;focus;yes;2198630;Chrome;112.0;Windows;10;undefined;undefined;1536 x 864;1536 x 864
S018;36;Mannelijk;Rechts;5;64;right;no;50;rightarrow;359;true;focus;yes;2199758;Chrome;112.0;Windows;10;undefined;undefined;1536 x 864;1536 x 864
S018;36;Mannelijk;Rechts;5;65;left;yes;50;leftarrow;348;false;focus;yes;2200880;Chrome;112.0;Windows;10;undefined;undefined;1536 x 864;1536 x 864
S018;36;Mannelijk;Rechts;5;66;right;yes;50;rightarrow;512;false;focus;yes;2202146;Chrome;112.0;Windows;10;undefined;undefined;1536 x 864;1536 x 864
S018;36;Mannelijk;Rechts;5;67;left;no;50;leftarrow;493;true;focus;yes;2203409;Chrome;112.0;Windows;10;undefined;undefined;1536 x 864;1536 x 864
S018;36;Mannelijk;Rechts;5;68;right;no;50;rightarrow;349;true;focus;yes;2204530;Chrome;112.0;Windows;10;undefined;undefined;1536 x 864;1536 x 864
S018;36;Mannelijk;Rechts;5;69;left;no;50;leftarrow;381;true;focus;yes;2205679;Chrome;112.0;Windows;10;undefined;undefined;1536 x 864;1536 x 864
S018;36;Mannelijk;Rechts;5;70;left;no;50;leftarrow;566;true;focus;yes;2207014;Chrome;112.0;Windows;10;undefined;undefined;1536 x 864;1536 x 864
S018;36;Mannelijk;Rechts;5;71;right;no;50;leftarrow;276;false;focus;yes;2208058;Chrome;112.0;Windows;10;undefined;undefined;1536 x 864;1536 x 864
S018;36;Mannelijk;Rechts;5;72;right;no;50;rightarrow;426;true;focus;yes;2209258;Chrome;112.0;Windows;10;undefined;undefined;1536 x 864;1536 x 864
S018;36;Mannelijk;Rechts;5;73;right;no;50;rightarrow;442;true;focus;yes;2210474;Chrome;112.0;Windows;10;undefined;undefined;1536 x 864;1536 x 864
S018;36;Mannelijk;Rechts;5;74;left;no;50;leftarrow;365;true;focus;yes;2211613;Chrome;112.0;Windows;10;undefined;undefined;1536 x 864;1536 x 864
S018;36;Mannelijk;Rechts;5;75;left;no;50;leftarrow;314;true;focus;yes;2212696;Chrome;112.0;Windows;10;undefined;undefined;1536 x 864;1536 x 864
S018;36;Mannelijk;Rechts;5;76;right;yes;50;rightarrow;338;false;focus;yes;2213802;Chrome;112.0;Windows;10;undefined;undefined;1536 x 864;1536 x 864
S018;36;Mannelijk;Rechts;5;77;left;no;50;leftarrow;275;true;focus;yes;2214857;Chrome;112.0;Windows;10;undefined;undefined;1536 x 864;1536 x 864
S018;36;Mannelijk;Rechts;5;78;right;no;50;rightarrow;381;true;focus;yes;2216012;Chrome;112.0;Windows;10;undefined;undefined;1536 x 864;1536 x 864
S018;36;Mannelijk;Rechts;5;79;right;no;50;rightarrow;475;true;focus;yes;2217255;Chrome;112.0;Windows;10;undefined;undefined;1536 x 864;1536 x 864
S018;36;Mannelijk;Rechts;5;80;left;yes;50;leftarrow;263;false;focus;yes;2218298;Chrome;112.0;Windows;10;undefined;undefined;1536 x 864;1536 x 864
S018;36;Mannelijk;Rechts;5;81;right;no;50;rightarrow;342;true;focus;yes;2219406;Chrome;112.0;Windows;10;undefined;undefined;1536 x 864;1536 x 864
S018;36;Mannelijk;Rechts;5;82;right;yes;50;rightarrow;394;false;focus;yes;2220575;Chrome;112.0;Windows;10;undefined;undefined;1536 x 864;1536 x 864
S018;36;Mannelijk;Rechts;5;83;left;no;50;leftarrow;316;true;focus;yes;2221664;Chrome;112.0;Windows;10;undefined;undefined;1536 x 864;1536 x 864
S018;36;Mannelijk;Rechts;5;84;left;no;50;leftarrow;328;true;focus;yes;2222763;Chrome;112.0;Windows;10;undefined;undefined;1536 x 864;1536 x 864
S018;36;Mannelijk;Rechts;5;85;left;yes;50;leftarrow;292;false;focus;yes;2223822;Chrome;112.0;Windows;10;undefined;undefined;1536 x 864;1536 x 864
S018;36;Mannelijk;Rechts;5;86;left;no;50;leftarrow;348;true;focus;yes;2224946;Chrome;112.0;Windows;10;undefined;undefined;1536 x 864;1536 x 864
S018;36;Mannelijk;Rechts;5;87;right;no;50;rightarrow;265;true;focus;yes;2225979;Chrome;112.0;Windows;10;undefined;undefined;1536 x 864;1536 x 864
S018;36;Mannelijk;Rechts;5;88;right;no;50;leftarrow;200;false;focus;yes;2226948;Chrome;112.0;Windows;10;undefined;undefined;1536 x 864;1536 x 864
S018;36;Mannelijk;Rechts;5;89;right;no;50;rightarrow;415;true;focus;yes;2228128;Chrome;112.0;Windows;10;undefined;undefined;1536 x 864;1536 x 864
S018;36;Mannelijk;Rechts;5;90;left;yes;50;leftarrow;335;false;focus;yes;2229232;Chrome;112.0;Windows;10;undefined;undefined;1536 x 864;1536 x 864
S018;36;Mannelijk;Rechts;5;91;left;no;50;leftarrow;386;true;focus;yes;2230400;Chrome;112.0;Windows;10;undefined;undefined;1536 x 864;1536 x 864
S018;36;Mannelijk;Rechts;5;92;right;no;50;rightarrow;315;true;focus;yes;2231496;Chrome;112.0;Windows;10;undefined;undefined;1536 x 864;1536 x 864
S018;36;Mannelijk;Rechts;5;93;right;no;50;rightarrow;412;true;focus;yes;2232680;Chrome;112.0;Windows;10;undefined;undefined;1536 x 864;1536 x 864
S018;36;Mannelijk;Rechts;5;94;left;no;50;leftarrow;367;true;focus;yes;2233814;Chrome;112.0;Windows;10;undefined;undefined;1536 x 864;1536 x 864
S018;36;Mannelijk;Rechts;5;95;left;no;50;leftarrow;270;true;focus;yes;2234867;Chrome;112.0;Windows;10;undefined;undefined;1536 x 864;1536 x 864
S018;36;Mannelijk;Rechts;5;96;right;yes;50;rightarrow;436;false;focus;yes;2236083;Chrome;112.0;Windows;10;undefined;undefined;1536 x 864;1536 x 864
S018;36;Mannelijk;Rechts;5;97;left;yes;50;leftarrow;503;false;focus;yes;2237353;Chrome;112.0;Windows;10;undefined;undefined;1536 x 864;1536 x 864
S018;36;Mannelijk;Rechts;5;98;right;no;50;rightarrow;397;true;focus;yes;2238528;Chrome;112.0;Windows;10;undefined;undefined;1536 x 864;1536 x 864
S018;36;Mannelijk;Rechts;5;99;right;no;50;rightarrow;700;true;focus;yes;2239999;Chrome;112.0;Windows;10;undefined;undefined;1536 x 864;1536 x 864
S018;36;Mannelijk;Rechts;5;100;right;no;50;rightarrow;464;true;focus;yes;2241246;Chrome;112.0;Windows;10;undefined;undefined;1536 x 864;1536 x 864
S018;36;Mannelijk;Rechts;5;101;left;no;50;leftarrow;315;true;focus;yes;2242330;Chrome;112.0;Windows;10;undefined;undefined;1536 x 864;1536 x 864
S018;36;Mannelijk;Rechts;5;102;left;no;50;leftarrow;361;true;focus;yes;2243459;Chrome;112.0;Windows;10;undefined;undefined;1536 x 864;1536 x 864
S018;36;Mannelijk;Rechts;5;103;right;yes;50;rightarrow;409;false;focus;yes;2244639;Chrome;112.0;Windows;10;undefined;undefined;1536 x 864;1536 x 864
S018;36;Mannelijk;Rechts;5;104;left;no;50;leftarrow;255;true;focus;yes;2245669;Chrome;112.0;Windows;10;undefined;undefined;1536 x 864;1536 x 864
S018;36;Mannelijk;Rechts;5;105;right;no;50;rightarrow;418;true;focus;yes;2246851;Chrome;112.0;Windows;10;undefined;undefined;1536 x 864;1536 x 864
S018;36;Mannelijk;Rechts;5;106;right;no;50;rightarrow;374;true;focus;yes;2248003;Chrome;112.0;Windows;10;undefined;undefined;1536 x 864;1536 x 864
S018;36;Mannelijk;Rechts;5;107;left;yes;50;leftarrow;316;false;focus;yes;2249097;Chrome;112.0;Windows;10;undefined;undefined;1536 x 864;1536 x 864
S018;36;Mannelijk;Rechts;5;108;left;no;50;leftarrow;315;true;focus;yes;2250179;Chrome;112.0;Windows;10;undefined;undefined;1536 x 864;1536 x 864
S018;36;Mannelijk;Rechts;5;109;right;yes;50;rightarrow;353;false;focus;yes;2251302;Chrome;112.0;Windows;10;undefined;undefined;1536 x 864;1536 x 864
S018;36;Mannelijk;Rechts;5;110;left;no;50;leftarrow;350;true;focus;yes;2252430;Chrome;112.0;Windows;10;undefined;undefined;1536 x 864;1536 x 864
S018;36;Mannelijk;Rechts;5;111;right;no;50;rightarrow;271;true;focus;yes;2253468;Chrome;112.0;Windows;10;undefined;undefined;1536 x 864;1536 x 864
S018;36;Mannelijk;Rechts;5;112;left;no;50;leftarrow;315;true;focus;yes;2254563;Chrome;112.0;Windows;10;undefined;undefined;1536 x 864;1536 x 864
S018;36;Mannelijk;Rechts;5;113;right;no;50;rightarrow;323;true;focus;yes;2255654;Chrome;112.0;Windows;10;undefined;undefined;1536 x 864;1536 x 864
S018;36;Mannelijk;Rechts;5;114;right;no;50;rightarrow;309;true;focus;yes;2256739;Chrome;112.0;Windows;10;undefined;undefined;1536 x 864;1536 x 864
S018;36;Mannelijk;Rechts;5;115;left;no;50;leftarrow;345;true;focus;yes;2257859;Chrome;112.0;Windows;10;undefined;undefined;1536 x 864;1536 x 864
S018;36;Mannelijk;Rechts;5;116;left;no;50;leftarrow;282;true;focus;yes;2258913;Chrome;112.0;Windows;10;undefined;undefined;1536 x 864;1536 x 864
S018;36;Mannelijk;Rechts;5;117;left;yes;50;rightarrow;198;false;focus;yes;2259881;Chrome;112.0;Windows;10;undefined;undefined;1536 x 864;1536 x 864
S018;36;Mannelijk;Rechts;5;118;right;no;50;rightarrow;330;true;focus;yes;2260995;Chrome;112.0;Windows;10;undefined;undefined;1536 x 864;1536 x 864
S018;36;Mannelijk;Rechts;5;119;left;no;50;leftarrow;316;true;focus;yes;2262079;Chrome;112.0;Windows;10;undefined;undefined;1536 x 864;1536 x 864
S018;36;Mannelijk;Rechts;5;120;right;yes;50;rightarrow;371;false;focus;yes;2263217;Chrome;112.0;Windows;10;undefined;undefined;1536 x 864;1536 x 864
S018;36;Mannelijk;Rechts;5;121;right;yes;50;rightarrow;624;false;focus;yes;2264620;Chrome;112.0;Windows;10;undefined;undefined;1536 x 864;1536 x 864
S018;36;Mannelijk;Rechts;5;122;right;no;50;rightarrow;404;true;focus;yes;2265800;Chrome;112.0;Windows;10;undefined;undefined;1536 x 864;1536 x 864
S018;36;Mannelijk;Rechts;5;123;right;no;50;rightarrow;334;true;focus;yes;2266914;Chrome;112.0;Windows;10;undefined;undefined;1536 x 864;1536 x 864
S018;36;Mannelijk;Rechts;5;124;left;no;50;leftarrow;351;true;focus;yes;2268049;Chrome;112.0;Windows;10;undefined;undefined;1536 x 864;1536 x 864
S018;36;Mannelijk;Rechts;5;125;left;no;50;leftarrow;324;true;focus;yes;2269156;Chrome;112.0;Windows;10;undefined;undefined;1536 x 864;1536 x 864
S018;36;Mannelijk;Rechts;5;126;left;yes;50;rightarrow;202;false;focus;yes;2270133;Chrome;112.0;Windows;10;undefined;undefined;1536 x 864;1536 x 864
S018;36;Mannelijk;Rechts;5;127;left;no;50;leftarrow;421;true;focus;yes;2271334;Chrome;112.0;Windows;10;undefined;undefined;1536 x 864;1536 x 864
S018;36;Mannelijk;Rechts;5;128;right;no;50;rightarrow;327;true;focus;yes;2272441;Chrome;112.0;Windows;10;undefined;undefined;1536 x 864;1536 x 864
S018;36;Mannelijk;Rechts;6;1;left;yes;50;leftarrow;542;false;focus;yes;2300639;Chrome;112.0;Windows;10;undefined;undefined;1536 x 864;1536 x 864
S018;36;Mannelijk;Rechts;6;2;left;no;50;leftarrow;311;true;focus;yes;2301724;Chrome;112.0;Windows;10;undefined;undefined;1536 x 864;1536 x 864
S018;36;Mannelijk;Rechts;6;3;left;no;50;leftarrow;342;true;focus;yes;2302841;Chrome;112.0;Windows;10;undefined;undefined;1536 x 864;1536 x 864
S018;36;Mannelijk;Rechts;6;4;right;no;50;rightarrow;335;true;focus;yes;2303934;Chrome;112.0;Windows;10;undefined;undefined;1536 x 864;1536 x 864
S018;36;Mannelijk;Rechts;6;5;right;no;50;leftarrow;75;false;focus;yes;2305039;Chrome;112.0;Windows;10;undefined;undefined;1536 x 864;1536 x 864
S018;36;Mannelijk;Rechts;6;6;right;no;50;leftarrow;259;false;focus;yes;2306074;Chrome;112.0;Windows;10;undefined;undefined;1536 x 864;1536 x 864
S018;36;Mannelijk;Rechts;6;7;left;no;50;leftarrow;324;true;focus;yes;2307170;Chrome;112.0;Windows;10;undefined;undefined;1536 x 864;1536 x 864
S018;36;Mannelijk;Rechts;6;8;right;yes;50;rightarrow;380;false;focus;yes;2308312;Chrome;112.0;Windows;10;undefined;undefined;1536 x 864;1536 x 864
S018;36;Mannelijk;Rechts;6;9;right;no;50;rightarrow;348;true;focus;yes;2309429;Chrome;112.0;Windows;10;undefined;undefined;1536 x 864;1536 x 864
S018;36;Mannelijk;Rechts;6;10;left;no;50;leftarrow;386;true;focus;yes;2310582;Chrome;112.0;Windows;10;undefined;undefined;1536 x 864;1536 x 864
S018;36;Mannelijk;Rechts;6;11;right;no;50;rightarrow;597;true;focus;yes;2311962;Chrome;112.0;Windows;10;undefined;undefined;1536 x 864;1536 x 864
S018;36;Mannelijk;Rechts;6;12;left;no;50;leftarrow;415;true;focus;yes;2313145;Chrome;112.0;Windows;10;undefined;undefined;1536 x 864;1536 x 864
S018;36;Mannelijk;Rechts;6;13;right;no;50;rightarrow;408;true;focus;yes;2314339;Chrome;112.0;Windows;10;undefined;undefined;1536 x 864;1536 x 864
S018;36;Mannelijk;Rechts;6;14;left;yes;50;leftarrow;523;false;focus;yes;2315638;Chrome;112.0;Windows;10;undefined;undefined;1536 x 864;1536 x 864
S018;36;Mannelijk;Rechts;6;15;right;yes;50;rightarrow;354;false;focus;yes;2316752;Chrome;112.0;Windows;10;undefined;undefined;1536 x 864;1536 x 864
S018;36;Mannelijk;Rechts;6;16;left;no;50;leftarrow;332;true;focus;yes;2317863;Chrome;112.0;Windows;10;undefined;undefined;1536 x 864;1536 x 864
S018;36;Mannelijk;Rechts;6;17;left;no;50;leftarrow;334;true;focus;yes;2318963;Chrome;112.0;Windows;10;undefined;undefined;1536 x 864;1536 x 864
S018;36;Mannelijk;Rechts;6;18;right;no;50;rightarrow;352;true;focus;yes;2320085;Chrome;112.0;Windows;10;undefined;undefined;1536 x 864;1536 x 864
S018;36;Mannelijk;Rechts;6;19;left;no;50;leftarrow;318;true;focus;yes;2321182;Chrome;112.0;Windows;10;undefined;undefined;1536 x 864;1536 x 864
S018;36;Mannelijk;Rechts;6;20;right;yes;50;rightarrow;332;false;focus;yes;2322281;Chrome;112.0;Windows;10;undefined;undefined;1536 x 864;1536 x 864
S018;36;Mannelijk;Rechts;6;21;left;yes;50;leftarrow;368;false;focus;yes;2323432;Chrome;112.0;Windows;10;undefined;undefined;1536 x 864;1536 x 864
S018;36;Mannelijk;Rechts;6;22;right;no;50;rightarrow;258;true;focus;yes;2324454;Chrome;112.0;Windows;10;undefined;undefined;1536 x 864;1536 x 864
S018;36;Mannelijk;Rechts;6;23;right;no;50;rightarrow;371;true;focus;yes;2325601;Chrome;112.0;Windows;10;undefined;undefined;1536 x 864;1536 x 864
S018;36;Mannelijk;Rechts;6;24;left;no;50;leftarrow;317;true;focus;yes;2326698;Chrome;112.0;Windows;10;undefined;undefined;1536 x 864;1536 x 864
S018;36;Mannelijk;Rechts;6;25;left;yes;50;leftarrow;443;false;focus;yes;2327906;Chrome;112.0;Windows;10;undefined;undefined;1536 x 864;1536 x 864
S018;36;Mannelijk;Rechts;6;26;left;no;50;leftarrow;337;true;focus;yes;2329016;Chrome;112.0;Windows;10;undefined;undefined;1536 x 864;1536 x 864
S018;36;Mannelijk;Rechts;6;27;left;no;50;leftarrow;451;true;focus;yes;2330231;Chrome;112.0;Windows;10;undefined;undefined;1536 x 864;1536 x 864
S018;36;Mannelijk;Rechts;6;28;right;no;50;rightarrow;384;true;focus;yes;2331396;Chrome;112.0;Windows;10;undefined;undefined;1536 x 864;1536 x 864
S018;36;Mannelijk;Rechts;6;29;right;no;50;rightarrow;333;true;focus;yes;2332513;Chrome;112.0;Windows;10;undefined;undefined;1536 x 864;1536 x 864
S018;36;Mannelijk;Rechts;6;30;right;yes;50;rightarrow;397;false;focus;yes;2333679;Chrome;112.0;Windows;10;undefined;undefined;1536 x 864;1536 x 864
S018;36;Mannelijk;Rechts;6;31;right;no;50;rightarrow;302;true;focus;yes;2334747;Chrome;112.0;Windows;10;undefined;undefined;1536 x 864;1536 x 864
S018;36;Mannelijk;Rechts;6;32;left;no;50;leftarrow;326;true;focus;yes;2335841;Chrome;112.0;Windows;10;undefined;undefined;1536 x 864;1536 x 864
