participantID,age,gender,handedness,block_i,trial_i,stim,signal,SSD,response,rt,correct,focus,Fullscreen,time_elapsed,browser_name,browser_version,os_name,os_version,tablet,mobile,screen_resolution,window_resolution
S011,20,Vrouwelijk,Rechts,0,1,right,no,200,rightarrow,429,true,focus,yes,113471,Chrome,111.0,Windows,10,undefined,undefined,1280 x 720,1280 x 720
S011,20,Vrouwelijk,Rechts,0,2,right,no,200,rightarrow,508,true,focus,yes,115511,Chrome,111.0,Windows,10,undefined,undefined,1280 x 720,1280 x 720
S011,20,Vrouwelijk,Rechts,0,3,left,no,200,leftarrow,486,true,focus,yes,117525,Chrome,111.0,Windows,10,undefined,undefined,1280 x 720,1280 x 720
S011,20,Vrouwelijk,Rechts,0,4,left,no,200,leftarrow,612,true,focus,yes,119661,Chrome,111.0,Windows,10,undefined,undefined,1280 x 720,1280 x 720
S011,20,Vrouwelijk,Rechts,0,5,left,yes,200,undefined,null,true,focus,yes,122462,Chrome,111.0,Windows,10,undefined,undefined,1280 x 720,1280 x 720
S011,20,Vrouwelijk,Rechts,0,6,right,yes,250,rightarrow,475,false,focus,yes,124493,Chrome,111.0,Windows,10,undefined,undefined,1280 x 720,1280 x 720
S011,20,Vrouwelijk,Rechts,0,7,right,no,200,rightarrow,460,true,focus,yes,126486,Chrome,111.0,Windows,10,undefined,undefined,1280 x 720,1280 x 720
S011,20,Vrouwelijk,Rechts,0,8,left,no,200,leftarrow,542,true,focus,yes,128573,Chrome,111.0,Windows,10,undefined,undefined,1280 x 720,1280 x 720
S011,20,Vrouwelijk,Rechts,1,1,right,no,200,rightarrow,502,true,focus,yes,149489,Chrome,111.0,Windows,10,undefined,undefined,1280 x 720,1280 x 720
S011,20,Vrouwelijk,Rechts,1,2,left,no,200,leftarrow,559,true,focus,yes,150819,Chrome,111.0,Windows,10,undefined,undefined,1280 x 720,1280 x 720
S011,20,Vrouwelijk,Rechts,1,3,right,no,200,rightarrow,723,true,focus,yes,152309,Chrome,111.0,Windows,10,undefined,undefined,1280 x 720,1280 x 720
S011,20,Vrouwelijk,Rechts,1,4,left,no,200,leftarrow,633,true,focus,yes,153706,Chrome,111.0,Windows,10,undefined,undefined,1280 x 720,1280 x 720
S011,20,Vrouwelijk,Rechts,1,5,right,no,200,rightarrow,583,true,focus,yes,155055,Chrome,111.0,Windows,10,undefined,undefined,1280 x 720,1280 x 720
S011,20,Vrouwelijk,Rechts,1,6,right,yes,200,undefined,null,true,focus,yes,157081,Chrome,111.0,Windows,10,undefined,undefined,1280 x 720,1280 x 720
S011,20,Vrouwelijk,Rechts,1,7,left,no,250,leftarrow,607,true,focus,yes,158455,Chrome,111.0,Windows,10,undefined,undefined,1280 x 720,1280 x 720
S011,20,Vrouwelijk,Rechts,1,8,left,yes,250,undefined,null,true,focus,yes,160472,Chrome,111.0,Windows,10,undefined,undefined,1280 x 720,1280 x 720
S011,20,Vrouwelijk,Rechts,1,9,right,no,300,rightarrow,427,true,focus,yes,161669,Chrome,111.0,Windows,10,undefined,undefined,1280 x 720,1280 x 720
S011,20,Vrouwelijk,Rechts,1,10,left,no,300,leftarrow,552,true,focus,yes,162994,Chrome,111.0,Windows,10,undefined,undefined,1280 x 720,1280 x 720
S011,20,Vrouwelijk,Rechts,1,11,left,yes,300,undefined,null,true,focus,yes,165020,Chrome,111.0,Windows,10,undefined,undefined,1280 x 720,1280 x 720
S011,20,Vrouwelijk,Rechts,1,12,right,no,350,rightarrow,492,true,focus,yes,166272,Chrome,111.0,Windows,10,undefined,undefined,1280 x 720,1280 x 720
S011,20,Vrouwelijk,Rechts,1,13,left,no,350,leftarrow,641,true,focus,yes,167685,Chrome,111.0,Windows,10,undefined,undefined,1280 x 720,1280 x 720
S011,20,Vrouwelijk,Rechts,1,14,right,yes,350,undefined,null,true,focus,yes,169701,Chrome,111.0,Windows,10,undefined,undefined,1280 x 720,1280 x 720
S011,20,Vrouwelijk,Rechts,1,15,right,no,400,rightarrow,528,true,focus,yes,170998,Chrome,111.0,Windows,10,undefined,undefined,1280 x 720,1280 x 720
S011,20,Vrouwelijk,Rechts,1,16,left,no,400,leftarrow,572,true,focus,yes,172335,Chrome,111.0,Windows,10,undefined,undefined,1280 x 720,1280 x 720
S011,20,Vrouwelijk,Rechts,1,17,left,no,400,leftarrow,667,true,focus,yes,173782,Chrome,111.0,Windows,10,undefined,undefined,1280 x 720,1280 x 720
S011,20,Vrouwelijk,Rechts,1,18,right,yes,400,undefined,null,true,focus,yes,175798,Chrome,111.0,Windows,10,undefined,undefined,1280 x 720,1280 x 720
S011,20,Vrouwelijk,Rechts,1,19,right,no,450,rightarrow,482,true,focus,yes,177047,Chrome,111.0,Windows,10,undefined,undefined,1280 x 720,1280 x 720
S011,20,Vrouwelijk,Rechts,1,20,left,no,450,leftarrow,650,true,focus,yes,178463,Chrome,111.0,Windows,10,undefined,undefined,1280 x 720,1280 x 720
S011,20,Vrouwelijk,Rechts,1,21,left,no,450,leftarrow,645,true,focus,yes,179871,Chrome,111.0,Windows,10,undefined,undefined,1280 x 720,1280 x 720
S011,20,Vrouwelijk,Rechts,1,22,right,no,450,rightarrow,764,true,focus,yes,181405,Chrome,111.0,Windows,10,undefined,undefined,1280 x 720,1280 x 720
S011,20,Vrouwelijk,Rechts,1,23,right,no,450,rightarrow,669,true,focus,yes,182846,Chrome,111.0,Windows,10,undefined,undefined,1280 x 720,1280 x 720
S011,20,Vrouwelijk,Rechts,1,24,left,yes,450,undefined,null,true,focus,yes,184875,Chrome,111.0,Windows,10,undefined,undefined,1280 x 720,1280 x 720
S011,20,Vrouwelijk,Rechts,1,25,right,no,500,rightarrow,450,true,focus,yes,186091,Chrome,111.0,Windows,10,undefined,undefined,1280 x 720,1280 x 720
S011,20,Vrouwelijk,Rechts,1,26,left,no,500,leftarrow,592,true,focus,yes,187450,Chrome,111.0,Windows,10,undefined,undefined,1280 x 720,1280 x 720
S011,20,Vrouwelijk,Rechts,1,27,left,yes,500,leftarrow,502,false,focus,yes,188717,Chrome,111.0,Windows,10,undefined,undefined,1280 x 720,1280 x 720
S011,20,Vrouwelijk,Rechts,1,28,right,yes,450,rightarrow,502,false,focus,yes,189991,Chrome,111.0,Windows,10,undefined,undefined,1280 x 720,1280 x 720
S011,20,Vrouwelijk,Rechts,1,29,left,no,400,leftarrow,705,true,focus,yes,191472,Chrome,111.0,Windows,10,undefined,undefined,1280 x 720,1280 x 720
S011,20,Vrouwelijk,Rechts,1,30,left,no,400,leftarrow,655,true,focus,yes,192910,Chrome,111.0,Windows,10,undefined,undefined,1280 x 720,1280 x 720
S011,20,Vrouwelijk,Rechts,1,31,right,no,400,rightarrow,522,true,focus,yes,194192,Chrome,111.0,Windows,10,undefined,undefined,1280 x 720,1280 x 720
S011,20,Vrouwelijk,Rechts,1,32,right,no,400,rightarrow,573,true,focus,yes,195538,Chrome,111.0,Windows,10,undefined,undefined,1280 x 720,1280 x 720
S011,20,Vrouwelijk,Rechts,1,33,right,yes,400,rightarrow,599,false,focus,yes,196900,Chrome,111.0,Windows,10,undefined,undefined,1280 x 720,1280 x 720
S011,20,Vrouwelijk,Rechts,1,34,right,no,350,rightarrow,620,true,focus,yes,198289,Chrome,111.0,Windows,10,undefined,undefined,1280 x 720,1280 x 720
S011,20,Vrouwelijk,Rechts,1,35,left,yes,350,undefined,null,true,focus,yes,200324,Chrome,111.0,Windows,10,undefined,undefined,1280 x 720,1280 x 720
S011,20,Vrouwelijk,Rechts,1,36,left,no,400,leftarrow,620,true,focus,yes,201713,Chrome,111.0,Windows,10,undefined,undefined,1280 x 720,1280 x 720
S011,20,Vrouwelijk,Rechts,1,37,right,no,400,rightarrow,751,true,focus,yes,203242,Chrome,111.0,Windows,10,undefined,undefined,1280 x 720,1280 x 720
S011,20,Vrouwelijk,Rechts,1,38,right,no,400,rightarrow,666,true,focus,yes,204675,Chrome,111.0,Windows,10,undefined,undefined,1280 x 720,1280 x 720
S011,20,Vrouwelijk,Rechts,1,39,left,no,400,leftarrow,728,true,focus,yes,206168,Chrome,111.0,Windows,10,undefined,undefined,1280 x 720,1280 x 720
S011,20,Vrouwelijk,Rechts,1,40,left,no,400,leftarrow,609,true,focus,yes,207552,Chrome,111.0,Windows,10,undefined,undefined,1280 x 720,1280 x 720
S011,20,Vrouwelijk,Rechts,1,41,left,no,400,leftarrow,629,true,focus,yes,208959,Chrome,111.0,Windows,10,undefined,undefined,1280 x 720,1280 x 720
S011,20,Vrouwelijk,Rechts,1,42,right,no,400,rightarrow,614,true,focus,yes,210353,Chrome,111.0,Windows,10,undefined,undefined,1280 x 720,1280 x 720
S011,20,Vrouwelijk,Rechts,1,43,left,no,400,leftarrow,699,true,focus,yes,211827,Chrome,111.0,Windows,10,undefined,undefined,1280 x 720,1280 x 720
S011,20,Vrouwelijk,Rechts,1,44,right,yes,400,undefined,null,true,focus,yes,213835,Chrome,111.0,Windows,10,undefined,undefined,1280 x 720,1280 x 720
S011,20,Vrouwelijk,Rechts,1,45,left,no,450,leftarrow,452,true,focus,yes,215063,Chrome,111.0,Windows,10,undefined,undefined,1280 x 720,1280 x 720
S011,20,Vrouwelijk,Rechts,1,46,right,no,450,rightarrow,576,true,focus,yes,216418,Chrome,111.0,Windows,10,undefined,undefined,1280 x 720,1280 x 720
S011,20,Vrouwelijk,Rechts,1,47,left,yes,450,leftarrow,656,false,focus,yes,217848,Chrome,111.0,Windows,10,undefined,undefined,1280 x 720,1280 x 720
S011,20,Vrouwelijk,Rechts,1,48,right,no,400,rightarrow,724,true,focus,yes,219347,Chrome,111.0,Windows,10,undefined,undefined,1280 x 720,1280 x 720
S011,20,Vrouwelijk,Rechts,1,49,right,no,400,rightarrow,721,true,focus,yes,220833,Chrome,111.0,Windows,10,undefined,undefined,1280 x 720,1280 x 720
S011,20,Vrouwelijk,Rechts,1,50,left,no,400,leftarrow,732,true,focus,yes,222337,Chrome,111.0,Windows,10,undefined,undefined,1280 x 720,1280 x 720
S011,20,Vrouwelijk,Rechts,1,51,left,yes,400,undefined,null,true,focus,yes,224365,Chrome,111.0,Windows,10,undefined,undefined,1280 x 720,1280 x 720
S011,20,Vrouwelijk,Rechts,1,52,left,no,450,leftarrow,571,true,focus,yes,225704,Chrome,111.0,Windows,10,undefined,undefined,1280 x 720,1280 x 720
S011,20,Vrouwelijk,Rechts,1,53,right,no,450,rightarrow,560,true,focus,yes,227027,Chrome,111.0,Windows,10,undefined,undefined,1280 x 720,1280 x 720
S011,20,Vrouwelijk,Rechts,1,54,right,yes,450,rightarrow,644,false,focus,yes,228433,Chrome,111.0,Windows,10,undefined,undefined,1280 x 720,1280 x 720
S011,20,Vrouwelijk,Rechts,1,55,right,no,400,rightarrow,720,true,focus,yes,229923,Chrome,111.0,Windows,10,undefined,undefined,1280 x 720,1280 x 720
S011,20,Vrouwelijk,Rechts,1,56,left,no,400,leftarrow,704,true,focus,yes,231400,Chrome,111.0,Windows,10,undefined,undefined,1280 x 720,1280 x 720
S011,20,Vrouwelijk,Rechts,1,57,left,no,400,leftarrow,677,true,focus,yes,232845,Chrome,111.0,Windows,10,undefined,undefined,1280 x 720,1280 x 720
S011,20,Vrouwelijk,Rechts,1,58,right,no,400,rightarrow,634,true,focus,yes,234248,Chrome,111.0,Windows,10,undefined,undefined,1280 x 720,1280 x 720
S011,20,Vrouwelijk,Rechts,1,59,left,no,400,leftarrow,668,true,focus,yes,235682,Chrome,111.0,Windows,10,undefined,undefined,1280 x 720,1280 x 720
S011,20,Vrouwelijk,Rechts,1,60,left,yes,400,undefined,null,true,focus,yes,237711,Chrome,111.0,Windows,10,undefined,undefined,1280 x 720,1280 x 720
S011,20,Vrouwelijk,Rechts,1,61,right,no,450,rightarrow,547,true,focus,yes,239027,Chrome,111.0,Windows,10,undefined,undefined,1280 x 720,1280 x 720
S011,20,Vrouwelijk,Rechts,1,62,right,no,450,rightarrow,592,true,focus,yes,240397,Chrome,111.0,Windows,10,undefined,undefined,1280 x 720,1280 x 720
S011,20,Vrouwelijk,Rechts,1,63,right,yes,450,rightarrow,573,false,focus,yes,241745,Chrome,111.0,Windows,10,undefined,undefined,1280 x 720,1280 x 720
S011,20,Vrouwelijk,Rechts,1,64,left,no,400,leftarrow,554,true,focus,yes,243062,Chrome,111.0,Windows,10,undefined,undefined,1280 x 720,1280 x 720
S011,20,Vrouwelijk,Rechts,1,65,left,no,400,leftarrow,557,true,focus,yes,244390,Chrome,111.0,Windows,10,undefined,undefined,1280 x 720,1280 x 720
S011,20,Vrouwelijk,Rechts,1,66,left,no,400,leftarrow,652,true,focus,yes,245807,Chrome,111.0,Windows,10,undefined,undefined,1280 x 720,1280 x 720
S011,20,Vrouwelijk,Rechts,1,67,right,no,400,rightarrow,733,true,focus,yes,247301,Chrome,111.0,Windows,10,undefined,undefined,1280 x 720,1280 x 720
S011,20,Vrouwelijk,Rechts,1,68,right,no,400,rightarrow,692,true,focus,yes,248779,Chrome,111.0,Windows,10,undefined,undefined,1280 x 720,1280 x 720
S011,20,Vrouwelijk,Rechts,1,69,left,yes,400,undefined,null,true,focus,yes,250802,Chrome,111.0,Windows,10,undefined,undefined,1280 x 720,1280 x 720
S011,20,Vrouwelijk,Rechts,1,70,right,yes,450,rightarrow,563,false,focus,yes,252133,Chrome,111.0,Windows,10,undefined,undefined,1280 x 720,1280 x 720
S011,20,Vrouwelijk,Rechts,1,71,left,no,400,leftarrow,746,true,focus,yes,253656,Chrome,111.0,Windows,10,undefined,undefined,1280 x 720,1280 x 720
S011,20,Vrouwelijk,Rechts,1,72,right,no,400,rightarrow,799,true,focus,yes,255227,Chrome,111.0,Windows,10,undefined,undefined,1280 x 720,1280 x 720
S011,20,Vrouwelijk,Rechts,1,73,left,no,400,leftarrow,653,true,focus,yes,256649,Chrome,111.0,Windows,10,undefined,undefined,1280 x 720,1280 x 720
S011,20,Vrouwelijk,Rechts,1,74,right,no,400,rightarrow,684,true,focus,yes,258093,Chrome,111.0,Windows,10,undefined,undefined,1280 x 720,1280 x 720
S011,20,Vrouwelijk,Rechts,1,75,right,no,400,rightarrow,717,true,focus,yes,259588,Chrome,111.0,Windows,10,undefined,undefined,1280 x 720,1280 x 720
S011,20,Vrouwelijk,Rechts,1,76,right,no,400,rightarrow,706,true,focus,yes,261065,Chrome,111.0,Windows,10,undefined,undefined,1280 x 720,1280 x 720
S011,20,Vrouwelijk,Rechts,1,77,left,no,400,leftarrow,723,true,focus,yes,262559,Chrome,111.0,Windows,10,undefined,undefined,1280 x 720,1280 x 720
S011,20,Vrouwelijk,Rechts,1,78,right,yes,400,undefined,null,true,focus,yes,264578,Chrome,111.0,Windows,10,undefined,undefined,1280 x 720,1280 x 720
S011,20,Vrouwelijk,Rechts,1,79,left,no,450,leftarrow,786,true,focus,yes,266134,Chrome,111.0,Windows,10,undefined,undefined,1280 x 720,1280 x 720
S011,20,Vrouwelijk,Rechts,1,80,left,yes,450,undefined,null,true,focus,yes,268150,Chrome,111.0,Windows,10,undefined,undefined,1280 x 720,1280 x 720
S011,20,Vrouwelijk,Rechts,1,81,left,no,500,leftarrow,523,true,focus,yes,269442,Chrome,111.0,Windows,10,undefined,undefined,1280 x 720,1280 x 720
S011,20,Vrouwelijk,Rechts,1,82,right,no,500,rightarrow,513,true,focus,yes,270741,Chrome,111.0,Windows,10,undefined,undefined,1280 x 720,1280 x 720
S011,20,Vrouwelijk,Rechts,1,83,right,no,500,rightarrow,724,true,focus,yes,272230,Chrome,111.0,Windows,10,undefined,undefined,1280 x 720,1280 x 720
S011,20,Vrouwelijk,Rechts,1,84,left,no,500,leftarrow,640,true,focus,yes,273634,Chrome,111.0,Windows,10,undefined,undefined,1280 x 720,1280 x 720
S011,20,Vrouwelijk,Rechts,1,85,left,no,500,leftarrow,902,true,focus,yes,275310,Chrome,111.0,Windows,10,undefined,undefined,1280 x 720,1280 x 720
S011,20,Vrouwelijk,Rechts,1,86,right,yes,500,undefined,null,true,focus,yes,277337,Chrome,111.0,Windows,10,undefined,undefined,1280 x 720,1280 x 720
S011,20,Vrouwelijk,Rechts,1,87,right,no,550,rightarrow,511,true,focus,yes,278613,Chrome,111.0,Windows,10,undefined,undefined,1280 x 720,1280 x 720
S011,20,Vrouwelijk,Rechts,1,88,left,yes,550,leftarrow,711,false,focus,yes,280094,Chrome,111.0,Windows,10,undefined,undefined,1280 x 720,1280 x 720
S011,20,Vrouwelijk,Rechts,1,89,right,yes,500,undefined,null,true,focus,yes,282111,Chrome,111.0,Windows,10,undefined,undefined,1280 x 720,1280 x 720
S011,20,Vrouwelijk,Rechts,1,90,left,yes,550,leftarrow,724,false,focus,yes,283593,Chrome,111.0,Windows,10,undefined,undefined,1280 x 720,1280 x 720
S011,20,Vrouwelijk,Rechts,1,91,right,no,500,rightarrow,703,true,focus,yes,285069,Chrome,111.0,Windows,10,undefined,undefined,1280 x 720,1280 x 720
S011,20,Vrouwelijk,Rechts,1,92,right,no,500,rightarrow,643,true,focus,yes,286487,Chrome,111.0,Windows,10,undefined,undefined,1280 x 720,1280 x 720
S011,20,Vrouwelijk,Rechts,1,93,left,no,500,leftarrow,898,true,focus,yes,288157,Chrome,111.0,Windows,10,undefined,undefined,1280 x 720,1280 x 720
S011,20,Vrouwelijk,Rechts,1,94,left,no,500,leftarrow,762,true,focus,yes,289692,Chrome,111.0,Windows,10,undefined,undefined,1280 x 720,1280 x 720
S011,20,Vrouwelijk,Rechts,1,95,right,no,500,rightarrow,917,true,focus,yes,291379,Chrome,111.0,Windows,10,undefined,undefined,1280 x 720,1280 x 720
S011,20,Vrouwelijk,Rechts,1,96,left,no,500,leftarrow,949,true,focus,yes,293103,Chrome,111.0,Windows,10,undefined,undefined,1280 x 720,1280 x 720
S011,20,Vrouwelijk,Rechts,1,97,left,no,500,leftarrow,724,true,focus,yes,294596,Chrome,111.0,Windows,10,undefined,undefined,1280 x 720,1280 x 720
S011,20,Vrouwelijk,Rechts,1,98,left,no,500,leftarrow,680,true,focus,yes,296039,Chrome,111.0,Windows,10,undefined,undefined,1280 x 720,1280 x 720
S011,20,Vrouwelijk,Rechts,1,99,right,yes,500,undefined,null,true,focus,yes,298072,Chrome,111.0,Windows,10,undefined,undefined,1280 x 720,1280 x 720
S011,20,Vrouwelijk,Rechts,1,100,right,no,550,rightarrow,779,true,focus,yes,299619,Chrome,111.0,Windows,10,undefined,undefined,1280 x 720,1280 x 720
S011,20,Vrouwelijk,Rechts,1,101,left,yes,550,undefined,null,true,focus,yes,301648,Chrome,111.0,Windows,10,undefined,undefined,1280 x 720,1280 x 720
S011,20,Vrouwelijk,Rechts,1,102,right,no,600,rightarrow,666,true,focus,yes,303082,Chrome,111.0,Windows,10,undefined,undefined,1280 x 720,1280 x 720
S011,20,Vrouwelijk,Rechts,1,103,left,no,600,leftarrow,669,true,focus,yes,304513,Chrome,111.0,Windows,10,undefined,undefined,1280 x 720,1280 x 720
S011,20,Vrouwelijk,Rechts,1,104,right,no,600,rightarrow,882,true,focus,yes,306174,Chrome,111.0,Windows,10,undefined,undefined,1280 x 720,1280 x 720
S011,20,Vrouwelijk,Rechts,1,105,right,yes,600,undefined,null,true,focus,yes,308214,Chrome,111.0,Windows,10,undefined,undefined,1280 x 720,1280 x 720
S011,20,Vrouwelijk,Rechts,1,106,right,no,650,rightarrow,623,true,focus,yes,309603,Chrome,111.0,Windows,10,undefined,undefined,1280 x 720,1280 x 720
S011,20,Vrouwelijk,Rechts,1,107,right,no,650,rightarrow,880,true,focus,yes,311244,Chrome,111.0,Windows,10,undefined,undefined,1280 x 720,1280 x 720
S011,20,Vrouwelijk,Rechts,1,108,left,no,650,leftarrow,758,true,focus,yes,312767,Chrome,111.0,Windows,10,undefined,undefined,1280 x 720,1280 x 720
S011,20,Vrouwelijk,Rechts,1,109,left,no,650,leftarrow,805,true,focus,yes,314333,Chrome,111.0,Windows,10,undefined,undefined,1280 x 720,1280 x 720
S011,20,Vrouwelijk,Rechts,1,110,right,no,650,rightarrow,771,true,focus,yes,315880,Chrome,111.0,Windows,10,undefined,undefined,1280 x 720,1280 x 720
S011,20,Vrouwelijk,Rechts,1,111,left,no,650,leftarrow,895,true,focus,yes,317543,Chrome,111.0,Windows,10,undefined,undefined,1280 x 720,1280 x 720
S011,20,Vrouwelijk,Rechts,1,112,left,yes,650,leftarrow,764,false,focus,yes,319067,Chrome,111.0,Windows,10,undefined,undefined,1280 x 720,1280 x 720
S011,20,Vrouwelijk,Rechts,1,113,left,yes,600,leftarrow,811,false,focus,yes,320649,Chrome,111.0,Windows,10,undefined,undefined,1280 x 720,1280 x 720
S011,20,Vrouwelijk,Rechts,1,114,left,no,550,leftarrow,696,true,focus,yes,322116,Chrome,111.0,Windows,10,undefined,undefined,1280 x 720,1280 x 720
S011,20,Vrouwelijk,Rechts,1,115,right,no,550,rightarrow,711,true,focus,yes,323607,Chrome,111.0,Windows,10,undefined,undefined,1280 x 720,1280 x 720
S011,20,Vrouwelijk,Rechts,1,116,right,no,550,rightarrow,826,true,focus,yes,325194,Chrome,111.0,Windows,10,undefined,undefined,1280 x 720,1280 x 720
S011,20,Vrouwelijk,Rechts,1,117,right,no,550,rightarrow,919,true,focus,yes,326885,Chrome,111.0,Windows,10,undefined,undefined,1280 x 720,1280 x 720
S011,20,Vrouwelijk,Rechts,1,118,left,no,550,leftarrow,961,true,focus,yes,328616,Chrome,111.0,Windows,10,undefined,undefined,1280 x 720,1280 x 720
S011,20,Vrouwelijk,Rechts,1,119,left,no,550,leftarrow,908,true,focus,yes,330297,Chrome,111.0,Windows,10,undefined,undefined,1280 x 720,1280 x 720
S011,20,Vrouwelijk,Rechts,1,120,right,yes,550,undefined,null,true,focus,yes,332318,Chrome,111.0,Windows,10,undefined,undefined,1280 x 720,1280 x 720
S011,20,Vrouwelijk,Rechts,1,121,right,no,600,rightarrow,810,true,focus,yes,333894,Chrome,111.0,Windows,10,undefined,undefined,1280 x 720,1280 x 720
S011,20,Vrouwelijk,Rechts,1,122,right,no,600,rightarrow,868,true,focus,yes,335532,Chrome,111.0,Windows,10,undefined,undefined,1280 x 720,1280 x 720
S011,20,Vrouwelijk,Rechts,1,123,right,no,600,rightarrow,959,true,focus,yes,337264,Chrome,111.0,Windows,10,undefined,undefined,1280 x 720,1280 x 720
S011,20,Vrouwelijk,Rechts,1,124,left,no,600,leftarrow,1152,true,focus,yes,339190,Chrome,111.0,Windows,10,undefined,undefined,1280 x 720,1280 x 720
S011,20,Vrouwelijk,Rechts,1,125,left,yes,600,undefined,null,true,focus,yes,341211,Chrome,111.0,Windows,10,undefined,undefined,1280 x 720,1280 x 720
S011,20,Vrouwelijk,Rechts,1,126,right,yes,650,rightarrow,812,false,focus,yes,342790,Chrome,111.0,Windows,10,undefined,undefined,1280 x 720,1280 x 720
S011,20,Vrouwelijk,Rechts,1,127,left,no,600,leftarrow,919,true,focus,yes,344479,Chrome,111.0,Windows,10,undefined,undefined,1280 x 720,1280 x 720
S011,20,Vrouwelijk,Rechts,1,128,left,no,600,leftarrow,904,true,focus,yes,346150,Chrome,111.0,Windows,10,undefined,undefined,1280 x 720,1280 x 720
S011,20,Vrouwelijk,Rechts,2,1,right,no,600,rightarrow,732,true,focus,yes,365927,Chrome,111.0,Windows,10,undefined,undefined,1280 x 720,1280 x 720
S011,20,Vrouwelijk,Rechts,2,2,left,yes,600,leftarrow,776,false,focus,yes,367478,Chrome,111.0,Windows,10,undefined,undefined,1280 x 720,1280 x 720
S011,20,Vrouwelijk,Rechts,2,3,right,no,550,rightarrow,905,true,focus,yes,369158,Chrome,111.0,Windows,10,undefined,undefined,1280 x 720,1280 x 720
S011,20,Vrouwelijk,Rechts,2,4,right,yes,550,undefined,null,true,focus,yes,371180,Chrome,111.0,Windows,10,undefined,undefined,1280 x 720,1280 x 720
S011,20,Vrouwelijk,Rechts,2,5,left,no,600,leftarrow,774,true,focus,yes,372715,Chrome,111.0,Windows,10,undefined,undefined,1280 x 720,1280 x 720
S011,20,Vrouwelijk,Rechts,2,6,left,no,600,leftarrow,729,true,focus,yes,374213,Chrome,111.0,Windows,10,undefined,undefined,1280 x 720,1280 x 720
S011,20,Vrouwelijk,Rechts,2,7,right,no,600,rightarrow,691,true,focus,yes,375676,Chrome,111.0,Windows,10,undefined,undefined,1280 x 720,1280 x 720
S011,20,Vrouwelijk,Rechts,2,8,left,no,600,leftarrow,779,true,focus,yes,377226,Chrome,111.0,Windows,10,undefined,undefined,1280 x 720,1280 x 720
S011,20,Vrouwelijk,Rechts,2,9,right,no,600,rightarrow,747,true,focus,yes,378743,Chrome,111.0,Windows,10,undefined,undefined,1280 x 720,1280 x 720
S011,20,Vrouwelijk,Rechts,2,10,left,no,600,leftarrow,962,true,focus,yes,380479,Chrome,111.0,Windows,10,undefined,undefined,1280 x 720,1280 x 720
S011,20,Vrouwelijk,Rechts,2,11,right,yes,600,undefined,null,true,focus,yes,382505,Chrome,111.0,Windows,10,undefined,undefined,1280 x 720,1280 x 720
S011,20,Vrouwelijk,Rechts,2,12,left,yes,650,leftarrow,725,false,focus,yes,383999,Chrome,111.0,Windows,10,undefined,undefined,1280 x 720,1280 x 720
S011,20,Vrouwelijk,Rechts,2,13,right,no,600,rightarrow,905,true,focus,yes,385666,Chrome,111.0,Windows,10,undefined,undefined,1280 x 720,1280 x 720
S011,20,Vrouwelijk,Rechts,2,14,left,no,600,leftarrow,807,true,focus,yes,387244,Chrome,111.0,Windows,10,undefined,undefined,1280 x 720,1280 x 720
S011,20,Vrouwelijk,Rechts,2,15,left,no,600,leftarrow,927,true,focus,yes,388945,Chrome,111.0,Windows,10,undefined,undefined,1280 x 720,1280 x 720
S011,20,Vrouwelijk,Rechts,2,16,right,no,600,rightarrow,992,true,focus,yes,390711,Chrome,111.0,Windows,10,undefined,undefined,1280 x 720,1280 x 720
S011,20,Vrouwelijk,Rechts,2,17,right,no,600,rightarrow,1095,true,focus,yes,392578,Chrome,111.0,Windows,10,undefined,undefined,1280 x 720,1280 x 720
S011,20,Vrouwelijk,Rechts,2,18,right,yes,600,undefined,null,true,focus,yes,394593,Chrome,111.0,Windows,10,undefined,undefined,1280 x 720,1280 x 720
S011,20,Vrouwelijk,Rechts,2,19,right,no,650,rightarrow,633,true,focus,yes,395994,Chrome,111.0,Windows,10,undefined,undefined,1280 x 720,1280 x 720
S011,20,Vrouwelijk,Rechts,2,20,left,no,650,leftarrow,1034,true,focus,yes,397794,Chrome,111.0,Windows,10,undefined,undefined,1280 x 720,1280 x 720
S011,20,Vrouwelijk,Rechts,2,21,left,no,650,leftarrow,984,true,focus,yes,399550,Chrome,111.0,Windows,10,undefined,undefined,1280 x 720,1280 x 720
S011,20,Vrouwelijk,Rechts,2,22,left,yes,650,undefined,null,true,focus,yes,401587,Chrome,111.0,Windows,10,undefined,undefined,1280 x 720,1280 x 720
S011,20,Vrouwelijk,Rechts,2,23,right,no,700,rightarrow,950,true,focus,yes,403307,Chrome,111.0,Windows,10,undefined,undefined,1280 x 720,1280 x 720
S011,20,Vrouwelijk,Rechts,2,24,left,no,700,leftarrow,921,true,focus,yes,404994,Chrome,111.0,Windows,10,undefined,undefined,1280 x 720,1280 x 720
S011,20,Vrouwelijk,Rechts,2,25,right,no,700,rightarrow,967,true,focus,yes,406726,Chrome,111.0,Windows,10,undefined,undefined,1280 x 720,1280 x 720
S011,20,Vrouwelijk,Rechts,2,26,left,no,700,leftarrow,953,true,focus,yes,408460,Chrome,111.0,Windows,10,undefined,undefined,1280 x 720,1280 x 720
S011,20,Vrouwelijk,Rechts,2,27,right,no,700,rightarrow,1115,true,focus,yes,410345,Chrome,111.0,Windows,10,undefined,undefined,1280 x 720,1280 x 720
S011,20,Vrouwelijk,Rechts,2,28,right,yes,700,undefined,null,true,focus,yes,412365,Chrome,111.0,Windows,10,undefined,undefined,1280 x 720,1280 x 720
S011,20,Vrouwelijk,Rechts,2,29,left,no,750,leftarrow,864,true,focus,yes,413999,Chrome,111.0,Windows,10,undefined,undefined,1280 x 720,1280 x 720
S011,20,Vrouwelijk,Rechts,2,30,right,no,750,undefined,null,false,focus,yes,416030,Chrome,111.0,Windows,10,undefined,undefined,1280 x 720,1280 x 720
S011,20,Vrouwelijk,Rechts,2,31,left,no,750,leftarrow,703,true,focus,yes,417500,Chrome,111.0,Windows,10,undefined,undefined,1280 x 720,1280 x 720
S011,20,Vrouwelijk,Rechts,2,32,left,yes,750,leftarrow,754,false,focus,yes,419028,Chrome,111.0,Windows,10,undefined,undefined,1280 x 720,1280 x 720
S011,20,Vrouwelijk,Rechts,2,33,left,yes,700,leftarrow,952,false,focus,yes,420746,Chrome,111.0,Windows,10,undefined,undefined,1280 x 720,1280 x 720
S011,20,Vrouwelijk,Rechts,2,34,right,no,650,rightarrow,771,true,focus,yes,422282,Chrome,111.0,Windows,10,undefined,undefined,1280 x 720,1280 x 720
S011,20,Vrouwelijk,Rechts,2,35,right,no,650,rightarrow,944,true,focus,yes,423994,Chrome,111.0,Windows,10,undefined,undefined,1280 x 720,1280 x 720
S011,20,Vrouwelijk,Rechts,2,36,left,no,650,leftarrow,958,true,focus,yes,425720,Chrome,111.0,Windows,10,undefined,undefined,1280 x 720,1280 x 720
S011,20,Vrouwelijk,Rechts,2,37,left,no,650,leftarrow,811,true,focus,yes,427311,Chrome,111.0,Windows,10,undefined,undefined,1280 x 720,1280 x 720
S011,20,Vrouwelijk,Rechts,2,38,right,no,650,rightarrow,1102,true,focus,yes,429184,Chrome,111.0,Windows,10,undefined,undefined,1280 x 720,1280 x 720
S011,20,Vrouwelijk,Rechts,2,39,right,yes,650,undefined,null,true,focus,yes,431208,Chrome,111.0,Windows,10,undefined,undefined,1280 x 720,1280 x 720
S011,20,Vrouwelijk,Rechts,2,40,left,no,700,leftarrow,756,true,focus,yes,432725,Chrome,111.0,Windows,10,undefined,undefined,1280 x 720,1280 x 720
S011,20,Vrouwelijk,Rechts,2,41,left,yes,700,leftarrow,871,false,focus,yes,434365,Chrome,111.0,Windows,10,undefined,undefined,1280 x 720,1280 x 720
S011,20,Vrouwelijk,Rechts,2,42,left,no,650,leftarrow,1173,true,focus,yes,436311,Chrome,111.0,Windows,10,undefined,undefined,1280 x 720,1280 x 720
S011,20,Vrouwelijk,Rechts,2,43,left,no,650,leftarrow,917,true,focus,yes,437998,Chrome,111.0,Windows,10,undefined,undefined,1280 x 720,1280 x 720
S011,20,Vrouwelijk,Rechts,2,44,right,no,650,rightarrow,883,true,focus,yes,439654,Chrome,111.0,Windows,10,undefined,undefined,1280 x 720,1280 x 720
S011,20,Vrouwelijk,Rechts,2,45,left,no,650,leftarrow,924,true,focus,yes,441350,Chrome,111.0,Windows,10,undefined,undefined,1280 x 720,1280 x 720
S011,20,Vrouwelijk,Rechts,2,46,right,yes,650,undefined,null,true,focus,yes,443368,Chrome,111.0,Windows,10,undefined,undefined,1280 x 720,1280 x 720
S011,20,Vrouwelijk,Rechts,2,47,right,no,700,rightarrow,670,true,focus,yes,444807,Chrome,111.0,Windows,10,undefined,undefined,1280 x 720,1280 x 720
S011,20,Vrouwelijk,Rechts,2,48,right,no,700,rightarrow,747,true,focus,yes,446330,Chrome,111.0,Windows,10,undefined,undefined,1280 x 720,1280 x 720
S011,20,Vrouwelijk,Rechts,2,49,left,no,700,leftarrow,990,true,focus,yes,448091,Chrome,111.0,Windows,10,undefined,undefined,1280 x 720,1280 x 720
S011,20,Vrouwelijk,Rechts,2,50,right,no,700,rightarrow,955,true,focus,yes,449805,Chrome,111.0,Windows,10,undefined,undefined,1280 x 720,1280 x 720
S011,20,Vrouwelijk,Rechts,2,51,left,no,700,leftarrow,1000,true,focus,yes,451568,Chrome,111.0,Windows,10,undefined,undefined,1280 x 720,1280 x 720
S011,20,Vrouwelijk,Rechts,2,52,right,no,700,rightarrow,1211,true,focus,yes,453543,Chrome,111.0,Windows,10,undefined,undefined,1280 x 720,1280 x 720
S011,20,Vrouwelijk,Rechts,2,53,left,no,700,leftarrow,1086,true,focus,yes,455410,Chrome,111.0,Windows,10,undefined,undefined,1280 x 720,1280 x 720
S011,20,Vrouwelijk,Rechts,2,54,right,yes,700,undefined,null,true,focus,yes,457435,Chrome,111.0,Windows,10,undefined,undefined,1280 x 720,1280 x 720
S011,20,Vrouwelijk,Rechts,2,55,right,no,750,rightarrow,1087,true,focus,yes,459290,Chrome,111.0,Windows,10,undefined,undefined,1280 x 720,1280 x 720
S011,20,Vrouwelijk,Rechts,2,56,left,yes,750,leftarrow,937,false,focus,yes,460993,Chrome,111.0,Windows,10,undefined,undefined,1280 x 720,1280 x 720
S011,20,Vrouwelijk,Rechts,2,57,left,no,700,leftarrow,1012,true,focus,yes,462769,Chrome,111.0,Windows,10,undefined,undefined,1280 x 720,1280 x 720
S011,20,Vrouwelijk,Rechts,2,58,left,yes,700,undefined,null,true,focus,yes,464794,Chrome,111.0,Windows,10,undefined,undefined,1280 x 720,1280 x 720
S011,20,Vrouwelijk,Rechts,2,59,right,yes,750,rightarrow,791,false,focus,yes,466353,Chrome,111.0,Windows,10,undefined,undefined,1280 x 720,1280 x 720
S011,20,Vrouwelijk,Rechts,2,60,left,no,700,leftarrow,998,true,focus,yes,468126,Chrome,111.0,Windows,10,undefined,undefined,1280 x 720,1280 x 720
S011,20,Vrouwelijk,Rechts,2,61,right,no,700,rightarrow,1171,true,focus,yes,470064,Chrome,111.0,Windows,10,undefined,undefined,1280 x 720,1280 x 720
S011,20,Vrouwelijk,Rechts,2,62,right,no,700,rightarrow,1142,true,focus,yes,471980,Chrome,111.0,Windows,10,undefined,undefined,1280 x 720,1280 x 720
S011,20,Vrouwelijk,Rechts,2,63,left,no,700,leftarrow,1217,true,focus,yes,473972,Chrome,111.0,Windows,10,undefined,undefined,1280 x 720,1280 x 720
S011,20,Vrouwelijk,Rechts,2,64,right,no,700,rightarrow,1239,true,focus,yes,475983,Chrome,111.0,Windows,10,undefined,undefined,1280 x 720,1280 x 720
S011,20,Vrouwelijk,Rechts,2,65,left,yes,700,undefined,null,true,focus,yes,478005,Chrome,111.0,Windows,10,undefined,undefined,1280 x 720,1280 x 720
S011,20,Vrouwelijk,Rechts,2,66,right,no,750,rightarrow,1178,true,focus,yes,479950,Chrome,111.0,Windows,10,undefined,undefined,1280 x 720,1280 x 720
S011,20,Vrouwelijk,Rechts,2,67,right,yes,750,undefined,null,true,focus,yes,481972,Chrome,111.0,Windows,10,undefined,undefined,1280 x 720,1280 x 720
S011,20,Vrouwelijk,Rechts,2,68,left,no,800,leftarrow,916,true,focus,yes,483650,Chrome,111.0,Windows,10,undefined,undefined,1280 x 720,1280 x 720
S011,20,Vrouwelijk,Rechts,2,69,left,no,800,undefined,null,false,focus,yes,485683,Chrome,111.0,Windows,10,undefined,undefined,1280 x 720,1280 x 720
S011,20,Vrouwelijk,Rechts,2,70,left,no,800,leftarrow,1182,true,focus,yes,487632,Chrome,111.0,Windows,10,undefined,undefined,1280 x 720,1280 x 720
S011,20,Vrouwelijk,Rechts,2,71,right,no,800,undefined,null,false,focus,yes,489655,Chrome,111.0,Windows,10,undefined,undefined,1280 x 720,1280 x 720
S011,20,Vrouwelijk,Rechts,2,72,right,no,800,rightarrow,1116,true,focus,yes,491531,Chrome,111.0,Windows,10,undefined,undefined,1280 x 720,1280 x 720
S011,20,Vrouwelijk,Rechts,2,73,left,no,800,leftarrow,1109,true,focus,yes,493415,Chrome,111.0,Windows,10,undefined,undefined,1280 x 720,1280 x 720
S011,20,Vrouwelijk,Rechts,2,74,left,no,800,leftarrow,986,true,focus,yes,495162,Chrome,111.0,Windows,10,undefined,undefined,1280 x 720,1280 x 720
S011,20,Vrouwelijk,Rechts,2,75,left,no,800,leftarrow,1166,true,focus,yes,497091,Chrome,111.0,Windows,10,undefined,undefined,1280 x 720,1280 x 720
S011,20,Vrouwelijk,Rechts,2,76,right,yes,800,rightarrow,685,false,focus,yes,498540,Chrome,111.0,Windows,10,undefined,undefined,1280 x 720,1280 x 720
S011,20,Vrouwelijk,Rechts,2,77,left,yes,750,leftarrow,799,false,focus,yes,500114,Chrome,111.0,Windows,10,undefined,undefined,1280 x 720,1280 x 720
S011,20,Vrouwelijk,Rechts,2,78,right,no,700,rightarrow,785,true,focus,yes,501668,Chrome,111.0,Windows,10,undefined,undefined,1280 x 720,1280 x 720
S011,20,Vrouwelijk,Rechts,2,79,right,no,700,rightarrow,911,true,focus,yes,503345,Chrome,111.0,Windows,10,undefined,undefined,1280 x 720,1280 x 720
S011,20,Vrouwelijk,Rechts,2,80,right,no,700,rightarrow,1092,true,focus,yes,505209,Chrome,111.0,Windows,10,undefined,undefined,1280 x 720,1280 x 720
S011,20,Vrouwelijk,Rechts,2,81,left,no,700,leftarrow,1214,true,focus,yes,507191,Chrome,111.0,Windows,10,undefined,undefined,1280 x 720,1280 x 720
S011,20,Vrouwelijk,Rechts,2,82,right,no,700,undefined,null,false,focus,yes,509223,Chrome,111.0,Windows,10,undefined,undefined,1280 x 720,1280 x 720
S011,20,Vrouwelijk,Rechts,2,83,right,no,700,undefined,null,false,focus,yes,511243,Chrome,111.0,Windows,10,undefined,undefined,1280 x 720,1280 x 720
S011,20,Vrouwelijk,Rechts,2,84,right,no,700,rightarrow,1034,true,focus,yes,513045,Chrome,111.0,Windows,10,undefined,undefined,1280 x 720,1280 x 720
S011,20,Vrouwelijk,Rechts,2,85,right,yes,700,rightarrow,758,false,focus,yes,514579,Chrome,111.0,Windows,10,undefined,undefined,1280 x 720,1280 x 720
S011,20,Vrouwelijk,Rechts,2,86,left,yes,650,undefined,null,true,focus,yes,516598,Chrome,111.0,Windows,10,undefined,undefined,1280 x 720,1280 x 720
S011,20,Vrouwelijk,Rechts,2,87,left,no,700,leftarrow,798,true,focus,yes,518164,Chrome,111.0,Windows,10,undefined,undefined,1280 x 720,1280 x 720
S011,20,Vrouwelijk,Rechts,2,88,left,no,700,leftarrow,1042,true,focus,yes,519973,Chrome,111.0,Windows,10,undefined,undefined,1280 x 720,1280 x 720
S011,20,Vrouwelijk,Rechts,2,89,right,no,700,rightarrow,1110,true,focus,yes,521846,Chrome,111.0,Windows,10,undefined,undefined,1280 x 720,1280 x 720
S011,20,Vrouwelijk,Rechts,2,90,right,no,700,rightarrow,952,true,focus,yes,523562,Chrome,111.0,Windows,10,undefined,undefined,1280 x 720,1280 x 720
S011,20,Vrouwelijk,Rechts,2,91,right,no,700,rightarrow,976,true,focus,yes,525304,Chrome,111.0,Windows,10,undefined,undefined,1280 x 720,1280 x 720
S011,20,Vrouwelijk,Rechts,2,92,left,yes,700,undefined,null,true,focus,yes,527328,Chrome,111.0,Windows,10,undefined,undefined,1280 x 720,1280 x 720
S011,20,Vrouwelijk,Rechts,2,93,left,no,750,leftarrow,896,true,focus,yes,528992,Chrome,111.0,Windows,10,undefined,undefined,1280 x 720,1280 x 720
S011,20,Vrouwelijk,Rechts,2,94,right,yes,750,undefined,null,true,focus,yes,531039,Chrome,111.0,Windows,10,undefined,undefined,1280 x 720,1280 x 720
S011,20,Vrouwelijk,Rechts,2,95,left,no,800,leftarrow,772,true,focus,yes,532579,Chrome,111.0,Windows,10,undefined,undefined,1280 x 720,1280 x 720
S011,20,Vrouwelijk,Rechts,2,96,left,no,800,leftarrow,977,true,focus,yes,534319,Chrome,111.0,Windows,10,undefined,undefined,1280 x 720,1280 x 720
S011,20,Vrouwelijk,Rechts,2,97,right,no,800,rightarrow,1120,true,focus,yes,536210,Chrome,111.0,Windows,10,undefined,undefined,1280 x 720,1280 x 720
S011,20,Vrouwelijk,Rechts,2,98,right,no,800,rightarrow,901,true,focus,yes,537882,Chrome,111.0,Windows,10,undefined,undefined,1280 x 720,1280 x 720
S011,20,Vrouwelijk,Rechts,2,99,left,yes,800,leftarrow,924,false,focus,yes,539573,Chrome,111.0,Windows,10,undefined,undefined,1280 x 720,1280 x 720
S011,20,Vrouwelijk,Rechts,2,100,right,no,750,rightarrow,992,true,focus,yes,541328,Chrome,111.0,Windows,10,undefined,undefined,1280 x 720,1280 x 720
S011,20,Vrouwelijk,Rechts,2,101,left,no,750,leftarrow,1101,true,focus,yes,543201,Chrome,111.0,Windows,10,undefined,undefined,1280 x 720,1280 x 720
S011,20,Vrouwelijk,Rechts,2,102,left,no,750,leftarrow,1045,true,focus,yes,545018,Chrome,111.0,Windows,10,undefined,undefined,1280 x 720,1280 x 720
S011,20,Vrouwelijk,Rechts,2,103,left,no,750,leftarrow,1013,true,focus,yes,546792,Chrome,111.0,Windows,10,undefined,undefined,1280 x 720,1280 x 720
S011,20,Vrouwelijk,Rechts,2,104,right,yes,750,rightarrow,939,false,focus,yes,548499,Chrome,111.0,Windows,10,undefined,undefined,1280 x 720,1280 x 720
S011,20,Vrouwelijk,Rechts,2,105,left,yes,700,undefined,null,true,focus,yes,550518,Chrome,111.0,Windows,10,undefined,undefined,1280 x 720,1280 x 720
S011,20,Vrouwelijk,Rechts,2,106,left,no,750,leftarrow,964,true,focus,yes,552250,Chrome,111.0,Windows,10,undefined,undefined,1280 x 720,1280 x 720
S011,20,Vrouwelijk,Rechts,2,107,right,no,750,rightarrow,1122,true,focus,yes,554139,Chrome,111.0,Windows,10,undefined,undefined,1280 x 720,1280 x 720
S011,20,Vrouwelijk,Rechts,2,108,left,no,750,leftarrow,1030,true,focus,yes,555930,Chrome,111.0,Windows,10,undefined,undefined,1280 x 720,1280 x 720
S011,20,Vrouwelijk,Rechts,2,109,left,no,750,leftarrow,1173,true,focus,yes,557869,Chrome,111.0,Windows,10,undefined,undefined,1280 x 720,1280 x 720
S011,20,Vrouwelijk,Rechts,2,110,right,no,750,rightarrow,1240,true,focus,yes,559884,Chrome,111.0,Windows,10,undefined,undefined,1280 x 720,1280 x 720
S011,20,Vrouwelijk,Rechts,2,111,right,no,750,undefined,null,false,focus,yes,561905,Chrome,111.0,Windows,10,undefined,undefined,1280 x 720,1280 x 720
S011,20,Vrouwelijk,Rechts,2,112,right,yes,750,undefined,null,true,focus,yes,563925,Chrome,111.0,Windows,10,undefined,undefined,1280 x 720,1280 x 720
S011,20,Vrouwelijk,Rechts,2,113,right,no,800,rightarrow,910,true,focus,yes,565602,Chrome,111.0,Windows,10,undefined,undefined,1280 x 720,1280 x 720
S011,20,Vrouwelijk,Rechts,2,114,right,no,800,rightarrow,871,true,focus,yes,567240,Chrome,111.0,Windows,10,undefined,undefined,1280 x 720,1280 x 720
S011,20,Vrouwelijk,Rechts,2,115,left,yes,800,leftarrow,1014,false,focus,yes,569020,Chrome,111.0,Windows,10,undefined,undefined,1280 x 720,1280 x 720
S011,20,Vrouwelijk,Rechts,2,116,right,yes,750,rightarrow,921,false,focus,yes,570707,Chrome,111.0,Windows,10,undefined,undefined,1280 x 720,1280 x 720
S011,20,Vrouwelijk,Rechts,2,117,left,no,700,leftarrow,880,true,focus,yes,572352,Chrome,111.0,Windows,10,undefined,undefined,1280 x 720,1280 x 720
S011,20,Vrouwelijk,Rechts,2,118,left,no,700,leftarrow,907,true,focus,yes,574023,Chrome,111.0,Windows,10,undefined,undefined,1280 x 720,1280 x 720
S011,20,Vrouwelijk,Rechts,2,119,right,no,700,rightarrow,1033,true,focus,yes,575836,Chrome,111.0,Windows,10,undefined,undefined,1280 x 720,1280 x 720
S011,20,Vrouwelijk,Rechts,2,120,left,no,700,leftarrow,1058,true,focus,yes,577656,Chrome,111.0,Windows,10,undefined,undefined,1280 x 720,1280 x 720
S011,20,Vrouwelijk,Rechts,2,121,left,yes,700,undefined,null,true,focus,yes,579676,Chrome,111.0,Windows,10,undefined,undefined,1280 x 720,1280 x 720
S011,20,Vrouwelijk,Rechts,2,122,right,yes,750,rightarrow,852,false,focus,yes,581297,Chrome,111.0,Windows,10,undefined,undefined,1280 x 720,1280 x 720
S011,20,Vrouwelijk,Rechts,2,123,left,no,700,leftarrow,880,true,focus,yes,582953,Chrome,111.0,Windows,10,undefined,undefined,1280 x 720,1280 x 720
S011,20,Vrouwelijk,Rechts,2,124,right,no,700,rightarrow,997,true,focus,yes,584724,Chrome,111.0,Windows,10,undefined,undefined,1280 x 720,1280 x 720
S011,20,Vrouwelijk,Rechts,2,125,right,no,700,rightarrow,1110,true,focus,yes,586603,Chrome,111.0,Windows,10,undefined,undefined,1280 x 720,1280 x 720
S011,20,Vrouwelijk,Rechts,2,126,left,no,700,leftarrow,1133,true,focus,yes,588513,Chrome,111.0,Windows,10,undefined,undefined,1280 x 720,1280 x 720
S011,20,Vrouwelijk,Rechts,2,127,left,no,700,leftarrow,1197,true,focus,yes,590478,Chrome,111.0,Windows,10,undefined,undefined,1280 x 720,1280 x 720
S011,20,Vrouwelijk,Rechts,2,128,right,no,700,rightarrow,1064,true,focus,yes,592301,Chrome,111.0,Windows,10,undefined,undefined,1280 x 720,1280 x 720
S011,20,Vrouwelijk,Rechts,3,1,right,no,700,rightarrow,821,true,focus,yes,612186,Chrome,111.0,Windows,10,undefined,undefined,1280 x 720,1280 x 720
S011,20,Vrouwelijk,Rechts,3,2,right,no,700,rightarrow,909,true,focus,yes,613848,Chrome,111.0,Windows,10,undefined,undefined,1280 x 720,1280 x 720
S011,20,Vrouwelijk,Rechts,3,3,left,no,700,leftarrow,1179,true,focus,yes,615793,Chrome,111.0,Windows,10,undefined,undefined,1280 x 720,1280 x 720
S011,20,Vrouwelijk,Rechts,3,4,left,yes,700,undefined,null,true,focus,yes,617814,Chrome,111.0,Windows,10,undefined,undefined,1280 x 720,1280 x 720
S011,20,Vrouwelijk,Rechts,3,5,left,no,750,leftarrow,936,true,focus,yes,619519,Chrome,111.0,Windows,10,undefined,undefined,1280 x 720,1280 x 720
S011,20,Vrouwelijk,Rechts,3,6,left,no,750,leftarrow,947,true,focus,yes,621247,Chrome,111.0,Windows,10,undefined,undefined,1280 x 720,1280 x 720
S011,20,Vrouwelijk,Rechts,3,7,right,no,750,rightarrow,832,true,focus,yes,622853,Chrome,111.0,Windows,10,undefined,undefined,1280 x 720,1280 x 720
S011,20,Vrouwelijk,Rechts,3,8,right,yes,750,rightarrow,935,false,focus,yes,624548,Chrome,111.0,Windows,10,undefined,undefined,1280 x 720,1280 x 720
S011,20,Vrouwelijk,Rechts,3,9,left,no,700,leftarrow,901,true,focus,yes,626221,Chrome,111.0,Windows,10,undefined,undefined,1280 x 720,1280 x 720
S011,20,Vrouwelijk,Rechts,3,10,left,no,700,leftarrow,1065,true,focus,yes,628055,Chrome,111.0,Windows,10,undefined,undefined,1280 x 720,1280 x 720
S011,20,Vrouwelijk,Rechts,3,11,left,yes,700,leftarrow,739,false,focus,yes,629572,Chrome,111.0,Windows,10,undefined,undefined,1280 x 720,1280 x 720
S011,20,Vrouwelijk,Rechts,3,12,right,no,650,rightarrow,981,true,focus,yes,631316,Chrome,111.0,Windows,10,undefined,undefined,1280 x 720,1280 x 720
S011,20,Vrouwelijk,Rechts,3,13,right,no,650,rightarrow,903,true,focus,yes,632988,Chrome,111.0,Windows,10,undefined,undefined,1280 x 720,1280 x 720
S011,20,Vrouwelijk,Rechts,3,14,left,no,650,leftarrow,941,true,focus,yes,634711,Chrome,111.0,Windows,10,undefined,undefined,1280 x 720,1280 x 720
S011,20,Vrouwelijk,Rechts,3,15,right,no,650,rightarrow,923,true,focus,yes,636394,Chrome,111.0,Windows,10,undefined,undefined,1280 x 720,1280 x 720
S011,20,Vrouwelijk,Rechts,3,16,right,yes,650,undefined,null,true,focus,yes,638430,Chrome,111.0,Windows,10,undefined,undefined,1280 x 720,1280 x 720
S011,20,Vrouwelijk,Rechts,3,17,right,yes,700,rightarrow,924,false,focus,yes,640123,Chrome,111.0,Windows,10,undefined,undefined,1280 x 720,1280 x 720
S011,20,Vrouwelijk,Rechts,3,18,left,no,650,leftarrow,1137,true,focus,yes,642027,Chrome,111.0,Windows,10,undefined,undefined,1280 x 720,1280 x 720
S011,20,Vrouwelijk,Rechts,3,19,right,no,650,rightarrow,954,true,focus,yes,643760,Chrome,111.0,Windows,10,undefined,undefined,1280 x 720,1280 x 720
S011,20,Vrouwelijk,Rechts,3,20,left,yes,650,undefined,null,true,focus,yes,645791,Chrome,111.0,Windows,10,undefined,undefined,1280 x 720,1280 x 720
S011,20,Vrouwelijk,Rechts,3,21,left,no,700,leftarrow,827,true,focus,yes,647385,Chrome,111.0,Windows,10,undefined,undefined,1280 x 720,1280 x 720
S011,20,Vrouwelijk,Rechts,3,22,left,no,700,leftarrow,903,true,focus,yes,649058,Chrome,111.0,Windows,10,undefined,undefined,1280 x 720,1280 x 720
S011,20,Vrouwelijk,Rechts,3,23,right,no,700,rightarrow,1027,true,focus,yes,650859,Chrome,111.0,Windows,10,undefined,undefined,1280 x 720,1280 x 720
S011,20,Vrouwelijk,Rechts,3,24,right,no,700,rightarrow,1130,true,focus,yes,652751,Chrome,111.0,Windows,10,undefined,undefined,1280 x 720,1280 x 720
S011,20,Vrouwelijk,Rechts,3,25,left,no,700,leftarrow,874,true,focus,yes,654399,Chrome,111.0,Windows,10,undefined,undefined,1280 x 720,1280 x 720
S011,20,Vrouwelijk,Rechts,3,26,right,no,700,rightarrow,970,true,focus,yes,656135,Chrome,111.0,Windows,10,undefined,undefined,1280 x 720,1280 x 720
S011,20,Vrouwelijk,Rechts,3,27,right,no,700,rightarrow,934,true,focus,yes,657833,Chrome,111.0,Windows,10,undefined,undefined,1280 x 720,1280 x 720
S011,20,Vrouwelijk,Rechts,3,28,right,no,700,rightarrow,1028,true,focus,yes,659631,Chrome,111.0,Windows,10,undefined,undefined,1280 x 720,1280 x 720
S011,20,Vrouwelijk,Rechts,3,29,left,yes,700,undefined,null,true,focus,yes,661652,Chrome,111.0,Windows,10,undefined,undefined,1280 x 720,1280 x 720
S011,20,Vrouwelijk,Rechts,3,30,left,no,750,leftarrow,876,true,focus,yes,663295,Chrome,111.0,Windows,10,undefined,undefined,1280 x 720,1280 x 720
S011,20,Vrouwelijk,Rechts,3,31,left,no,750,leftarrow,1071,true,focus,yes,665129,Chrome,111.0,Windows,10,undefined,undefined,1280 x 720,1280 x 720
S011,20,Vrouwelijk,Rechts,3,32,right,yes,750,rightarrow,1035,false,focus,yes,666938,Chrome,111.0,Windows,10,undefined,undefined,1280 x 720,1280 x 720
S011,20,Vrouwelijk,Rechts,3,33,left,no,700,leftarrow,1094,true,focus,yes,668800,Chrome,111.0,Windows,10,undefined,undefined,1280 x 720,1280 x 720
S011,20,Vrouwelijk,Rechts,3,34,left,yes,700,undefined,null,true,focus,yes,670817,Chrome,111.0,Windows,10,undefined,undefined,1280 x 720,1280 x 720
S011,20,Vrouwelijk,Rechts,3,35,right,no,750,rightarrow,962,true,focus,yes,672547,Chrome,111.0,Windows,10,undefined,undefined,1280 x 720,1280 x 720
S011,20,Vrouwelijk,Rechts,3,36,right,yes,750,undefined,null,true,focus,yes,674584,Chrome,111.0,Windows,10,undefined,undefined,1280 x 720,1280 x 720
S011,20,Vrouwelijk,Rechts,3,37,left,no,800,leftarrow,934,true,focus,yes,676285,Chrome,111.0,Windows,10,undefined,undefined,1280 x 720,1280 x 720
S011,20,Vrouwelijk,Rechts,3,38,left,no,800,leftarrow,841,true,focus,yes,677895,Chrome,111.0,Windows,10,undefined,undefined,1280 x 720,1280 x 720
S011,20,Vrouwelijk,Rechts,3,39,right,no,800,rightarrow,885,true,focus,yes,679553,Chrome,111.0,Windows,10,undefined,undefined,1280 x 720,1280 x 720
S011,20,Vrouwelijk,Rechts,3,40,right,no,800,rightarrow,1019,true,focus,yes,681340,Chrome,111.0,Windows,10,undefined,undefined,1280 x 720,1280 x 720
S011,20,Vrouwelijk,Rechts,3,41,left,no,800,leftarrow,1093,true,focus,yes,683194,Chrome,111.0,Windows,10,undefined,undefined,1280 x 720,1280 x 720
S011,20,Vrouwelijk,Rechts,3,42,left,no,800,leftarrow,1095,true,focus,yes,685068,Chrome,111.0,Windows,10,undefined,undefined,1280 x 720,1280 x 720
S011,20,Vrouwelijk,Rechts,3,43,right,yes,800,rightarrow,997,false,focus,yes,686839,Chrome,111.0,Windows,10,undefined,undefined,1280 x 720,1280 x 720
S011,20,Vrouwelijk,Rechts,3,44,right,no,750,rightarrow,1000,true,focus,yes,688607,Chrome,111.0,Windows,10,undefined,undefined,1280 x 720,1280 x 720
S011,20,Vrouwelijk,Rechts,3,45,left,yes,750,undefined,null,true,focus,yes,690638,Chrome,111.0,Windows,10,undefined,undefined,1280 x 720,1280 x 720
S011,20,Vrouwelijk,Rechts,3,46,left,no,800,leftarrow,833,true,focus,yes,692255,Chrome,111.0,Windows,10,undefined,undefined,1280 x 720,1280 x 720
S011,20,Vrouwelijk,Rechts,3,47,right,no,800,rightarrow,1083,true,focus,yes,694117,Chrome,111.0,Windows,10,undefined,undefined,1280 x 720,1280 x 720
S011,20,Vrouwelijk,Rechts,3,48,right,no,800,rightarrow,855,true,focus,yes,695743,Chrome,111.0,Windows,10,undefined,undefined,1280 x 720,1280 x 720
S011,20,Vrouwelijk,Rechts,3,49,right,yes,800,undefined,null,true,focus,yes,697767,Chrome,111.0,Windows,10,undefined,undefined,1280 x 720,1280 x 720
S011,20,Vrouwelijk,Rechts,3,50,left,yes,850,leftarrow,985,false,focus,yes,699520,Chrome,111.0,Windows,10,undefined,undefined,1280 x 720,1280 x 720
S011,20,Vrouwelijk,Rechts,3,51,right,no,800,rightarrow,1139,true,focus,yes,701424,Chrome,111.0,Windows,10,undefined,undefined,1280 x 720,1280 x 720
S011,20,Vrouwelijk,Rechts,3,52,left,no,800,leftarrow,1069,true,focus,yes,703256,Chrome,111.0,Windows,10,undefined,undefined,1280 x 720,1280 x 720
S011,20,Vrouwelijk,Rechts,3,53,right,no,800,rightarrow,1021,true,focus,yes,705049,Chrome,111.0,Windows,10,undefined,undefined,1280 x 720,1280 x 720
S011,20,Vrouwelijk,Rechts,3,54,left,no,800,undefined,null,false,focus,yes,707074,Chrome,111.0,Windows,10,undefined,undefined,1280 x 720,1280 x 720
S011,20,Vrouwelijk,Rechts,3,55,right,no,800,rightarrow,865,true,focus,yes,708707,Chrome,111.0,Windows,10,undefined,undefined,1280 x 720,1280 x 720
S011,20,Vrouwelijk,Rechts,3,56,left,no,800,leftarrow,1103,true,focus,yes,710588,Chrome,111.0,Windows,10,undefined,undefined,1280 x 720,1280 x 720
S011,20,Vrouwelijk,Rechts,3,57,left,no,800,leftarrow,1097,true,focus,yes,712453,Chrome,111.0,Windows,10,undefined,undefined,1280 x 720,1280 x 720
S011,20,Vrouwelijk,Rechts,3,58,left,no,800,leftarrow,911,true,focus,yes,714150,Chrome,111.0,Windows,10,undefined,undefined,1280 x 720,1280 x 720
S011,20,Vrouwelijk,Rechts,3,59,right,yes,800,rightarrow,842,false,focus,yes,715756,Chrome,111.0,Windows,10,undefined,undefined,1280 x 720,1280 x 720
S011,20,Vrouwelijk,Rechts,3,60,right,no,750,rightarrow,1045,true,focus,yes,717571,Chrome,111.0,Windows,10,undefined,undefined,1280 x 720,1280 x 720
S011,20,Vrouwelijk,Rechts,3,61,left,yes,750,undefined,null,true,focus,yes,719589,Chrome,111.0,Windows,10,undefined,undefined,1280 x 720,1280 x 720
S011,20,Vrouwelijk,Rechts,3,62,right,no,800,rightarrow,879,true,focus,yes,721237,Chrome,111.0,Windows,10,undefined,undefined,1280 x 720,1280 x 720
S011,20,Vrouwelijk,Rechts,3,63,left,no,800,leftarrow,689,true,focus,yes,722686,Chrome,111.0,Windows,10,undefined,undefined,1280 x 720,1280 x 720
S011,20,Vrouwelijk,Rechts,3,64,right,no,800,rightarrow,1126,true,focus,yes,724584,Chrome,111.0,Windows,10,undefined,undefined,1280 x 720,1280 x 720
S011,20,Vrouwelijk,Rechts,3,65,left,no,800,leftarrow,1202,true,focus,yes,726561,Chrome,111.0,Windows,10,undefined,undefined,1280 x 720,1280 x 720
S011,20,Vrouwelijk,Rechts,3,66,left,no,800,leftarrow,669,true,focus,yes,728004,Chrome,111.0,Windows,10,undefined,undefined,1280 x 720,1280 x 720
S011,20,Vrouwelijk,Rechts,3,67,left,no,800,leftarrow,794,true,focus,yes,729576,Chrome,111.0,Windows,10,undefined,undefined,1280 x 720,1280 x 720
S011,20,Vrouwelijk,Rechts,3,68,right,yes,800,rightarrow,994,false,focus,yes,731341,Chrome,111.0,Windows,10,undefined,undefined,1280 x 720,1280 x 720
S011,20,Vrouwelijk,Rechts,3,69,left,yes,750,leftarrow,1022,false,focus,yes,733134,Chrome,111.0,Windows,10,undefined,undefined,1280 x 720,1280 x 720
S011,20,Vrouwelijk,Rechts,3,70,right,no,700,rightarrow,1008,true,focus,yes,734915,Chrome,111.0,Windows,10,undefined,undefined,1280 x 720,1280 x 720
S011,20,Vrouwelijk,Rechts,3,71,right,no,700,rightarrow,932,true,focus,yes,736618,Chrome,111.0,Windows,10,undefined,undefined,1280 x 720,1280 x 720
S011,20,Vrouwelijk,Rechts,3,72,right,no,700,rightarrow,1155,true,focus,yes,738543,Chrome,111.0,Windows,10,undefined,undefined,1280 x 720,1280 x 720
S011,20,Vrouwelijk,Rechts,3,73,right,no,700,rightarrow,1087,true,focus,yes,740391,Chrome,111.0,Windows,10,undefined,undefined,1280 x 720,1280 x 720
S011,20,Vrouwelijk,Rechts,3,74,left,no,700,leftarrow,1147,true,focus,yes,742309,Chrome,111.0,Windows,10,undefined,undefined,1280 x 720,1280 x 720
S011,20,Vrouwelijk,Rechts,3,75,left,no,700,leftarrow,1098,true,focus,yes,744174,Chrome,111.0,Windows,10,undefined,undefined,1280 x 720,1280 x 720
S011,20,Vrouwelijk,Rechts,3,76,left,no,700,leftarrow,910,true,focus,yes,745854,Chrome,111.0,Windows,10,undefined,undefined,1280 x 720,1280 x 720
S011,20,Vrouwelijk,Rechts,3,77,right,yes,700,undefined,null,true,focus,yes,747872,Chrome,111.0,Windows,10,undefined,undefined,1280 x 720,1280 x 720
S011,20,Vrouwelijk,Rechts,3,78,right,no,750,rightarrow,1032,true,focus,yes,749673,Chrome,111.0,Windows,10,undefined,undefined,1280 x 720,1280 x 720
S011,20,Vrouwelijk,Rechts,3,79,right,no,750,undefined,null,false,focus,yes,751704,Chrome,111.0,Windows,10,undefined,undefined,1280 x 720,1280 x 720
S011,20,Vrouwelijk,Rechts,3,80,left,yes,750,leftarrow,880,false,focus,yes,753353,Chrome,111.0,Windows,10,undefined,undefined,1280 x 720,1280 x 720
S011,20,Vrouwelijk,Rechts,3,81,left,no,700,leftarrow,1016,true,focus,yes,755147,Chrome,111.0,Windows,10,undefined,undefined,1280 x 720,1280 x 720
S011,20,Vrouwelijk,Rechts,3,82,left,yes,700,undefined,null,true,focus,yes,757194,Chrome,111.0,Windows,10,undefined,undefined,1280 x 720,1280 x 720
S011,20,Vrouwelijk,Rechts,3,83,left,no,750,leftarrow,658,true,focus,yes,758620,Chrome,111.0,Windows,10,undefined,undefined,1280 x 720,1280 x 720
S011,20,Vrouwelijk,Rechts,3,84,right,yes,750,undefined,null,true,focus,yes,760644,Chrome,111.0,Windows,10,undefined,undefined,1280 x 720,1280 x 720
S011,20,Vrouwelijk,Rechts,3,85,left,no,800,leftarrow,815,true,focus,yes,762227,Chrome,111.0,Windows,10,undefined,undefined,1280 x 720,1280 x 720
S011,20,Vrouwelijk,Rechts,3,86,right,no,800,rightarrow,808,true,focus,yes,763801,Chrome,111.0,Windows,10,undefined,undefined,1280 x 720,1280 x 720
S011,20,Vrouwelijk,Rechts,3,87,right,no,800,rightarrow,990,true,focus,yes,765581,Chrome,111.0,Windows,10,undefined,undefined,1280 x 720,1280 x 720
S011,20,Vrouwelijk,Rechts,3,88,right,no,800,rightarrow,973,true,focus,yes,767328,Chrome,111.0,Windows,10,undefined,undefined,1280 x 720,1280 x 720
S011,20,Vrouwelijk,Rechts,3,89,left,no,800,leftarrow,1064,true,focus,yes,769168,Chrome,111.0,Windows,10,undefined,undefined,1280 x 720,1280 x 720
S011,20,Vrouwelijk,Rechts,3,90,right,no,800,rightarrow,1058,true,focus,yes,770999,Chrome,111.0,Windows,10,undefined,undefined,1280 x 720,1280 x 720
S011,20,Vrouwelijk,Rechts,3,91,right,no,800,rightarrow,958,true,focus,yes,772726,Chrome,111.0,Windows,10,undefined,undefined,1280 x 720,1280 x 720
S011,20,Vrouwelijk,Rechts,3,92,left,no,800,leftarrow,889,true,focus,yes,774405,Chrome,111.0,Windows,10,undefined,undefined,1280 x 720,1280 x 720
S011,20,Vrouwelijk,Rechts,3,93,right,no,800,rightarrow,1066,true,focus,yes,776237,Chrome,111.0,Windows,10,undefined,undefined,1280 x 720,1280 x 720
S011,20,Vrouwelijk,Rechts,3,94,left,no,800,leftarrow,1051,true,focus,yes,778050,Chrome,111.0,Windows,10,undefined,undefined,1280 x 720,1280 x 720
S011,20,Vrouwelijk,Rechts,3,95,right,yes,800,rightarrow,851,false,focus,yes,779675,Chrome,111.0,Windows,10,undefined,undefined,1280 x 720,1280 x 720
S011,20,Vrouwelijk,Rechts,3,96,left,yes,750,undefined,null,true,focus,yes,781704,Chrome,111.0,Windows,10,undefined,undefined,1280 x 720,1280 x 720
S011,20,Vrouwelijk,Rechts,3,97,right,no,800,rightarrow,895,true,focus,yes,783369,Chrome,111.0,Windows,10,undefined,undefined,1280 x 720,1280 x 720
S011,20,Vrouwelijk,Rechts,3,98,left,yes,800,undefined,null,true,focus,yes,785399,Chrome,111.0,Windows,10,undefined,undefined,1280 x 720,1280 x 720
S011,20,Vrouwelijk,Rechts,3,99,right,no,850,rightarrow,941,true,focus,yes,787111,Chrome,111.0,Windows,10,undefined,undefined,1280 x 720,1280 x 720
S011,20,Vrouwelijk,Rechts,3,100,left,no,850,leftarrow,835,true,focus,yes,788721,Chrome,111.0,Windows,10,undefined,undefined,1280 x 720,1280 x 720
S011,20,Vrouwelijk,Rechts,3,101,right,yes,850,rightarrow,987,false,focus,yes,790484,Chrome,111.0,Windows,10,undefined,undefined,1280 x 720,1280 x 720
S011,20,Vrouwelijk,Rechts,3,102,left,no,800,leftarrow,1078,true,focus,yes,792339,Chrome,111.0,Windows,10,undefined,undefined,1280 x 720,1280 x 720
S011,20,Vrouwelijk,Rechts,3,103,right,no,800,rightarrow,1107,true,focus,yes,794238,Chrome,111.0,Windows,10,undefined,undefined,1280 x 720,1280 x 720
S011,20,Vrouwelijk,Rechts,3,104,left,no,800,leftarrow,1161,true,focus,yes,796161,Chrome,111.0,Windows,10,undefined,undefined,1280 x 720,1280 x 720
S011,20,Vrouwelijk,Rechts,3,105,right,no,800,rightarrow,1086,true,focus,yes,798018,Chrome,111.0,Windows,10,undefined,undefined,1280 x 720,1280 x 720
S011,20,Vrouwelijk,Rechts,3,106,right,no,800,rightarrow,1136,true,focus,yes,799935,Chrome,111.0,Windows,10,undefined,undefined,1280 x 720,1280 x 720
S011,20,Vrouwelijk,Rechts,3,107,left,no,800,leftarrow,746,true,focus,yes,801450,Chrome,111.0,Windows,10,undefined,undefined,1280 x 720,1280 x 720
S011,20,Vrouwelijk,Rechts,3,108,left,no,800,leftarrow,767,true,focus,yes,802992,Chrome,111.0,Windows,10,undefined,undefined,1280 x 720,1280 x 720
S011,20,Vrouwelijk,Rechts,3,109,left,no,800,leftarrow,707,true,focus,yes,804465,Chrome,111.0,Windows,10,undefined,undefined,1280 x 720,1280 x 720
S011,20,Vrouwelijk,Rechts,3,110,left,yes,800,leftarrow,843,false,focus,yes,806076,Chrome,111.0,Windows,10,undefined,undefined,1280 x 720,1280 x 720
S011,20,Vrouwelijk,Rechts,3,111,right,no,750,rightarrow,901,true,focus,yes,807743,Chrome,111.0,Windows,10,undefined,undefined,1280 x 720,1280 x 720
S011,20,Vrouwelijk,Rechts,3,112,right,yes,750,rightarrow,824,false,focus,yes,809342,Chrome,111.0,Windows,10,undefined,undefined,1280 x 720,1280 x 720
S011,20,Vrouwelijk,Rechts,3,113,left,yes,700,undefined,null,true,focus,yes,811367,Chrome,111.0,Windows,10,undefined,undefined,1280 x 720,1280 x 720
S011,20,Vrouwelijk,Rechts,3,114,right,yes,750,undefined,null,true,focus,yes,813391,Chrome,111.0,Windows,10,undefined,undefined,1280 x 720,1280 x 720
S011,20,Vrouwelijk,Rechts,3,115,right,no,800,rightarrow,875,true,focus,yes,815035,Chrome,111.0,Windows,10,undefined,undefined,1280 x 720,1280 x 720
S011,20,Vrouwelijk,Rechts,3,116,left,no,800,leftarrow,1003,true,focus,yes,816817,Chrome,111.0,Windows,10,undefined,undefined,1280 x 720,1280 x 720
S011,20,Vrouwelijk,Rechts,3,117,right,no,800,rightarrow,1104,true,focus,yes,818683,Chrome,111.0,Windows,10,undefined,undefined,1280 x 720,1280 x 720
S011,20,Vrouwelijk,Rechts,3,118,right,no,800,rightarrow,1060,true,focus,yes,820507,Chrome,111.0,Windows,10,undefined,undefined,1280 x 720,1280 x 720
S011,20,Vrouwelijk,Rechts,3,119,left,no,800,leftarrow,1146,true,focus,yes,822421,Chrome,111.0,Windows,10,undefined,undefined,1280 x 720,1280 x 720
S011,20,Vrouwelijk,Rechts,3,120,left,no,800,leftarrow,1151,true,focus,yes,824355,Chrome,111.0,Windows,10,undefined,undefined,1280 x 720,1280 x 720
S011,20,Vrouwelijk,Rechts,3,121,right,no,800,rightarrow,1190,true,focus,yes,826310,Chrome,111.0,Windows,10,undefined,undefined,1280 x 720,1280 x 720
S011,20,Vrouwelijk,Rechts,3,122,left,no,800,leftarrow,1139,true,focus,yes,828223,Chrome,111.0,Windows,10,undefined,undefined,1280 x 720,1280 x 720
S011,20,Vrouwelijk,Rechts,3,123,right,no,800,rightarrow,994,true,focus,yes,829992,Chrome,111.0,Windows,10,undefined,undefined,1280 x 720,1280 x 720
S011,20,Vrouwelijk,Rechts,3,124,left,no,800,leftarrow,1117,true,focus,yes,831881,Chrome,111.0,Windows,10,undefined,undefined,1280 x 720,1280 x 720
S011,20,Vrouwelijk,Rechts,3,125,left,no,800,leftarrow,1083,true,focus,yes,833730,Chrome,111.0,Windows,10,undefined,undefined,1280 x 720,1280 x 720
S011,20,Vrouwelijk,Rechts,3,126,right,no,800,rightarrow,1108,true,focus,yes,835607,Chrome,111.0,Windows,10,undefined,undefined,1280 x 720,1280 x 720
S011,20,Vrouwelijk,Rechts,3,127,right,yes,800,undefined,null,true,focus,yes,837625,Chrome,111.0,Windows,10,undefined,undefined,1280 x 720,1280 x 720
S011,20,Vrouwelijk,Rechts,3,128,left,yes,850,leftarrow,1036,false,focus,yes,839430,Chrome,111.0,Windows,10,undefined,undefined,1280 x 720,1280 x 720
S011,20,Vrouwelijk,Rechts,4,1,left,no,800,leftarrow,857,true,focus,yes,863913,Chrome,111.0,Windows,10,undefined,undefined,1280 x 720,1280 x 720
S011,20,Vrouwelijk,Rechts,4,2,left,no,800,leftarrow,827,true,focus,yes,865511,Chrome,111.0,Windows,10,undefined,undefined,1280 x 720,1280 x 720
S011,20,Vrouwelijk,Rechts,4,3,left,yes,800,leftarrow,856,false,focus,yes,867137,Chrome,111.0,Windows,10,undefined,undefined,1280 x 720,1280 x 720
S011,20,Vrouwelijk,Rechts,4,4,right,no,750,rightarrow,927,true,focus,yes,868836,Chrome,111.0,Windows,10,undefined,undefined,1280 x 720,1280 x 720
S011,20,Vrouwelijk,Rechts,4,5,right,yes,750,rightarrow,894,false,focus,yes,870505,Chrome,111.0,Windows,10,undefined,undefined,1280 x 720,1280 x 720
S011,20,Vrouwelijk,Rechts,4,6,left,no,700,leftarrow,990,true,focus,yes,872256,Chrome,111.0,Windows,10,undefined,undefined,1280 x 720,1280 x 720
S011,20,Vrouwelijk,Rechts,4,7,right,no,700,rightarrow,924,true,focus,yes,873954,Chrome,111.0,Windows,10,undefined,undefined,1280 x 720,1280 x 720
S011,20,Vrouwelijk,Rechts,4,8,right,no,700,rightarrow,821,true,focus,yes,875542,Chrome,111.0,Windows,10,undefined,undefined,1280 x 720,1280 x 720
S011,20,Vrouwelijk,Rechts,4,9,left,no,700,leftarrow,1025,true,focus,yes,877341,Chrome,111.0,Windows,10,undefined,undefined,1280 x 720,1280 x 720
S011,20,Vrouwelijk,Rechts,4,10,left,yes,700,undefined,null,true,focus,yes,879365,Chrome,111.0,Windows,10,undefined,undefined,1280 x 720,1280 x 720
S011,20,Vrouwelijk,Rechts,4,11,right,no,750,rightarrow,1032,true,focus,yes,881166,Chrome,111.0,Windows,10,undefined,undefined,1280 x 720,1280 x 720
S011,20,Vrouwelijk,Rechts,4,12,right,no,750,rightarrow,1017,true,focus,yes,882956,Chrome,111.0,Windows,10,undefined,undefined,1280 x 720,1280 x 720
S011,20,Vrouwelijk,Rechts,4,13,left,no,750,leftarrow,997,true,focus,yes,884716,Chrome,111.0,Windows,10,undefined,undefined,1280 x 720,1280 x 720
S011,20,Vrouwelijk,Rechts,4,14,right,no,750,rightarrow,1010,true,focus,yes,886493,Chrome,111.0,Windows,10,undefined,undefined,1280 x 720,1280 x 720
S011,20,Vrouwelijk,Rechts,4,15,right,yes,750,undefined,null,true,focus,yes,888514,Chrome,111.0,Windows,10,undefined,undefined,1280 x 720,1280 x 720
S011,20,Vrouwelijk,Rechts,4,16,left,no,800,leftarrow,999,true,focus,yes,890282,Chrome,111.0,Windows,10,undefined,undefined,1280 x 720,1280 x 720
S011,20,Vrouwelijk,Rechts,4,17,left,yes,800,leftarrow,1030,false,focus,yes,892076,Chrome,111.0,Windows,10,undefined,undefined,1280 x 720,1280 x 720
S011,20,Vrouwelijk,Rechts,4,18,right,no,750,rightarrow,1100,true,focus,yes,893942,Chrome,111.0,Windows,10,undefined,undefined,1280 x 720,1280 x 720
S011,20,Vrouwelijk,Rechts,4,19,right,yes,750,rightarrow,925,false,focus,yes,895635,Chrome,111.0,Windows,10,undefined,undefined,1280 x 720,1280 x 720
S011,20,Vrouwelijk,Rechts,4,20,left,no,700,leftarrow,1002,true,focus,yes,897404,Chrome,111.0,Windows,10,undefined,undefined,1280 x 720,1280 x 720
S011,20,Vrouwelijk,Rechts,4,21,right,no,700,rightarrow,1056,true,focus,yes,899247,Chrome,111.0,Windows,10,undefined,undefined,1280 x 720,1280 x 720
S011,20,Vrouwelijk,Rechts,4,22,right,no,700,rightarrow,1131,true,focus,yes,901149,Chrome,111.0,Windows,10,undefined,undefined,1280 x 720,1280 x 720
S011,20,Vrouwelijk,Rechts,4,23,left,no,700,leftarrow,708,true,focus,yes,902627,Chrome,111.0,Windows,10,undefined,undefined,1280 x 720,1280 x 720
S011,20,Vrouwelijk,Rechts,4,24,left,no,700,leftarrow,945,true,focus,yes,904340,Chrome,111.0,Windows,10,undefined,undefined,1280 x 720,1280 x 720
S011,20,Vrouwelijk,Rechts,4,25,left,no,700,leftarrow,1024,true,focus,yes,906137,Chrome,111.0,Windows,10,undefined,undefined,1280 x 720,1280 x 720
S011,20,Vrouwelijk,Rechts,4,26,right,no,700,rightarrow,897,true,focus,yes,907805,Chrome,111.0,Windows,10,undefined,undefined,1280 x 720,1280 x 720
S011,20,Vrouwelijk,Rechts,4,27,left,yes,700,undefined,null,true,focus,yes,909835,Chrome,111.0,Windows,10,undefined,undefined,1280 x 720,1280 x 720
S011,20,Vrouwelijk,Rechts,4,28,right,no,750,rightarrow,954,true,focus,yes,911547,Chrome,111.0,Windows,10,undefined,undefined,1280 x 720,1280 x 720
S011,20,Vrouwelijk,Rechts,4,29,left,no,750,leftarrow,843,true,focus,yes,913163,Chrome,111.0,Windows,10,undefined,undefined,1280 x 720,1280 x 720
S011,20,Vrouwelijk,Rechts,4,30,right,yes,750,rightarrow,851,false,focus,yes,914785,Chrome,111.0,Windows,10,undefined,undefined,1280 x 720,1280 x 720
S011,20,Vrouwelijk,Rechts,4,31,right,no,700,rightarrow,811,true,focus,yes,916368,Chrome,111.0,Windows,10,undefined,undefined,1280 x 720,1280 x 720
S011,20,Vrouwelijk,Rechts,4,32,left,no,700,leftarrow,766,true,focus,yes,917904,Chrome,111.0,Windows,10,undefined,undefined,1280 x 720,1280 x 720
S011,20,Vrouwelijk,Rechts,4,33,right,no,700,rightarrow,920,true,focus,yes,919593,Chrome,111.0,Windows,10,undefined,undefined,1280 x 720,1280 x 720
S011,20,Vrouwelijk,Rechts,4,34,right,no,700,rightarrow,985,true,focus,yes,921349,Chrome,111.0,Windows,10,undefined,undefined,1280 x 720,1280 x 720
S011,20,Vrouwelijk,Rechts,4,35,left,no,700,leftarrow,1110,true,focus,yes,923238,Chrome,111.0,Windows,10,undefined,undefined,1280 x 720,1280 x 720
S011,20,Vrouwelijk,Rechts,4,36,left,no,700,leftarrow,1019,true,focus,yes,925047,Chrome,111.0,Windows,10,undefined,undefined,1280 x 720,1280 x 720
S011,20,Vrouwelijk,Rechts,4,37,right,yes,700,undefined,null,true,focus,yes,927074,Chrome,111.0,Windows,10,undefined,undefined,1280 x 720,1280 x 720
S011,20,Vrouwelijk,Rechts,4,38,right,no,750,rightarrow,883,true,focus,yes,928726,Chrome,111.0,Windows,10,undefined,undefined,1280 x 720,1280 x 720
S011,20,Vrouwelijk,Rechts,4,39,left,yes,750,undefined,null,true,focus,yes,930755,Chrome,111.0,Windows,10,undefined,undefined,1280 x 720,1280 x 720
S011,20,Vrouwelijk,Rechts,4,40,left,no,800,leftarrow,822,true,focus,yes,932344,Chrome,111.0,Windows,10,undefined,undefined,1280 x 720,1280 x 720
S011,20,Vrouwelijk,Rechts,4,41,left,no,800,leftarrow,911,true,focus,yes,934031,Chrome,111.0,Windows,10,undefined,undefined,1280 x 720,1280 x 720
S011,20,Vrouwelijk,Rechts,4,42,right,no,800,rightarrow,991,true,focus,yes,935782,Chrome,111.0,Windows,10,undefined,undefined,1280 x 720,1280 x 720
S011,20,Vrouwelijk,Rechts,4,43,right,no,800,rightarrow,797,true,focus,yes,937352,Chrome,111.0,Windows,10,undefined,undefined,1280 x 720,1280 x 720
S011,20,Vrouwelijk,Rechts,4,44,left,yes,800,leftarrow,996,false,focus,yes,939117,Chrome,111.0,Windows,10,undefined,undefined,1280 x 720,1280 x 720
S011,20,Vrouwelijk,Rechts,4,45,left,no,750,leftarrow,886,true,focus,yes,940771,Chrome,111.0,Windows,10,undefined,undefined,1280 x 720,1280 x 720
S011,20,Vrouwelijk,Rechts,4,46,right,yes,750,undefined,null,true,focus,yes,942796,Chrome,111.0,Windows,10,undefined,undefined,1280 x 720,1280 x 720
S011,20,Vrouwelijk,Rechts,4,47,left,no,800,leftarrow,899,true,focus,yes,944463,Chrome,111.0,Windows,10,undefined,undefined,1280 x 720,1280 x 720
S011,20,Vrouwelijk,Rechts,4,48,right,no,800,rightarrow,1032,true,focus,yes,946272,Chrome,111.0,Windows,10,undefined,undefined,1280 x 720,1280 x 720
S011,20,Vrouwelijk,Rechts,4,49,right,yes,800,undefined,null,true,focus,yes,948303,Chrome,111.0,Windows,10,undefined,undefined,1280 x 720,1280 x 720
S011,20,Vrouwelijk,Rechts,4,50,left,no,850,leftarrow,966,true,focus,yes,950036,Chrome,111.0,Windows,10,undefined,undefined,1280 x 720,1280 x 720
S011,20,Vrouwelijk,Rechts,4,51,left,no,850,leftarrow,1005,true,focus,yes,951809,Chrome,111.0,Windows,10,undefined,undefined,1280 x 720,1280 x 720
S011,20,Vrouwelijk,Rechts,4,52,right,no,850,rightarrow,735,true,focus,yes,953316,Chrome,111.0,Windows,10,undefined,undefined,1280 x 720,1280 x 720
S011,20,Vrouwelijk,Rechts,4,53,right,no,850,rightarrow,988,true,focus,yes,955075,Chrome,111.0,Windows,10,undefined,undefined,1280 x 720,1280 x 720
S011,20,Vrouwelijk,Rechts,4,54,right,no,850,rightarrow,975,true,focus,yes,956826,Chrome,111.0,Windows,10,undefined,undefined,1280 x 720,1280 x 720
S011,20,Vrouwelijk,Rechts,4,55,left,yes,850,undefined,null,true,focus,yes,958867,Chrome,111.0,Windows,10,undefined,undefined,1280 x 720,1280 x 720
S011,20,Vrouwelijk,Rechts,4,56,left,no,900,leftarrow,833,true,focus,yes,960468,Chrome,111.0,Windows,10,undefined,undefined,1280 x 720,1280 x 720
S011,20,Vrouwelijk,Rechts,4,57,right,no,900,rightarrow,1003,true,focus,yes,962234,Chrome,111.0,Windows,10,undefined,undefined,1280 x 720,1280 x 720
S011,20,Vrouwelijk,Rechts,4,58,left,no,900,leftarrow,935,true,focus,yes,963931,Chrome,111.0,Windows,10,undefined,undefined,1280 x 720,1280 x 720
S011,20,Vrouwelijk,Rechts,4,59,left,yes,900,undefined,null,true,focus,yes,965969,Chrome,111.0,Windows,10,undefined,undefined,1280 x 720,1280 x 720
S011,20,Vrouwelijk,Rechts,4,60,left,no,950,leftarrow,1058,true,focus,yes,967796,Chrome,111.0,Windows,10,undefined,undefined,1280 x 720,1280 x 720
S011,20,Vrouwelijk,Rechts,4,61,left,no,950,leftarrow,972,true,focus,yes,969531,Chrome,111.0,Windows,10,undefined,undefined,1280 x 720,1280 x 720
S011,20,Vrouwelijk,Rechts,4,62,right,no,950,rightarrow,1000,true,focus,yes,971292,Chrome,111.0,Windows,10,undefined,undefined,1280 x 720,1280 x 720
S011,20,Vrouwelijk,Rechts,4,63,right,yes,950,rightarrow,681,false,focus,yes,972737,Chrome,111.0,Windows,10,undefined,undefined,1280 x 720,1280 x 720
S011,20,Vrouwelijk,Rechts,4,64,right,no,900,rightarrow,1148,true,focus,yes,974650,Chrome,111.0,Windows,10,undefined,undefined,1280 x 720,1280 x 720
S011,20,Vrouwelijk,Rechts,4,65,right,no,900,rightarrow,572,true,focus,yes,975983,Chrome,111.0,Windows,10,undefined,undefined,1280 x 720,1280 x 720
S011,20,Vrouwelijk,Rechts,4,66,left,yes,900,leftarrow,952,false,focus,yes,977704,Chrome,111.0,Windows,10,undefined,undefined,1280 x 720,1280 x 720
S011,20,Vrouwelijk,Rechts,4,67,right,yes,850,rightarrow,1047,false,focus,yes,979517,Chrome,111.0,Windows,10,undefined,undefined,1280 x 720,1280 x 720
S011,20,Vrouwelijk,Rechts,4,68,right,no,800,rightarrow,924,true,focus,yes,981215,Chrome,111.0,Windows,10,undefined,undefined,1280 x 720,1280 x 720
S011,20,Vrouwelijk,Rechts,4,69,right,no,800,rightarrow,916,true,focus,yes,982899,Chrome,111.0,Windows,10,undefined,undefined,1280 x 720,1280 x 720
S011,20,Vrouwelijk,Rechts,4,70,left,no,800,leftarrow,914,true,focus,yes,984582,Chrome,111.0,Windows,10,undefined,undefined,1280 x 720,1280 x 720
S011,20,Vrouwelijk,Rechts,4,71,left,no,800,leftarrow,936,true,focus,yes,986290,Chrome,111.0,Windows,10,undefined,undefined,1280 x 720,1280 x 720
S011,20,Vrouwelijk,Rechts,4,72,left,no,800,leftarrow,810,true,focus,yes,987872,Chrome,111.0,Windows,10,undefined,undefined,1280 x 720,1280 x 720
S011,20,Vrouwelijk,Rechts,4,73,left,no,800,leftarrow,990,true,focus,yes,989632,Chrome,111.0,Windows,10,undefined,undefined,1280 x 720,1280 x 720
S011,20,Vrouwelijk,Rechts,4,74,right,no,800,rightarrow,856,true,focus,yes,991261,Chrome,111.0,Windows,10,undefined,undefined,1280 x 720,1280 x 720
S011,20,Vrouwelijk,Rechts,4,75,right,yes,800,rightarrow,908,false,focus,yes,992938,Chrome,111.0,Windows,10,undefined,undefined,1280 x 720,1280 x 720
S011,20,Vrouwelijk,Rechts,4,76,left,no,750,leftarrow,1048,true,focus,yes,994753,Chrome,111.0,Windows,10,undefined,undefined,1280 x 720,1280 x 720
S011,20,Vrouwelijk,Rechts,4,77,left,yes,750,leftarrow,769,false,focus,yes,996296,Chrome,111.0,Windows,10,undefined,undefined,1280 x 720,1280 x 720
S011,20,Vrouwelijk,Rechts,4,78,right,no,700,rightarrow,1059,true,focus,yes,998136,Chrome,111.0,Windows,10,undefined,undefined,1280 x 720,1280 x 720
S011,20,Vrouwelijk,Rechts,4,79,left,no,700,undefined,null,false,focus,yes,1000156,Chrome,111.0,Windows,10,undefined,undefined,1280 x 720,1280 x 720
S011,20,Vrouwelijk,Rechts,4,80,right,no,700,rightarrow,900,true,focus,yes,1001823,Chrome,111.0,Windows,10,undefined,undefined,1280 x 720,1280 x 720
S011,20,Vrouwelijk,Rechts,4,81,left,no,700,leftarrow,1157,true,focus,yes,1003757,Chrome,111.0,Windows,10,undefined,undefined,1280 x 720,1280 x 720
S011,20,Vrouwelijk,Rechts,4,82,left,no,700,leftarrow,1026,true,focus,yes,1005556,Chrome,111.0,Windows,10,undefined,undefined,1280 x 720,1280 x 720
S011,20,Vrouwelijk,Rechts,4,83,left,yes,700,leftarrow,745,false,focus,yes,1007070,Chrome,111.0,Windows,10,undefined,undefined,1280 x 720,1280 x 720
S011,20,Vrouwelijk,Rechts,4,84,right,no,650,rightarrow,929,true,focus,yes,1008773,Chrome,111.0,Windows,10,undefined,undefined,1280 x 720,1280 x 720
S011,20,Vrouwelijk,Rechts,4,85,right,no,650,rightarrow,800,true,focus,yes,1010346,Chrome,111.0,Windows,10,undefined,undefined,1280 x 720,1280 x 720
S011,20,Vrouwelijk,Rechts,4,86,left,no,650,leftarrow,791,true,focus,yes,1011903,Chrome,111.0,Windows,10,undefined,undefined,1280 x 720,1280 x 720
S011,20,Vrouwelijk,Rechts,4,87,right,yes,650,rightarrow,649,false,focus,yes,1013327,Chrome,111.0,Windows,10,undefined,undefined,1280 x 720,1280 x 720
S011,20,Vrouwelijk,Rechts,4,88,right,no,600,rightarrow,769,true,focus,yes,1014862,Chrome,111.0,Windows,10,undefined,undefined,1280 x 720,1280 x 720
S011,20,Vrouwelijk,Rechts,4,89,right,no,600,rightarrow,731,true,focus,yes,1016356,Chrome,111.0,Windows,10,undefined,undefined,1280 x 720,1280 x 720
S011,20,Vrouwelijk,Rechts,4,90,left,yes,600,undefined,null,true,focus,yes,1018401,Chrome,111.0,Windows,10,undefined,undefined,1280 x 720,1280 x 720
S011,20,Vrouwelijk,Rechts,4,91,right,no,650,rightarrow,831,true,focus,yes,1020001,Chrome,111.0,Windows,10,undefined,undefined,1280 x 720,1280 x 720
S011,20,Vrouwelijk,Rechts,4,92,right,no,650,rightarrow,834,true,focus,yes,1021601,Chrome,111.0,Windows,10,undefined,undefined,1280 x 720,1280 x 720
S011,20,Vrouwelijk,Rechts,4,93,left,no,650,leftarrow,729,true,focus,yes,1023110,Chrome,111.0,Windows,10,undefined,undefined,1280 x 720,1280 x 720
S011,20,Vrouwelijk,Rechts,4,94,left,no,650,leftarrow,696,true,focus,yes,1024578,Chrome,111.0,Windows,10,undefined,undefined,1280 x 720,1280 x 720
S011,20,Vrouwelijk,Rechts,4,95,right,yes,650,undefined,null,true,focus,yes,1026597,Chrome,111.0,Windows,10,undefined,undefined,1280 x 720,1280 x 720
S011,20,Vrouwelijk,Rechts,4,96,left,no,700,leftarrow,594,true,focus,yes,1027959,Chrome,111.0,Windows,10,undefined,undefined,1280 x 720,1280 x 720
S011,20,Vrouwelijk,Rechts,4,97,right,no,700,rightarrow,753,true,focus,yes,1029491,Chrome,111.0,Windows,10,undefined,undefined,1280 x 720,1280 x 720
S011,20,Vrouwelijk,Rechts,4,98,right,no,700,rightarrow,840,true,focus,yes,1031097,Chrome,111.0,Windows,10,undefined,undefined,1280 x 720,1280 x 720
S011,20,Vrouwelijk,Rechts,4,99,left,no,700,leftarrow,1061,true,focus,yes,1032930,Chrome,111.0,Windows,10,undefined,undefined,1280 x 720,1280 x 720
S011,20,Vrouwelijk,Rechts,4,100,left,no,700,leftarrow,718,true,focus,yes,1034411,Chrome,111.0,Windows,10,undefined,undefined,1280 x 720,1280 x 720
S011,20,Vrouwelijk,Rechts,4,101,right,no,700,rightarrow,834,true,focus,yes,1036023,Chrome,111.0,Windows,10,undefined,undefined,1280 x 720,1280 x 720
S011,20,Vrouwelijk,Rechts,4,102,left,no,700,leftarrow,931,true,focus,yes,1037729,Chrome,111.0,Windows,10,undefined,undefined,1280 x 720,1280 x 720
S011,20,Vrouwelijk,Rechts,4,103,left,yes,700,undefined,null,true,focus,yes,1039756,Chrome,111.0,Windows,10,undefined,undefined,1280 x 720,1280 x 720
S011,20,Vrouwelijk,Rechts,4,104,right,yes,750,rightarrow,845,false,focus,yes,1041370,Chrome,111.0,Windows,10,undefined,undefined,1280 x 720,1280 x 720
S011,20,Vrouwelijk,Rechts,4,105,right,no,700,rightarrow,775,true,focus,yes,1042928,Chrome,111.0,Windows,10,undefined,undefined,1280 x 720,1280 x 720
S011,20,Vrouwelijk,Rechts,4,106,left,no,700,leftarrow,985,true,focus,yes,1044688,Chrome,111.0,Windows,10,undefined,undefined,1280 x 720,1280 x 720
S011,20,Vrouwelijk,Rechts,4,107,left,yes,700,leftarrow,791,false,focus,yes,1046258,Chrome,111.0,Windows,10,undefined,undefined,1280 x 720,1280 x 720
S011,20,Vrouwelijk,Rechts,4,108,right,yes,650,undefined,null,true,focus,yes,1048285,Chrome,111.0,Windows,10,undefined,undefined,1280 x 720,1280 x 720
S011,20,Vrouwelijk,Rechts,4,109,left,no,700,leftarrow,920,true,focus,yes,1049969,Chrome,111.0,Windows,10,undefined,undefined,1280 x 720,1280 x 720
S011,20,Vrouwelijk,Rechts,4,110,right,no,700,rightarrow,929,true,focus,yes,1051672,Chrome,111.0,Windows,10,undefined,undefined,1280 x 720,1280 x 720
S011,20,Vrouwelijk,Rechts,4,111,left,no,700,leftarrow,980,true,focus,yes,1053426,Chrome,111.0,Windows,10,undefined,undefined,1280 x 720,1280 x 720
S011,20,Vrouwelijk,Rechts,4,112,right,no,700,rightarrow,898,true,focus,yes,1055091,Chrome,111.0,Windows,10,undefined,undefined,1280 x 720,1280 x 720
S011,20,Vrouwelijk,Rechts,4,113,right,yes,700,rightarrow,842,false,focus,yes,1056705,Chrome,111.0,Windows,10,undefined,undefined,1280 x 720,1280 x 720
S011,20,Vrouwelijk,Rechts,4,114,right,no,650,rightarrow,994,true,focus,yes,1058471,Chrome,111.0,Windows,10,undefined,undefined,1280 x 720,1280 x 720
S011,20,Vrouwelijk,Rechts,4,115,left,yes,650,undefined,null,true,focus,yes,1060497,Chrome,111.0,Windows,10,undefined,undefined,1280 x 720,1280 x 720
S011,20,Vrouwelijk,Rechts,4,116,left,no,700,leftarrow,754,true,focus,yes,1062013,Chrome,111.0,Windows,10,undefined,undefined,1280 x 720,1280 x 720
S011,20,Vrouwelijk,Rechts,4,117,right,no,700,rightarrow,917,true,focus,yes,1063717,Chrome,111.0,Windows,10,undefined,undefined,1280 x 720,1280 x 720
S011,20,Vrouwelijk,Rechts,4,118,right,no,700,rightarrow,954,true,focus,yes,1065440,Chrome,111.0,Windows,10,undefined,undefined,1280 x 720,1280 x 720
S011,20,Vrouwelijk,Rechts,4,119,left,no,700,leftarrow,805,true,focus,yes,1067025,Chrome,111.0,Windows,10,undefined,undefined,1280 x 720,1280 x 720
S011,20,Vrouwelijk,Rechts,4,120,left,no,700,leftarrow,976,true,focus,yes,1068762,Chrome,111.0,Windows,10,undefined,undefined,1280 x 720,1280 x 720
S011,20,Vrouwelijk,Rechts,4,121,left,no,700,leftarrow,962,true,focus,yes,1070495,Chrome,111.0,Windows,10,undefined,undefined,1280 x 720,1280 x 720
S011,20,Vrouwelijk,Rechts,4,122,left,yes,700,undefined,null,true,focus,yes,1072523,Chrome,111.0,Windows,10,undefined,undefined,1280 x 720,1280 x 720
S011,20,Vrouwelijk,Rechts,4,123,right,no,750,rightarrow,957,true,focus,yes,1074249,Chrome,111.0,Windows,10,undefined,undefined,1280 x 720,1280 x 720
S011,20,Vrouwelijk,Rechts,4,124,left,no,750,leftarrow,932,true,focus,yes,1075940,Chrome,111.0,Windows,10,undefined,undefined,1280 x 720,1280 x 720
S011,20,Vrouwelijk,Rechts,4,125,right,yes,750,undefined,null,true,focus,yes,1077967,Chrome,111.0,Windows,10,undefined,undefined,1280 x 720,1280 x 720
S011,20,Vrouwelijk,Rechts,4,126,right,no,800,rightarrow,973,true,focus,yes,1079709,Chrome,111.0,Windows,10,undefined,undefined,1280 x 720,1280 x 720
S011,20,Vrouwelijk,Rechts,4,127,left,no,800,leftarrow,940,true,focus,yes,1081425,Chrome,111.0,Windows,10,undefined,undefined,1280 x 720,1280 x 720
S011,20,Vrouwelijk,Rechts,4,128,right,no,800,rightarrow,987,true,focus,yes,1083188,Chrome,111.0,Windows,10,undefined,undefined,1280 x 720,1280 x 720
S011,20,Vrouwelijk,Rechts,5,1,left,no,800,leftarrow,842,true,focus,yes,1120826,Chrome,111.0,Windows,10,undefined,undefined,1280 x 720,1280 x 720
S011,20,Vrouwelijk,Rechts,5,2,left,no,800,leftarrow,1033,true,focus,yes,1122629,Chrome,111.0,Windows,10,undefined,undefined,1280 x 720,1280 x 720
S011,20,Vrouwelijk,Rechts,5,3,right,yes,800,undefined,null,true,focus,yes,1124659,Chrome,111.0,Windows,10,undefined,undefined,1280 x 720,1280 x 720
S011,20,Vrouwelijk,Rechts,5,4,right,no,850,rightarrow,842,true,focus,yes,1126285,Chrome,111.0,Windows,10,undefined,undefined,1280 x 720,1280 x 720
S011,20,Vrouwelijk,Rechts,5,5,left,yes,850,undefined,null,true,focus,yes,1128308,Chrome,111.0,Windows,10,undefined,undefined,1280 x 720,1280 x 720
S011,20,Vrouwelijk,Rechts,5,6,right,no,900,rightarrow,1028,true,focus,yes,1130105,Chrome,111.0,Windows,10,undefined,undefined,1280 x 720,1280 x 720
S011,20,Vrouwelijk,Rechts,5,7,right,no,900,rightarrow,1113,true,focus,yes,1131985,Chrome,111.0,Windows,10,undefined,undefined,1280 x 720,1280 x 720
S011,20,Vrouwelijk,Rechts,5,8,left,no,900,leftarrow,923,true,focus,yes,1133679,Chrome,111.0,Windows,10,undefined,undefined,1280 x 720,1280 x 720
S011,20,Vrouwelijk,Rechts,5,9,right,no,900,rightarrow,812,true,focus,yes,1135254,Chrome,111.0,Windows,10,undefined,undefined,1280 x 720,1280 x 720
S011,20,Vrouwelijk,Rechts,5,10,right,yes,900,rightarrow,944,false,focus,yes,1136983,Chrome,111.0,Windows,10,undefined,undefined,1280 x 720,1280 x 720
S011,20,Vrouwelijk,Rechts,5,11,left,no,850,leftarrow,900,true,focus,yes,1138662,Chrome,111.0,Windows,10,undefined,undefined,1280 x 720,1280 x 720
S011,20,Vrouwelijk,Rechts,5,12,left,no,850,leftarrow,888,true,focus,yes,1140320,Chrome,111.0,Windows,10,undefined,undefined,1280 x 720,1280 x 720
S011,20,Vrouwelijk,Rechts,5,13,right,no,850,rightarrow,825,true,focus,yes,1141916,Chrome,111.0,Windows,10,undefined,undefined,1280 x 720,1280 x 720
S011,20,Vrouwelijk,Rechts,5,14,right,no,850,rightarrow,817,true,focus,yes,1143500,Chrome,111.0,Windows,10,undefined,undefined,1280 x 720,1280 x 720
S011,20,Vrouwelijk,Rechts,5,15,left,yes,850,leftarrow,801,false,focus,yes,1145067,Chrome,111.0,Windows,10,undefined,undefined,1280 x 720,1280 x 720
S011,20,Vrouwelijk,Rechts,5,16,left,no,800,leftarrow,741,true,focus,yes,1146571,Chrome,111.0,Windows,10,undefined,undefined,1280 x 720,1280 x 720
S011,20,Vrouwelijk,Rechts,5,17,left,no,800,leftarrow,776,true,focus,yes,1148114,Chrome,111.0,Windows,10,undefined,undefined,1280 x 720,1280 x 720
S011,20,Vrouwelijk,Rechts,5,18,left,no,800,leftarrow,855,true,focus,yes,1149761,Chrome,111.0,Windows,10,undefined,undefined,1280 x 720,1280 x 720
S011,20,Vrouwelijk,Rechts,5,19,right,yes,800,rightarrow,972,false,focus,yes,1151504,Chrome,111.0,Windows,10,undefined,undefined,1280 x 720,1280 x 720
S011,20,Vrouwelijk,Rechts,5,20,left,yes,750,undefined,null,true,focus,yes,1153533,Chrome,111.0,Windows,10,undefined,undefined,1280 x 720,1280 x 720
S011,20,Vrouwelijk,Rechts,5,21,right,no,800,rightarrow,948,true,focus,yes,1155250,Chrome,111.0,Windows,10,undefined,undefined,1280 x 720,1280 x 720
S011,20,Vrouwelijk,Rechts,5,22,left,no,800,leftarrow,896,true,focus,yes,1156909,Chrome,111.0,Windows,10,undefined,undefined,1280 x 720,1280 x 720
S011,20,Vrouwelijk,Rechts,5,23,right,no,800,rightarrow,843,true,focus,yes,1158530,Chrome,111.0,Windows,10,undefined,undefined,1280 x 720,1280 x 720
S011,20,Vrouwelijk,Rechts,5,24,right,no,800,rightarrow,877,true,focus,yes,1160188,Chrome,111.0,Windows,10,undefined,undefined,1280 x 720,1280 x 720
S011,20,Vrouwelijk,Rechts,5,25,right,yes,800,rightarrow,612,false,focus,yes,1161567,Chrome,111.0,Windows,10,undefined,undefined,1280 x 720,1280 x 720
S011,20,Vrouwelijk,Rechts,5,26,right,no,750,rightarrow,860,true,focus,yes,1163198,Chrome,111.0,Windows,10,undefined,undefined,1280 x 720,1280 x 720
S011,20,Vrouwelijk,Rechts,5,27,left,no,750,leftarrow,1007,true,focus,yes,1164974,Chrome,111.0,Windows,10,undefined,undefined,1280 x 720,1280 x 720
S011,20,Vrouwelijk,Rechts,5,28,left,yes,750,leftarrow,936,false,focus,yes,1166682,Chrome,111.0,Windows,10,undefined,undefined,1280 x 720,1280 x 720
S011,20,Vrouwelijk,Rechts,5,29,right,no,700,rightarrow,1073,true,focus,yes,1168521,Chrome,111.0,Windows,10,undefined,undefined,1280 x 720,1280 x 720
S011,20,Vrouwelijk,Rechts,5,30,left,no,700,leftarrow,1033,true,focus,yes,1170319,Chrome,111.0,Windows,10,undefined,undefined,1280 x 720,1280 x 720
S011,20,Vrouwelijk,Rechts,5,31,right,no,700,rightarrow,1071,true,focus,yes,1172152,Chrome,111.0,Windows,10,undefined,undefined,1280 x 720,1280 x 720
S011,20,Vrouwelijk,Rechts,5,32,left,no,700,leftarrow,1106,true,focus,yes,1174027,Chrome,111.0,Windows,10,undefined,undefined,1280 x 720,1280 x 720
S011,20,Vrouwelijk,Rechts,5,33,left,no,700,leftarrow,893,true,focus,yes,1175684,Chrome,111.0,Windows,10,undefined,undefined,1280 x 720,1280 x 720
S011,20,Vrouwelijk,Rechts,5,34,right,no,700,rightarrow,1054,true,focus,yes,1177501,Chrome,111.0,Windows,10,undefined,undefined,1280 x 720,1280 x 720
S011,20,Vrouwelijk,Rechts,5,35,left,no,700,leftarrow,1112,true,focus,yes,1179385,Chrome,111.0,Windows,10,undefined,undefined,1280 x 720,1280 x 720
S011,20,Vrouwelijk,Rechts,5,36,right,yes,700,rightarrow,856,false,focus,yes,1181013,Chrome,111.0,Windows,10,undefined,undefined,1280 x 720,1280 x 720
S011,20,Vrouwelijk,Rechts,5,37,left,no,650,leftarrow,944,true,focus,yes,1182729,Chrome,111.0,Windows,10,undefined,undefined,1280 x 720,1280 x 720
S011,20,Vrouwelijk,Rechts,5,38,right,no,650,rightarrow,1049,true,focus,yes,1184551,Chrome,111.0,Windows,10,undefined,undefined,1280 x 720,1280 x 720
S011,20,Vrouwelijk,Rechts,5,39,right,no,650,rightarrow,919,true,focus,yes,1186248,Chrome,111.0,Windows,10,undefined,undefined,1280 x 720,1280 x 720
S011,20,Vrouwelijk,Rechts,5,40,left,yes,650,undefined,null,true,focus,yes,1188267,Chrome,111.0,Windows,10,undefined,undefined,1280 x 720,1280 x 720
S011,20,Vrouwelijk,Rechts,5,41,left,no,700,leftarrow,742,true,focus,yes,1189776,Chrome,111.0,Windows,10,undefined,undefined,1280 x 720,1280 x 720
S011,20,Vrouwelijk,Rechts,5,42,left,no,700,leftarrow,819,true,focus,yes,1191361,Chrome,111.0,Windows,10,undefined,undefined,1280 x 720,1280 x 720
S011,20,Vrouwelijk,Rechts,5,43,left,no,700,leftarrow,1013,true,focus,yes,1193154,Chrome,111.0,Windows,10,undefined,undefined,1280 x 720,1280 x 720
S011,20,Vrouwelijk,Rechts,5,44,left,yes,700,undefined,null,true,focus,yes,1195172,Chrome,111.0,Windows,10,undefined,undefined,1280 x 720,1280 x 720
S011,20,Vrouwelijk,Rechts,5,45,right,no,750,rightarrow,905,true,focus,yes,1196845,Chrome,111.0,Windows,10,undefined,undefined,1280 x 720,1280 x 720
S011,20,Vrouwelijk,Rechts,5,46,right,no,750,rightarrow,761,true,focus,yes,1198387,Chrome,111.0,Windows,10,undefined,undefined,1280 x 720,1280 x 720
S011,20,Vrouwelijk,Rechts,5,47,right,yes,750,undefined,null,true,focus,yes,1200418,Chrome,111.0,Windows,10,undefined,undefined,1280 x 720,1280 x 720
S011,20,Vrouwelijk,Rechts,5,48,right,no,800,rightarrow,900,true,focus,yes,1202084,Chrome,111.0,Windows,10,undefined,undefined,1280 x 720,1280 x 720
S011,20,Vrouwelijk,Rechts,5,49,left,no,800,leftarrow,1064,true,focus,yes,1203924,Chrome,111.0,Windows,10,undefined,undefined,1280 x 720,1280 x 720
S011,20,Vrouwelijk,Rechts,5,50,right,yes,800,undefined,null,true,focus,yes,1205964,Chrome,111.0,Windows,10,undefined,undefined,1280 x 720,1280 x 720
S011,20,Vrouwelijk,Rechts,5,51,left,yes,850,leftarrow,896,false,focus,yes,1207630,Chrome,111.0,Windows,10,undefined,undefined,1280 x 720,1280 x 720
S011,20,Vrouwelijk,Rechts,5,52,right,no,800,rightarrow,1030,true,focus,yes,1209439,Chrome,111.0,Windows,10,undefined,undefined,1280 x 720,1280 x 720
S011,20,Vrouwelijk,Rechts,5,53,left,no,800,leftarrow,1069,true,focus,yes,1211273,Chrome,111.0,Windows,10,undefined,undefined,1280 x 720,1280 x 720
S011,20,Vrouwelijk,Rechts,5,54,right,no,800,rightarrow,1251,true,focus,yes,1213292,Chrome,111.0,Windows,10,undefined,undefined,1280 x 720,1280 x 720
S011,20,Vrouwelijk,Rechts,5,55,left,no,800,undefined,null,false,focus,yes,1215341,Chrome,111.0,Windows,10,undefined,undefined,1280 x 720,1280 x 720
S011,20,Vrouwelijk,Rechts,5,56,right,no,800,rightarrow,922,true,focus,yes,1217032,Chrome,111.0,Windows,10,undefined,undefined,1280 x 720,1280 x 720
S011,20,Vrouwelijk,Rechts,5,57,left,no,800,leftarrow,914,true,focus,yes,1218710,Chrome,111.0,Windows,10,undefined,undefined,1280 x 720,1280 x 720
S011,20,Vrouwelijk,Rechts,5,58,left,yes,800,undefined,null,true,focus,yes,1220737,Chrome,111.0,Windows,10,undefined,undefined,1280 x 720,1280 x 720
S011,20,Vrouwelijk,Rechts,5,59,right,no,850,rightarrow,1034,true,focus,yes,1222539,Chrome,111.0,Windows,10,undefined,undefined,1280 x 720,1280 x 720
S011,20,Vrouwelijk,Rechts,5,60,right,no,850,rightarrow,1048,true,focus,yes,1224366,Chrome,111.0,Windows,10,undefined,undefined,1280 x 720,1280 x 720
S011,20,Vrouwelijk,Rechts,5,61,left,no,850,leftarrow,829,true,focus,yes,1225968,Chrome,111.0,Windows,10,undefined,undefined,1280 x 720,1280 x 720
S011,20,Vrouwelijk,Rechts,5,62,left,no,850,leftarrow,867,true,focus,yes,1227603,Chrome,111.0,Windows,10,undefined,undefined,1280 x 720,1280 x 720
S011,20,Vrouwelijk,Rechts,5,63,right,yes,850,rightarrow,977,false,focus,yes,1229356,Chrome,111.0,Windows,10,undefined,undefined,1280 x 720,1280 x 720
S011,20,Vrouwelijk,Rechts,5,64,right,no,800,rightarrow,974,true,focus,yes,1231104,Chrome,111.0,Windows,10,undefined,undefined,1280 x 720,1280 x 720
S011,20,Vrouwelijk,Rechts,5,65,right,yes,800,undefined,null,true,focus,yes,1233128,Chrome,111.0,Windows,10,undefined,undefined,1280 x 720,1280 x 720
S011,20,Vrouwelijk,Rechts,5,66,right,no,850,rightarrow,736,true,focus,yes,1234634,Chrome,111.0,Windows,10,undefined,undefined,1280 x 720,1280 x 720
S011,20,Vrouwelijk,Rechts,5,67,left,no,850,leftarrow,936,true,focus,yes,1236340,Chrome,111.0,Windows,10,undefined,undefined,1280 x 720,1280 x 720
S011,20,Vrouwelijk,Rechts,5,68,left,yes,850,leftarrow,979,false,focus,yes,1238084,Chrome,111.0,Windows,10,undefined,undefined,1280 x 720,1280 x 720
S011,20,Vrouwelijk,Rechts,5,69,left,no,800,leftarrow,870,true,focus,yes,1239725,Chrome,111.0,Windows,10,undefined,undefined,1280 x 720,1280 x 720
S011,20,Vrouwelijk,Rechts,5,70,right,no,800,rightarrow,835,true,focus,yes,1241345,Chrome,111.0,Windows,10,undefined,undefined,1280 x 720,1280 x 720
S011,20,Vrouwelijk,Rechts,5,71,left,no,800,leftarrow,1132,true,focus,yes,1243239,Chrome,111.0,Windows,10,undefined,undefined,1280 x 720,1280 x 720
S011,20,Vrouwelijk,Rechts,5,72,right,no,800,rightarrow,1126,true,focus,yes,1245133,Chrome,111.0,Windows,10,undefined,undefined,1280 x 720,1280 x 720
S011,20,Vrouwelijk,Rechts,5,73,left,no,800,leftarrow,1030,true,focus,yes,1246941,Chrome,111.0,Windows,10,undefined,undefined,1280 x 720,1280 x 720
S011,20,Vrouwelijk,Rechts,5,74,right,no,800,rightarrow,1109,true,focus,yes,1248811,Chrome,111.0,Windows,10,undefined,undefined,1280 x 720,1280 x 720
S011,20,Vrouwelijk,Rechts,5,75,left,no,800,leftarrow,1057,true,focus,yes,1250649,Chrome,111.0,Windows,10,undefined,undefined,1280 x 720,1280 x 720
S011,20,Vrouwelijk,Rechts,5,76,left,yes,800,leftarrow,993,false,focus,yes,1252407,Chrome,111.0,Windows,10,undefined,undefined,1280 x 720,1280 x 720
S011,20,Vrouwelijk,Rechts,5,77,left,no,750,leftarrow,1063,true,focus,yes,1254240,Chrome,111.0,Windows,10,undefined,undefined,1280 x 720,1280 x 720
S011,20,Vrouwelijk,Rechts,5,78,right,yes,750,undefined,null,true,focus,yes,1256271,Chrome,111.0,Windows,10,undefined,undefined,1280 x 720,1280 x 720
S011,20,Vrouwelijk,Rechts,5,79,right,no,800,rightarrow,847,true,focus,yes,1257901,Chrome,111.0,Windows,10,undefined,undefined,1280 x 720,1280 x 720
S011,20,Vrouwelijk,Rechts,5,80,right,no,800,rightarrow,971,true,focus,yes,1259640,Chrome,111.0,Windows,10,undefined,undefined,1280 x 720,1280 x 720
S011,20,Vrouwelijk,Rechts,5,81,left,no,800,leftarrow,1092,true,focus,yes,1261509,Chrome,111.0,Windows,10,undefined,undefined,1280 x 720,1280 x 720
S011,20,Vrouwelijk,Rechts,5,82,left,no,800,leftarrow,1171,true,focus,yes,1263440,Chrome,111.0,Windows,10,undefined,undefined,1280 x 720,1280 x 720
S011,20,Vrouwelijk,Rechts,5,83,right,no,800,rightarrow,995,true,focus,yes,1265212,Chrome,111.0,Windows,10,undefined,undefined,1280 x 720,1280 x 720
S011,20,Vrouwelijk,Rechts,5,84,right,no,800,rightarrow,1110,true,focus,yes,1267091,Chrome,111.0,Windows,10,undefined,undefined,1280 x 720,1280 x 720
S011,20,Vrouwelijk,Rechts,5,85,left,no,800,leftarrow,1067,true,focus,yes,1268931,Chrome,111.0,Windows,10,undefined,undefined,1280 x 720,1280 x 720
S011,20,Vrouwelijk,Rechts,5,86,left,yes,800,undefined,null,true,focus,yes,1270958,Chrome,111.0,Windows,10,undefined,undefined,1280 x 720,1280 x 720
S011,20,Vrouwelijk,Rechts,5,87,right,yes,850,rightarrow,961,false,focus,yes,1272688,Chrome,111.0,Windows,10,undefined,undefined,1280 x 720,1280 x 720
S011,20,Vrouwelijk,Rechts,5,88,right,no,800,rightarrow,846,true,focus,yes,1274306,Chrome,111.0,Windows,10,undefined,undefined,1280 x 720,1280 x 720
S011,20,Vrouwelijk,Rechts,5,89,left,no,800,leftarrow,848,true,focus,yes,1275920,Chrome,111.0,Windows,10,undefined,undefined,1280 x 720,1280 x 720
S011,20,Vrouwelijk,Rechts,5,90,left,no,800,leftarrow,781,true,focus,yes,1277466,Chrome,111.0,Windows,10,undefined,undefined,1280 x 720,1280 x 720
S011,20,Vrouwelijk,Rechts,5,91,right,no,800,rightarrow,924,true,focus,yes,1279159,Chrome,111.0,Windows,10,undefined,undefined,1280 x 720,1280 x 720
S011,20,Vrouwelijk,Rechts,5,92,right,no,800,rightarrow,877,true,focus,yes,1280798,Chrome,111.0,Windows,10,undefined,undefined,1280 x 720,1280 x 720
S011,20,Vrouwelijk,Rechts,5,93,right,no,800,rightarrow,1143,true,focus,yes,1282707,Chrome,111.0,Windows,10,undefined,undefined,1280 x 720,1280 x 720
S011,20,Vrouwelijk,Rechts,5,94,right,yes,800,rightarrow,982,false,focus,yes,1284463,Chrome,111.0,Windows,10,undefined,undefined,1280 x 720,1280 x 720
S011,20,Vrouwelijk,Rechts,5,95,left,yes,750,undefined,null,true,focus,yes,1286481,Chrome,111.0,Windows,10,undefined,undefined,1280 x 720,1280 x 720
S011,20,Vrouwelijk,Rechts,5,96,left,no,800,leftarrow,954,true,focus,yes,1288202,Chrome,111.0,Windows,10,undefined,undefined,1280 x 720,1280 x 720
S011,20,Vrouwelijk,Rechts,5,97,left,no,800,leftarrow,899,true,focus,yes,1289865,Chrome,111.0,Windows,10,undefined,undefined,1280 x 720,1280 x 720
S011,20,Vrouwelijk,Rechts,5,98,left,no,800,leftarrow,1008,true,focus,yes,1291651,Chrome,111.0,Windows,10,undefined,undefined,1280 x 720,1280 x 720
S011,20,Vrouwelijk,Rechts,5,99,left,no,800,leftarrow,1028,true,focus,yes,1293449,Chrome,111.0,Windows,10,undefined,undefined,1280 x 720,1280 x 720
S011,20,Vrouwelijk,Rechts,5,100,right,no,800,rightarrow,1040,true,focus,yes,1295257,Chrome,111.0,Windows,10,undefined,undefined,1280 x 720,1280 x 720
S011,20,Vrouwelijk,Rechts,5,101,right,no,800,rightarrow,784,true,focus,yes,1296806,Chrome,111.0,Windows,10,undefined,undefined,1280 x 720,1280 x 720
S011,20,Vrouwelijk,Rechts,5,102,left,yes,800,leftarrow,840,false,focus,yes,1298413,Chrome,111.0,Windows,10,undefined,undefined,1280 x 720,1280 x 720
S011,20,Vrouwelijk,Rechts,5,103,right,yes,750,undefined,null,true,focus,yes,1300437,Chrome,111.0,Windows,10,undefined,undefined,1280 x 720,1280 x 720
S011,20,Vrouwelijk,Rechts,5,104,right,no,800,rightarrow,955,true,focus,yes,1302158,Chrome,111.0,Windows,10,undefined,undefined,1280 x 720,1280 x 720
S011,20,Vrouwelijk,Rechts,5,105,left,no,800,leftarrow,1142,true,focus,yes,1304070,Chrome,111.0,Windows,10,undefined,undefined,1280 x 720,1280 x 720
S011,20,Vrouwelijk,Rechts,5,106,right,no,800,rightarrow,975,true,focus,yes,1305819,Chrome,111.0,Windows,10,undefined,undefined,1280 x 720,1280 x 720
S011,20,Vrouwelijk,Rechts,5,107,left,no,800,leftarrow,869,true,focus,yes,1307461,Chrome,111.0,Windows,10,undefined,undefined,1280 x 720,1280 x 720
S011,20,Vrouwelijk,Rechts,5,108,left,no,800,leftarrow,1056,true,focus,yes,1309287,Chrome,111.0,Windows,10,undefined,undefined,1280 x 720,1280 x 720
S011,20,Vrouwelijk,Rechts,5,109,left,yes,800,undefined,null,true,focus,yes,1311325,Chrome,111.0,Windows,10,undefined,undefined,1280 x 720,1280 x 720
S011,20,Vrouwelijk,Rechts,5,110,right,no,850,rightarrow,902,true,focus,yes,1312996,Chrome,111.0,Windows,10,undefined,undefined,1280 x 720,1280 x 720
S011,20,Vrouwelijk,Rechts,5,111,right,no,850,rightarrow,942,true,focus,yes,1314711,Chrome,111.0,Windows,10,undefined,undefined,1280 x 720,1280 x 720
S011,20,Vrouwelijk,Rechts,5,112,right,yes,850,rightarrow,977,false,focus,yes,1316479,Chrome,111.0,Windows,10,undefined,undefined,1280 x 720,1280 x 720
S011,20,Vrouwelijk,Rechts,5,113,right,no,800,rightarrow,813,true,focus,yes,1318062,Chrome,111.0,Windows,10,undefined,undefined,1280 x 720,1280 x 720
S011,20,Vrouwelijk,Rechts,5,114,right,no,800,rightarrow,1179,true,focus,yes,1320012,Chrome,111.0,Windows,10,undefined,undefined,1280 x 720,1280 x 720
S011,20,Vrouwelijk,Rechts,5,115,right,yes,800,rightarrow,938,false,focus,yes,1321733,Chrome,111.0,Windows,10,undefined,undefined,1280 x 720,1280 x 720
S011,20,Vrouwelijk,Rechts,5,116,left,yes,750,undefined,null,true,focus,yes,1323762,Chrome,111.0,Windows,10,undefined,undefined,1280 x 720,1280 x 720
S011,20,Vrouwelijk,Rechts,5,117,left,no,800,leftarrow,770,true,focus,yes,1325301,Chrome,111.0,Windows,10,undefined,undefined,1280 x 720,1280 x 720
S011,20,Vrouwelijk,Rechts,5,118,right,no,800,rightarrow,1079,true,focus,yes,1327144,Chrome,111.0,Windows,10,undefined,undefined,1280 x 720,1280 x 720
S011,20,Vrouwelijk,Rechts,5,119,left,no,800,leftarrow,1135,true,focus,yes,1329059,Chrome,111.0,Windows,10,undefined,undefined,1280 x 720,1280 x 720
S011,20,Vrouwelijk,Rechts,5,120,left,no,800,undefined,null,false,focus,yes,1331074,Chrome,111.0,Windows,10,undefined,undefined,1280 x 720,1280 x 720
S011,20,Vrouwelijk,Rechts,5,121,right,no,800,rightarrow,984,true,focus,yes,1332843,Chrome,111.0,Windows,10,undefined,undefined,1280 x 720,1280 x 720
S011,20,Vrouwelijk,Rechts,5,122,right,yes,800,undefined,null,true,focus,yes,1334864,Chrome,111.0,Windows,10,undefined,undefined,1280 x 720,1280 x 720
S011,20,Vrouwelijk,Rechts,5,123,left,no,850,leftarrow,1017,true,focus,yes,1336650,Chrome,111.0,Windows,10,undefined,undefined,1280 x 720,1280 x 720
S011,20,Vrouwelijk,Rechts,5,124,right,no,850,rightarrow,1237,true,focus,yes,1338665,Chrome,111.0,Windows,10,undefined,undefined,1280 x 720,1280 x 720
S011,20,Vrouwelijk,Rechts,5,125,left,yes,850,leftarrow,1026,false,focus,yes,1340458,Chrome,111.0,Windows,10,undefined,undefined,1280 x 720,1280 x 720
S011,20,Vrouwelijk,Rechts,5,126,left,no,800,undefined,null,false,focus,yes,1342480,Chrome,111.0,Windows,10,undefined,undefined,1280 x 720,1280 x 720
S011,20,Vrouwelijk,Rechts,5,127,left,no,800,leftarrow,740,true,focus,yes,1343988,Chrome,111.0,Windows,10,undefined,undefined,1280 x 720,1280 x 720
S011,20,Vrouwelijk,Rechts,5,128,right,no,800,rightarrow,985,true,focus,yes,1345741,Chrome,111.0,Windows,10,undefined,undefined,1280 x 720,1280 x 720
S011,20,Vrouwelijk,Rechts,6,1,right,no,800,rightarrow,594,true,focus,yes,1365707,Chrome,111.0,Windows,10,undefined,undefined,1280 x 720,1280 x 720
S011,20,Vrouwelijk,Rechts,6,2,left,yes,800,leftarrow,745,false,focus,yes,1367229,Chrome,111.0,Windows,10,undefined,undefined,1280 x 720,1280 x 720
S011,20,Vrouwelijk,Rechts,6,3,left,no,750,leftarrow,847,true,focus,yes,1368850,Chrome,111.0,Windows,10,undefined,undefined,1280 x 720,1280 x 720
S011,20,Vrouwelijk,Rechts,6,4,right,yes,750,rightarrow,798,false,focus,yes,1370416,Chrome,111.0,Windows,10,undefined,undefined,1280 x 720,1280 x 720
S011,20,Vrouwelijk,Rechts,6,5,left,no,700,leftarrow,967,true,focus,yes,1372148,Chrome,111.0,Windows,10,undefined,undefined,1280 x 720,1280 x 720
S011,20,Vrouwelijk,Rechts,6,6,left,no,700,leftarrow,890,true,focus,yes,1373805,Chrome,111.0,Windows,10,undefined,undefined,1280 x 720,1280 x 720
S011,20,Vrouwelijk,Rechts,6,7,right,no,700,rightarrow,831,true,focus,yes,1375400,Chrome,111.0,Windows,10,undefined,undefined,1280 x 720,1280 x 720
S011,20,Vrouwelijk,Rechts,6,8,right,no,700,rightarrow,892,true,focus,yes,1377057,Chrome,111.0,Windows,10,undefined,undefined,1280 x 720,1280 x 720
S011,20,Vrouwelijk,Rechts,6,9,left,no,700,leftarrow,955,true,focus,yes,1378781,Chrome,111.0,Windows,10,undefined,undefined,1280 x 720,1280 x 720
S011,20,Vrouwelijk,Rechts,6,10,right,no,700,rightarrow,967,true,focus,yes,1380526,Chrome,111.0,Windows,10,undefined,undefined,1280 x 720,1280 x 720
S011,20,Vrouwelijk,Rechts,6,11,left,no,700,leftarrow,979,true,focus,yes,1382271,Chrome,111.0,Windows,10,undefined,undefined,1280 x 720,1280 x 720
S011,20,Vrouwelijk,Rechts,6,12,left,no,700,leftarrow,937,true,focus,yes,1383977,Chrome,111.0,Windows,10,undefined,undefined,1280 x 720,1280 x 720
S011,20,Vrouwelijk,Rechts,6,13,right,yes,700,undefined,null,true,focus,yes,1385999,Chrome,111.0,Windows,10,undefined,undefined,1280 x 720,1280 x 720
S011,20,Vrouwelijk,Rechts,6,14,right,no,750,rightarrow,873,true,focus,yes,1387633,Chrome,111.0,Windows,10,undefined,undefined,1280 x 720,1280 x 720
S011,20,Vrouwelijk,Rechts,6,15,right,no,750,rightarrow,935,true,focus,yes,1389341,Chrome,111.0,Windows,10,undefined,undefined,1280 x 720,1280 x 720
S011,20,Vrouwelijk,Rechts,6,16,left,yes,750,undefined,null,true,focus,yes,1391380,Chrome,111.0,Windows,10,undefined,undefined,1280 x 720,1280 x 720
S011,20,Vrouwelijk,Rechts,6,17,left,yes,800,leftarrow,855,false,focus,yes,1393003,Chrome,111.0,Windows,10,undefined,undefined,1280 x 720,1280 x 720
S011,20,Vrouwelijk,Rechts,6,18,right,no,750,rightarrow,1058,true,focus,yes,1394836,Chrome,111.0,Windows,10,undefined,undefined,1280 x 720,1280 x 720
S011,20,Vrouwelijk,Rechts,6,19,right,yes,750,rightarrow,900,false,focus,yes,1396497,Chrome,111.0,Windows,10,undefined,undefined,1280 x 720,1280 x 720
S011,20,Vrouwelijk,Rechts,6,20,left,no,700,leftarrow,1015,true,focus,yes,1398288,Chrome,111.0,Windows,10,undefined,undefined,1280 x 720,1280 x 720
S011,20,Vrouwelijk,Rechts,6,21,left,no,700,leftarrow,841,true,focus,yes,1399905,Chrome,111.0,Windows,10,undefined,undefined,1280 x 720,1280 x 720
S011,20,Vrouwelijk,Rechts,6,22,right,no,700,rightarrow,758,true,focus,yes,1401435,Chrome,111.0,Windows,10,undefined,undefined,1280 x 720,1280 x 720
S011,20,Vrouwelijk,Rechts,6,23,left,no,700,leftarrow,1008,true,focus,yes,1403204,Chrome,111.0,Windows,10,undefined,undefined,1280 x 720,1280 x 720
S011,20,Vrouwelijk,Rechts,6,24,right,no,700,rightarrow,985,true,focus,yes,1404960,Chrome,111.0,Windows,10,undefined,undefined,1280 x 720,1280 x 720
S011,20,Vrouwelijk,Rechts,6,25,right,no,700,rightarrow,1043,true,focus,yes,1406769,Chrome,111.0,Windows,10,undefined,undefined,1280 x 720,1280 x 720
S011,20,Vrouwelijk,Rechts,6,26,left,no,700,leftarrow,1036,true,focus,yes,1408588,Chrome,111.0,Windows,10,undefined,undefined,1280 x 720,1280 x 720
S011,20,Vrouwelijk,Rechts,6,27,right,no,700,rightarrow,1013,true,focus,yes,1410374,Chrome,111.0,Windows,10,undefined,undefined,1280 x 720,1280 x 720
S011,20,Vrouwelijk,Rechts,6,28,left,yes,700,undefined,null,true,focus,yes,1412393,Chrome,111.0,Windows,10,undefined,undefined,1280 x 720,1280 x 720
S011,20,Vrouwelijk,Rechts,6,29,right,no,750,rightarrow,920,true,focus,yes,1414082,Chrome,111.0,Windows,10,undefined,undefined,1280 x 720,1280 x 720
S011,20,Vrouwelijk,Rechts,6,30,right,yes,750,rightarrow,969,false,focus,yes,1415817,Chrome,111.0,Windows,10,undefined,undefined,1280 x 720,1280 x 720
