participantID;age;gender;handedness;block_i;trial_i;stim;signal;SSD;response;rt;correct;focus;Fullscreen;time_elapsed;browser_name;browser_version;os_name;os_version;tablet;mobile;screen_resolution;window_resolution
H001;25;Vrouwelijk;Rechts;0;1;right;no;200;undefined;null;false;focus;no;692727;Chrome;112.0;Windows;10;undefined;undefined;1600 x 900;1601 x 762
H001;25;Vrouwelijk;Rechts;0;2;left;yes;200;undefined;null;true;focus;no;695524;Chrome;112.0;Windows;10;undefined;undefined;1600 x 900;1601 x 762
H001;25;Vrouwelijk;Rechts;0;3;left;no;250;leftarrow;636;true;focus;no;697700;Chrome;112.0;Windows;10;undefined;undefined;1600 x 900;1601 x 762
H001;25;Vrouwelijk;Rechts;0;4;left;no;250;leftarrow;661;true;focus;no;699892;Chrome;112.0;Windows;10;undefined;undefined;1600 x 900;1601 x 762
H001;25;Vrouwelijk;Rechts;0;5;left;no;250;leftarrow;630;true;focus;no;702044;Chrome;112.0;Windows;10;undefined;undefined;1600 x 900;1601 x 762
H001;25;Vrouwelijk;Rechts;0;6;right;no;250;rightarrow;415;true;focus;no;703996;Chrome;112.0;Windows;10;undefined;undefined;1600 x 900;1601 x 762
H001;25;Vrouwelijk;Rechts;0;7;right;yes;250;rightarrow;377;false;focus;no;705908;Chrome;112.0;Windows;10;undefined;undefined;1600 x 900;1601 x 762
H001;25;Vrouwelijk;Rechts;0;8;right;no;200;rightarrow;597;true;focus;no;708028;Chrome;112.0;Windows;10;undefined;undefined;1600 x 900;1601 x 762
H001;25;Vrouwelijk;Rechts;1;1;left;no;200;leftarrow;384;true;focus;no;802764;Chrome;112.0;Windows;10;undefined;undefined;1600 x 900;1601 x 762
H001;25;Vrouwelijk;Rechts;1;2;right;no;200;rightarrow;440;true;focus;no;803981;Chrome;112.0;Windows;10;undefined;undefined;1600 x 900;1601 x 762
H001;25;Vrouwelijk;Rechts;1;3;right;no;200;rightarrow;529;true;focus;no;805292;Chrome;112.0;Windows;10;undefined;undefined;1600 x 900;1601 x 762
H001;25;Vrouwelijk;Rechts;1;4;left;no;200;leftarrow;445;true;focus;no;806508;Chrome;112.0;Windows;10;undefined;undefined;1600 x 900;1601 x 762
H001;25;Vrouwelijk;Rechts;1;5;right;yes;200;rightarrow;420;false;focus;no;807700;Chrome;112.0;Windows;10;undefined;undefined;1600 x 900;1601 x 762
H001;25;Vrouwelijk;Rechts;1;6;right;no;150;rightarrow;468;true;focus;no;808948;Chrome;112.0;Windows;10;undefined;undefined;1600 x 900;1601 x 762
H001;25;Vrouwelijk;Rechts;1;7;left;no;150;leftarrow;482;true;focus;no;810212;Chrome;112.0;Windows;10;undefined;undefined;1600 x 900;1601 x 762
H001;25;Vrouwelijk;Rechts;1;8;left;yes;150;leftarrow;488;false;focus;no;811468;Chrome;112.0;Windows;10;undefined;undefined;1600 x 900;1601 x 762
H001;25;Vrouwelijk;Rechts;1;9;right;yes;100;rightarrow;398;false;focus;no;812644;Chrome;112.0;Windows;10;undefined;undefined;1600 x 900;1601 x 762
H001;25;Vrouwelijk;Rechts;1;10;right;no;50;rightarrow;767;true;focus;no;814180;Chrome;112.0;Windows;10;undefined;undefined;1600 x 900;1601 x 762
H001;25;Vrouwelijk;Rechts;1;11;left;no;50;leftarrow;706;true;focus;no;815669;Chrome;112.0;Windows;10;undefined;undefined;1600 x 900;1601 x 762
H001;25;Vrouwelijk;Rechts;1;12;left;no;50;leftarrow;637;true;focus;no;817084;Chrome;112.0;Windows;10;undefined;undefined;1600 x 900;1601 x 762
H001;25;Vrouwelijk;Rechts;1;13;right;no;50;rightarrow;549;true;focus;no;818412;Chrome;112.0;Windows;10;undefined;undefined;1600 x 900;1601 x 762
H001;25;Vrouwelijk;Rechts;1;14;left;no;50;leftarrow;680;true;focus;no;819860;Chrome;112.0;Windows;10;undefined;undefined;1600 x 900;1601 x 762
H001;25;Vrouwelijk;Rechts;1;15;left;yes;50;undefined;null;true;focus;no;821890;Chrome;112.0;Windows;10;undefined;undefined;1600 x 900;1601 x 762
H001;25;Vrouwelijk;Rechts;1;16;right;no;100;rightarrow;573;true;focus;no;823236;Chrome;112.0;Windows;10;undefined;undefined;1600 x 900;1601 x 762
H001;25;Vrouwelijk;Rechts;1;17;left;yes;100;undefined;null;true;focus;no;825274;Chrome;112.0;Windows;10;undefined;undefined;1600 x 900;1601 x 762
H001;25;Vrouwelijk;Rechts;1;18;left;no;150;leftarrow;517;true;focus;no;826565;Chrome;112.0;Windows;10;undefined;undefined;1600 x 900;1601 x 762
H001;25;Vrouwelijk;Rechts;1;19;right;yes;150;undefined;null;true;focus;no;828607;Chrome;112.0;Windows;10;undefined;undefined;1600 x 900;1601 x 762
H001;25;Vrouwelijk;Rechts;1;20;right;no;200;rightarrow;408;true;focus;no;829788;Chrome;112.0;Windows;10;undefined;undefined;1600 x 900;1601 x 762
H001;25;Vrouwelijk;Rechts;1;21;right;no;200;rightarrow;665;true;focus;no;831228;Chrome;112.0;Windows;10;undefined;undefined;1600 x 900;1601 x 762
H001;25;Vrouwelijk;Rechts;1;22;left;no;200;leftarrow;784;true;focus;no;832780;Chrome;112.0;Windows;10;undefined;undefined;1600 x 900;1601 x 762
H001;25;Vrouwelijk;Rechts;1;23;right;no;200;rightarrow;653;true;focus;no;834204;Chrome;112.0;Windows;10;undefined;undefined;1600 x 900;1601 x 762
H001;25;Vrouwelijk;Rechts;1;24;left;no;200;leftarrow;616;true;focus;no;835596;Chrome;112.0;Windows;10;undefined;undefined;1600 x 900;1601 x 762
H001;25;Vrouwelijk;Rechts;1;25;left;no;200;leftarrow;808;true;focus;no;837188;Chrome;112.0;Windows;10;undefined;undefined;1600 x 900;1601 x 762
H001;25;Vrouwelijk;Rechts;1;26;right;no;200;rightarrow;729;true;focus;no;838692;Chrome;112.0;Windows;10;undefined;undefined;1600 x 900;1601 x 762
H001;25;Vrouwelijk;Rechts;1;27;right;no;200;rightarrow;549;true;focus;no;840012;Chrome;112.0;Windows;10;undefined;undefined;1600 x 900;1601 x 762
H001;25;Vrouwelijk;Rechts;1;28;right;no;200;undefined;null;false;focus;no;842031;Chrome;112.0;Windows;10;undefined;undefined;1600 x 900;1601 x 762
H001;25;Vrouwelijk;Rechts;1;29;left;no;200;leftarrow;679;true;focus;no;843492;Chrome;112.0;Windows;10;undefined;undefined;1600 x 900;1601 x 762
H001;25;Vrouwelijk;Rechts;1;30;left;yes;200;undefined;null;true;focus;no;845527;Chrome;112.0;Windows;10;undefined;undefined;1600 x 900;1601 x 762
H001;25;Vrouwelijk;Rechts;1;31;right;yes;250;undefined;null;true;focus;no;847548;Chrome;112.0;Windows;10;undefined;undefined;1600 x 900;1601 x 762
H001;25;Vrouwelijk;Rechts;1;32;left;no;300;leftarrow;644;true;focus;no;848973;Chrome;112.0;Windows;10;undefined;undefined;1600 x 900;1601 x 762
H001;25;Vrouwelijk;Rechts;1;33;left;no;300;leftarrow;818;true;focus;no;850564;Chrome;112.0;Windows;10;undefined;undefined;1600 x 900;1601 x 762
H001;25;Vrouwelijk;Rechts;1;34;left;no;300;leftarrow;842;true;focus;no;852172;Chrome;112.0;Windows;10;undefined;undefined;1600 x 900;1601 x 762
H001;25;Vrouwelijk;Rechts;1;35;right;no;300;rightarrow;930;true;focus;no;853876;Chrome;112.0;Windows;10;undefined;undefined;1600 x 900;1601 x 762
H001;25;Vrouwelijk;Rechts;1;36;right;no;300;rightarrow;934;true;focus;no;855580;Chrome;112.0;Windows;10;undefined;undefined;1600 x 900;1601 x 762
H001;25;Vrouwelijk;Rechts;1;37;left;no;300;leftarrow;849;true;focus;no;857212;Chrome;112.0;Windows;10;undefined;undefined;1600 x 900;1601 x 762
H001;25;Vrouwelijk;Rechts;1;38;left;yes;300;undefined;null;true;focus;no;859250;Chrome;112.0;Windows;10;undefined;undefined;1600 x 900;1601 x 762
H001;25;Vrouwelijk;Rechts;1;39;right;yes;350;rightarrow;568;false;focus;no;860595;Chrome;112.0;Windows;10;undefined;undefined;1600 x 900;1601 x 762
H001;25;Vrouwelijk;Rechts;1;40;right;no;300;rightarrow;882;true;focus;no;862259;Chrome;112.0;Windows;10;undefined;undefined;1600 x 900;1601 x 762
H001;25;Vrouwelijk;Rechts;1;41;left;no;300;leftarrow;1232;true;focus;no;864259;Chrome;112.0;Windows;10;undefined;undefined;1600 x 900;1601 x 762
H001;25;Vrouwelijk;Rechts;1;42;right;no;300;rightarrow;1151;true;focus;no;866179;Chrome;112.0;Windows;10;undefined;undefined;1600 x 900;1601 x 762
H001;25;Vrouwelijk;Rechts;1;43;left;yes;300;undefined;null;true;focus;no;868220;Chrome;112.0;Windows;10;undefined;undefined;1600 x 900;1601 x 762
H001;25;Vrouwelijk;Rechts;1;44;right;yes;350;undefined;null;true;focus;no;870253;Chrome;112.0;Windows;10;undefined;undefined;1600 x 900;1601 x 762
H001;25;Vrouwelijk;Rechts;1;45;right;no;400;rightarrow;848;true;focus;no;871875;Chrome;112.0;Windows;10;undefined;undefined;1600 x 900;1601 x 762
H001;25;Vrouwelijk;Rechts;1;46;left;no;400;leftarrow;895;true;focus;no;873539;Chrome;112.0;Windows;10;undefined;undefined;1600 x 900;1601 x 762
H001;25;Vrouwelijk;Rechts;1;47;right;no;400;rightarrow;893;true;focus;no;875204;Chrome;112.0;Windows;10;undefined;undefined;1600 x 900;1601 x 762
H001;25;Vrouwelijk;Rechts;1;48;left;no;400;leftarrow;1130;true;focus;no;877107;Chrome;112.0;Windows;10;undefined;undefined;1600 x 900;1601 x 762
H001;25;Vrouwelijk;Rechts;1;49;left;no;400;leftarrow;1126;true;focus;no;879003;Chrome;112.0;Windows;10;undefined;undefined;1600 x 900;1601 x 762
H001;25;Vrouwelijk;Rechts;1;50;left;no;400;leftarrow;1025;true;focus;no;880803;Chrome;112.0;Windows;10;undefined;undefined;1600 x 900;1601 x 762
H001;25;Vrouwelijk;Rechts;1;51;right;no;400;rightarrow;650;true;focus;no;882227;Chrome;112.0;Windows;10;undefined;undefined;1600 x 900;1601 x 762
H001;25;Vrouwelijk;Rechts;1;52;right;no;400;rightarrow;1096;true;focus;no;884091;Chrome;112.0;Windows;10;undefined;undefined;1600 x 900;1601 x 762
H001;25;Vrouwelijk;Rechts;1;53;right;no;400;rightarrow;1039;true;focus;no;885899;Chrome;112.0;Windows;10;undefined;undefined;1600 x 900;1601 x 762
H001;25;Vrouwelijk;Rechts;1;54;left;yes;400;undefined;null;true;focus;no;887942;Chrome;112.0;Windows;10;undefined;undefined;1600 x 900;1601 x 762
H001;25;Vrouwelijk;Rechts;1;55;left;no;450;leftarrow;932;true;focus;no;889643;Chrome;112.0;Windows;10;undefined;undefined;1600 x 900;1601 x 762
H001;25;Vrouwelijk;Rechts;1;56;right;yes;450;undefined;null;true;focus;no;891674;Chrome;112.0;Windows;10;undefined;undefined;1600 x 900;1601 x 762
H001;25;Vrouwelijk;Rechts;1;57;left;no;500;leftarrow;1184;true;focus;no;893627;Chrome;112.0;Windows;10;undefined;undefined;1600 x 900;1601 x 762
H001;25;Vrouwelijk;Rechts;1;58;left;no;500;undefined;null;false;focus;no;895661;Chrome;112.0;Windows;10;undefined;undefined;1600 x 900;1601 x 762
H001;25;Vrouwelijk;Rechts;1;59;right;yes;500;rightarrow;752;false;focus;no;897195;Chrome;112.0;Windows;10;undefined;undefined;1600 x 900;1601 x 762
H001;25;Vrouwelijk;Rechts;1;60;left;yes;450;undefined;null;true;focus;no;899224;Chrome;112.0;Windows;10;undefined;undefined;1600 x 900;1601 x 762
H001;25;Vrouwelijk;Rechts;1;61;right;no;500;rightarrow;1137;true;focus;no;901131;Chrome;112.0;Windows;10;undefined;undefined;1600 x 900;1601 x 762
H001;25;Vrouwelijk;Rechts;1;62;right;no;500;rightarrow;637;true;focus;no;902547;Chrome;112.0;Windows;10;undefined;undefined;1600 x 900;1601 x 762
H001;25;Vrouwelijk;Rechts;1;63;left;no;500;leftarrow;804;true;focus;no;904131;Chrome;112.0;Windows;10;undefined;undefined;1600 x 900;1601 x 762
H001;25;Vrouwelijk;Rechts;1;64;right;no;500;rightarrow;572;true;focus;no;905483;Chrome;112.0;Windows;10;undefined;undefined;1600 x 900;1601 x 762
H001;25;Vrouwelijk;Rechts;1;65;left;no;500;leftarrow;1174;true;focus;no;907435;Chrome;112.0;Windows;10;undefined;undefined;1600 x 900;1601 x 762
H001;25;Vrouwelijk;Rechts;1;66;right;no;500;undefined;null;false;focus;no;909462;Chrome;112.0;Windows;10;undefined;undefined;1600 x 900;1601 x 762
H001;25;Vrouwelijk;Rechts;1;67;left;no;500;leftarrow;679;true;focus;no;910923;Chrome;112.0;Windows;10;undefined;undefined;1600 x 900;1601 x 762
H001;25;Vrouwelijk;Rechts;1;68;right;no;500;rightarrow;670;true;focus;no;912363;Chrome;112.0;Windows;10;undefined;undefined;1600 x 900;1601 x 762
H001;25;Vrouwelijk;Rechts;1;69;right;yes;500;rightarrow;540;false;focus;no;913683;Chrome;112.0;Windows;10;undefined;undefined;1600 x 900;1601 x 762
H001;25;Vrouwelijk;Rechts;1;70;right;no;450;rightarrow;799;true;focus;no;915259;Chrome;112.0;Windows;10;undefined;undefined;1600 x 900;1601 x 762
H001;25;Vrouwelijk;Rechts;1;71;left;yes;450;leftarrow;615;false;focus;no;916643;Chrome;112.0;Windows;10;undefined;undefined;1600 x 900;1601 x 762
H001;25;Vrouwelijk;Rechts;1;72;left;no;400;leftarrow;904;true;focus;no;918315;Chrome;112.0;Windows;10;undefined;undefined;1600 x 900;1601 x 762
H001;25;Vrouwelijk;Rechts;1;73;left;no;400;leftarrow;828;true;focus;no;919921;Chrome;112.0;Windows;10;undefined;undefined;1600 x 900;1601 x 762
H001;25;Vrouwelijk;Rechts;1;74;left;yes;400;leftarrow;653;false;focus;no;921353;Chrome;112.0;Windows;10;undefined;undefined;1600 x 900;1601 x 762
H001;25;Vrouwelijk;Rechts;1;75;right;yes;350;undefined;null;true;focus;no;923385;Chrome;112.0;Windows;10;undefined;undefined;1600 x 900;1601 x 762
H001;25;Vrouwelijk;Rechts;1;76;right;no;400;rightarrow;706;true;focus;no;924873;Chrome;112.0;Windows;10;undefined;undefined;1600 x 900;1601 x 762
H001;25;Vrouwelijk;Rechts;1;77;left;no;400;leftarrow;767;true;focus;no;926418;Chrome;112.0;Windows;10;undefined;undefined;1600 x 900;1601 x 762
H001;25;Vrouwelijk;Rechts;1;78;right;no;400;rightarrow;769;true;focus;no;927969;Chrome;112.0;Windows;10;undefined;undefined;1600 x 900;1601 x 762
H001;25;Vrouwelijk;Rechts;1;79;left;no;400;leftarrow;851;true;focus;no;929601;Chrome;112.0;Windows;10;undefined;undefined;1600 x 900;1601 x 762
H001;25;Vrouwelijk;Rechts;1;80;right;no;400;rightarrow;714;true;focus;no;931097;Chrome;112.0;Windows;10;undefined;undefined;1600 x 900;1601 x 762
H001;25;Vrouwelijk;Rechts;1;81;right;no;400;rightarrow;639;true;focus;no;932505;Chrome;112.0;Windows;10;undefined;undefined;1600 x 900;1601 x 762
H001;25;Vrouwelijk;Rechts;1;82;left;no;400;leftarrow;742;true;focus;no;934025;Chrome;112.0;Windows;10;undefined;undefined;1600 x 900;1601 x 762
H001;25;Vrouwelijk;Rechts;1;83;left;no;400;leftarrow;1017;true;focus;no;935818;Chrome;112.0;Windows;10;undefined;undefined;1600 x 900;1601 x 762
H001;25;Vrouwelijk;Rechts;1;84;right;no;400;rightarrow;753;true;focus;no;937353;Chrome;112.0;Windows;10;undefined;undefined;1600 x 900;1601 x 762
H001;25;Vrouwelijk;Rechts;1;85;left;yes;400;undefined;null;true;focus;no;939395;Chrome;112.0;Windows;10;undefined;undefined;1600 x 900;1601 x 762
H001;25;Vrouwelijk;Rechts;1;86;right;no;450;rightarrow;628;true;focus;no;940794;Chrome;112.0;Windows;10;undefined;undefined;1600 x 900;1601 x 762
H001;25;Vrouwelijk;Rechts;1;87;right;yes;450;undefined;null;true;focus;no;942825;Chrome;112.0;Windows;10;undefined;undefined;1600 x 900;1601 x 762
H001;25;Vrouwelijk;Rechts;1;88;left;no;500;leftarrow;937;true;focus;no;944537;Chrome;112.0;Windows;10;undefined;undefined;1600 x 900;1601 x 762
H001;25;Vrouwelijk;Rechts;1;89;right;no;500;undefined;null;false;focus;no;946568;Chrome;112.0;Windows;10;undefined;undefined;1600 x 900;1601 x 762
H001;25;Vrouwelijk;Rechts;1;90;left;no;500;leftarrow;443;true;focus;no;947793;Chrome;112.0;Windows;10;undefined;undefined;1600 x 900;1601 x 762
H001;25;Vrouwelijk;Rechts;1;91;left;yes;500;undefined;null;true;focus;no;949818;Chrome;112.0;Windows;10;undefined;undefined;1600 x 900;1601 x 762
H001;25;Vrouwelijk;Rechts;1;92;right;no;550;rightarrow;737;true;focus;no;951337;Chrome;112.0;Windows;10;undefined;undefined;1600 x 900;1601 x 762
H001;25;Vrouwelijk;Rechts;1;93;right;yes;550;undefined;null;true;focus;no;953371;Chrome;112.0;Windows;10;undefined;undefined;1600 x 900;1601 x 762
H001;25;Vrouwelijk;Rechts;1;94;right;no;600;rightarrow;459;true;focus;no;954609;Chrome;112.0;Windows;10;undefined;undefined;1600 x 900;1601 x 762
H001;25;Vrouwelijk;Rechts;1;95;left;no;600;leftarrow;810;true;focus;no;956193;Chrome;112.0;Windows;10;undefined;undefined;1600 x 900;1601 x 762
H001;25;Vrouwelijk;Rechts;1;96;left;no;600;undefined;null;false;focus;no;958218;Chrome;112.0;Windows;10;undefined;undefined;1600 x 900;1601 x 762
H001;25;Vrouwelijk;Rechts;1;97;right;no;600;rightarrow;481;true;focus;no;959481;Chrome;112.0;Windows;10;undefined;undefined;1600 x 900;1601 x 762
H001;25;Vrouwelijk;Rechts;1;98;right;no;600;rightarrow;712;true;focus;no;960961;Chrome;112.0;Windows;10;undefined;undefined;1600 x 900;1601 x 762
H001;25;Vrouwelijk;Rechts;1;99;right;yes;600;rightarrow;620;false;focus;no;962353;Chrome;112.0;Windows;10;undefined;undefined;1600 x 900;1601 x 762
H001;25;Vrouwelijk;Rechts;1;100;left;no;550;leftarrow;860;true;focus;no;963993;Chrome;112.0;Windows;10;undefined;undefined;1600 x 900;1601 x 762
H001;25;Vrouwelijk;Rechts;1;101;left;no;550;leftarrow;747;true;focus;no;965513;Chrome;112.0;Windows;10;undefined;undefined;1600 x 900;1601 x 762
H001;25;Vrouwelijk;Rechts;1;102;right;no;550;rightarrow;950;true;focus;no;967233;Chrome;112.0;Windows;10;undefined;undefined;1600 x 900;1601 x 762
H001;25;Vrouwelijk;Rechts;1;103;left;no;550;leftarrow;554;true;focus;no;968553;Chrome;112.0;Windows;10;undefined;undefined;1600 x 900;1601 x 762
H001;25;Vrouwelijk;Rechts;1;104;left;yes;550;leftarrow;749;false;focus;no;970082;Chrome;112.0;Windows;10;undefined;undefined;1600 x 900;1601 x 762
H001;25;Vrouwelijk;Rechts;1;105;left;no;500;leftarrow;983;true;focus;no;971833;Chrome;112.0;Windows;10;undefined;undefined;1600 x 900;1601 x 762
H001;25;Vrouwelijk;Rechts;1;106;left;yes;500;undefined;null;true;focus;no;973868;Chrome;112.0;Windows;10;undefined;undefined;1600 x 900;1601 x 762
H001;25;Vrouwelijk;Rechts;1;107;right;no;550;rightarrow;696;true;focus;no;975345;Chrome;112.0;Windows;10;undefined;undefined;1600 x 900;1601 x 762
H001;25;Vrouwelijk;Rechts;1;108;right;no;550;rightarrow;965;true;focus;no;977081;Chrome;112.0;Windows;10;undefined;undefined;1600 x 900;1601 x 762
H001;25;Vrouwelijk;Rechts;1;109;left;no;550;leftarrow;734;true;focus;no;978585;Chrome;112.0;Windows;10;undefined;undefined;1600 x 900;1601 x 762
H001;25;Vrouwelijk;Rechts;1;110;left;no;550;leftarrow;679;true;focus;no;980045;Chrome;112.0;Windows;10;undefined;undefined;1600 x 900;1601 x 762
H001;25;Vrouwelijk;Rechts;1;111;right;yes;550;rightarrow;658;false;focus;no;981477;Chrome;112.0;Windows;10;undefined;undefined;1600 x 900;1601 x 762
H001;25;Vrouwelijk;Rechts;1;112;right;no;500;rightarrow;1121;true;focus;no;983373;Chrome;112.0;Windows;10;undefined;undefined;1600 x 900;1601 x 762
H001;25;Vrouwelijk;Rechts;1;113;left;no;500;leftarrow;1149;true;focus;no;985301;Chrome;112.0;Windows;10;undefined;undefined;1600 x 900;1601 x 762
H001;25;Vrouwelijk;Rechts;1;114;left;no;500;leftarrow;944;true;focus;no;987013;Chrome;112.0;Windows;10;undefined;undefined;1600 x 900;1601 x 762
H001;25;Vrouwelijk;Rechts;1;115;left;no;500;leftarrow;1058;true;focus;no;988837;Chrome;112.0;Windows;10;undefined;undefined;1600 x 900;1601 x 762
H001;25;Vrouwelijk;Rechts;1;116;right;no;500;rightarrow;682;true;focus;no;990301;Chrome;112.0;Windows;10;undefined;undefined;1600 x 900;1601 x 762
H001;25;Vrouwelijk;Rechts;1;117;right;no;500;undefined;null;false;focus;no;992320;Chrome;112.0;Windows;10;undefined;undefined;1600 x 900;1601 x 762
H001;25;Vrouwelijk;Rechts;1;118;right;no;500;rightarrow;920;true;focus;no;994005;Chrome;112.0;Windows;10;undefined;undefined;1600 x 900;1601 x 762
H001;25;Vrouwelijk;Rechts;1;119;left;yes;500;leftarrow;675;false;focus;no;995461;Chrome;112.0;Windows;10;undefined;undefined;1600 x 900;1601 x 762
H001;25;Vrouwelijk;Rechts;1;120;right;yes;450;undefined;null;true;focus;no;997499;Chrome;112.0;Windows;10;undefined;undefined;1600 x 900;1601 x 762
H001;25;Vrouwelijk;Rechts;1;121;right;no;500;rightarrow;720;true;focus;no;998989;Chrome;112.0;Windows;10;undefined;undefined;1600 x 900;1601 x 762
H001;25;Vrouwelijk;Rechts;1;122;left;no;500;undefined;null;false;focus;no;1001020;Chrome;112.0;Windows;10;undefined;undefined;1600 x 900;1601 x 762
H001;25;Vrouwelijk;Rechts;1;123;left;no;500;leftarrow;867;true;focus;no;1002669;Chrome;112.0;Windows;10;undefined;undefined;1600 x 900;1601 x 762
H001;25;Vrouwelijk;Rechts;1;124;left;yes;500;undefined;null;true;focus;no;1004687;Chrome;112.0;Windows;10;undefined;undefined;1600 x 900;1601 x 762
H001;25;Vrouwelijk;Rechts;1;125;left;no;550;undefined;null;false;focus;no;1006720;Chrome;112.0;Windows;10;undefined;undefined;1600 x 900;1601 x 762
H001;25;Vrouwelijk;Rechts;1;126;right;no;550;rightarrow;551;true;focus;no;1008053;Chrome;112.0;Windows;10;undefined;undefined;1600 x 900;1601 x 762
H001;25;Vrouwelijk;Rechts;1;127;right;no;550;rightarrow;970;true;focus;no;1009805;Chrome;112.0;Windows;10;undefined;undefined;1600 x 900;1601 x 762
H001;25;Vrouwelijk;Rechts;1;128;right;yes;550;undefined;null;true;focus;no;1011842;Chrome;112.0;Windows;10;undefined;undefined;1600 x 900;1601 x 762
H001;25;Vrouwelijk;Rechts;2;1;left;no;600;leftarrow;744;true;focus;no;1439599;Chrome;112.0;Windows;10;undefined;undefined;1600 x 900;1601 x 762
H001;25;Vrouwelijk;Rechts;2;2;right;no;600;rightarrow;679;true;focus;no;1441039;Chrome;112.0;Windows;10;undefined;undefined;1600 x 900;1601 x 762
H001;25;Vrouwelijk;Rechts;2;3;left;yes;600;leftarrow;730;false;focus;no;1442551;Chrome;112.0;Windows;10;undefined;undefined;1600 x 900;1601 x 762
H001;25;Vrouwelijk;Rechts;2;4;right;no;550;rightarrow;831;true;focus;no;1444152;Chrome;112.0;Windows;10;undefined;undefined;1600 x 900;1601 x 762
H001;25;Vrouwelijk;Rechts;2;5;left;no;550;undefined;null;false;focus;no;1446172;Chrome;112.0;Windows;10;undefined;undefined;1600 x 900;1601 x 762
H001;25;Vrouwelijk;Rechts;2;6;left;no;550;leftarrow;933;true;focus;no;1447887;Chrome;112.0;Windows;10;undefined;undefined;1600 x 900;1601 x 762
H001;25;Vrouwelijk;Rechts;2;7;right;yes;550;rightarrow;864;false;focus;no;1449535;Chrome;112.0;Windows;10;undefined;undefined;1600 x 900;1601 x 762
H001;25;Vrouwelijk;Rechts;2;8;right;no;500;rightarrow;727;true;focus;no;1451031;Chrome;112.0;Windows;10;undefined;undefined;1600 x 900;1601 x 762
H001;25;Vrouwelijk;Rechts;2;9;right;no;500;rightarrow;795;true;focus;no;1452599;Chrome;112.0;Windows;10;undefined;undefined;1600 x 900;1601 x 762
H001;25;Vrouwelijk;Rechts;2;10;left;no;500;leftarrow;732;true;focus;no;1454103;Chrome;112.0;Windows;10;undefined;undefined;1600 x 900;1601 x 762
H001;25;Vrouwelijk;Rechts;2;11;right;no;500;rightarrow;784;true;focus;no;1455655;Chrome;112.0;Windows;10;undefined;undefined;1600 x 900;1601 x 762
H001;25;Vrouwelijk;Rechts;2;12;left;yes;500;leftarrow;674;false;focus;no;1457111;Chrome;112.0;Windows;10;undefined;undefined;1600 x 900;1601 x 762
H001;25;Vrouwelijk;Rechts;2;13;right;no;450;rightarrow;1047;true;focus;no;1458935;Chrome;112.0;Windows;10;undefined;undefined;1600 x 900;1601 x 762
H001;25;Vrouwelijk;Rechts;2;14;right;yes;450;undefined;null;true;blur;no;1461370;Chrome;112.0;Windows;10;undefined;undefined;1600 x 900;1601 x 762
H001;25;Vrouwelijk;Rechts;2;15;left;no;500;undefined;null;false;blur;no;1465371;Chrome;112.0;Windows;10;undefined;undefined;1600 x 900;1601 x 762
H001;25;Vrouwelijk;Rechts;2;16;left;no;500;undefined;null;false;blur;no;1469376;Chrome;112.0;Windows;10;undefined;undefined;1600 x 900;1601 x 762
H001;25;Vrouwelijk;Rechts;2;17;right;no;500;undefined;null;false;blur;no;1473376;Chrome;112.0;Windows;10;undefined;undefined;1600 x 900;1601 x 762
H001;25;Vrouwelijk;Rechts;2;18;left;no;500;undefined;null;false;blur;no;1477375;Chrome;112.0;Windows;10;undefined;undefined;1600 x 900;1601 x 762
H001;25;Vrouwelijk;Rechts;2;19;right;yes;500;undefined;null;true;focus;no;1480893;Chrome;112.0;Windows;10;undefined;undefined;1600 x 900;1601 x 762
H001;25;Vrouwelijk;Rechts;2;20;left;yes;550;leftarrow;496;false;focus;no;1482151;Chrome;112.0;Windows;10;undefined;undefined;1600 x 900;1601 x 762
H001;25;Vrouwelijk;Rechts;2;21;left;no;500;leftarrow;854;true;focus;no;1483775;Chrome;112.0;Windows;10;undefined;undefined;1600 x 900;1601 x 762
H001;25;Vrouwelijk;Rechts;2;22;right;no;500;rightarrow;573;true;focus;no;1485127;Chrome;112.0;Windows;10;undefined;undefined;1600 x 900;1601 x 762
H001;25;Vrouwelijk;Rechts;2;23;left;no;500;leftarrow;314;true;focus;no;1486207;Chrome;112.0;Windows;10;undefined;undefined;1600 x 900;1601 x 762
H001;25;Vrouwelijk;Rechts;2;24;right;no;500;rightarrow;364;true;focus;no;1487351;Chrome;112.0;Windows;10;undefined;undefined;1600 x 900;1601 x 762
H001;25;Vrouwelijk;Rechts;2;25;right;no;500;rightarrow;902;true;focus;no;1489023;Chrome;112.0;Windows;10;undefined;undefined;1600 x 900;1601 x 762
H001;25;Vrouwelijk;Rechts;2;26;left;no;500;leftarrow;859;true;focus;no;1490663;Chrome;112.0;Windows;10;undefined;undefined;1600 x 900;1601 x 762
H001;25;Vrouwelijk;Rechts;2;27;right;yes;500;rightarrow;738;false;focus;no;1492175;Chrome;112.0;Windows;10;undefined;undefined;1600 x 900;1601 x 762
H001;25;Vrouwelijk;Rechts;2;28;right;no;450;rightarrow;597;true;focus;no;1493552;Chrome;112.0;Windows;10;undefined;undefined;1600 x 900;1601 x 762
H001;25;Vrouwelijk;Rechts;2;29;right;no;450;rightarrow;876;true;focus;no;1495196;Chrome;112.0;Windows;10;undefined;undefined;1600 x 900;1601 x 762
H001;25;Vrouwelijk;Rechts;2;30;left;no;450;leftarrow;741;true;focus;no;1496716;Chrome;112.0;Windows;10;undefined;undefined;1600 x 900;1601 x 762
H001;25;Vrouwelijk;Rechts;2;31;left;yes;450;undefined;null;true;focus;no;1498757;Chrome;112.0;Windows;10;undefined;undefined;1600 x 900;1601 x 762
H001;25;Vrouwelijk;Rechts;2;32;left;no;500;leftarrow;759;true;focus;no;1500284;Chrome;112.0;Windows;10;undefined;undefined;1600 x 900;1601 x 762
H001;25;Vrouwelijk;Rechts;2;33;right;no;500;rightarrow;1090;true;focus;no;1502148;Chrome;112.0;Windows;10;undefined;undefined;1600 x 900;1601 x 762
H001;25;Vrouwelijk;Rechts;2;34;right;no;500;rightarrow;1015;true;focus;no;1503940;Chrome;112.0;Windows;10;undefined;undefined;1600 x 900;1601 x 762
H001;25;Vrouwelijk;Rechts;2;35;left;no;500;undefined;null;false;focus;no;1505960;Chrome;112.0;Windows;10;undefined;undefined;1600 x 900;1601 x 762
H001;25;Vrouwelijk;Rechts;2;36;left;yes;500;leftarrow;462;false;focus;no;1507204;Chrome;112.0;Windows;10;undefined;undefined;1600 x 900;1601 x 762
H001;25;Vrouwelijk;Rechts;2;37;left;no;450;leftarrow;741;true;focus;no;1508716;Chrome;112.0;Windows;10;undefined;undefined;1600 x 900;1601 x 762
H001;25;Vrouwelijk;Rechts;2;38;left;no;450;leftarrow;568;true;focus;no;1510060;Chrome;112.0;Windows;10;undefined;undefined;1600 x 900;1601 x 762
H001;25;Vrouwelijk;Rechts;2;39;right;yes;450;rightarrow;682;false;focus;no;1511524;Chrome;112.0;Windows;10;undefined;undefined;1600 x 900;1601 x 762
H001;25;Vrouwelijk;Rechts;2;40;right;no;400;rightarrow;864;true;focus;no;1513156;Chrome;112.0;Windows;10;undefined;undefined;1600 x 900;1601 x 762
H001;25;Vrouwelijk;Rechts;2;41;right;no;400;rightarrow;613;true;focus;no;1514556;Chrome;112.0;Windows;10;undefined;undefined;1600 x 900;1601 x 762
H001;25;Vrouwelijk;Rechts;2;42;right;no;400;rightarrow;588;true;focus;no;1515932;Chrome;112.0;Windows;10;undefined;undefined;1600 x 900;1601 x 762
H001;25;Vrouwelijk;Rechts;2;43;left;no;400;leftarrow;679;true;focus;no;1517388;Chrome;112.0;Windows;10;undefined;undefined;1600 x 900;1601 x 762
H001;25;Vrouwelijk;Rechts;2;44;left;yes;400;undefined;null;true;focus;no;1519404;Chrome;112.0;Windows;10;undefined;undefined;1600 x 900;1601 x 762
H001;25;Vrouwelijk;Rechts;2;45;right;no;450;rightarrow;522;true;focus;no;1520692;Chrome;112.0;Windows;10;undefined;undefined;1600 x 900;1601 x 762
H001;25;Vrouwelijk;Rechts;2;46;left;no;450;leftarrow;810;true;focus;no;1522268;Chrome;112.0;Windows;10;undefined;undefined;1600 x 900;1601 x 762
H001;25;Vrouwelijk;Rechts;2;47;right;yes;450;undefined;null;true;focus;no;1524294;Chrome;112.0;Windows;10;undefined;undefined;1600 x 900;1601 x 762
H001;25;Vrouwelijk;Rechts;2;48;left;no;500;undefined;null;false;focus;no;1526326;Chrome;112.0;Windows;10;undefined;undefined;1600 x 900;1601 x 762
H001;25;Vrouwelijk;Rechts;2;49;right;no;500;rightarrow;872;true;focus;no;1527980;Chrome;112.0;Windows;10;undefined;undefined;1600 x 900;1601 x 762
H001;25;Vrouwelijk;Rechts;2;50;right;no;500;undefined;null;false;focus;no;1530009;Chrome;112.0;Windows;10;undefined;undefined;1600 x 900;1601 x 762
H001;25;Vrouwelijk;Rechts;2;51;left;no;500;undefined;null;false;focus;no;1532042;Chrome;112.0;Windows;10;undefined;undefined;1600 x 900;1601 x 762
H001;25;Vrouwelijk;Rechts;2;52;left;no;500;undefined;null;false;focus;no;1534077;Chrome;112.0;Windows;10;undefined;undefined;1600 x 900;1601 x 762
H001;25;Vrouwelijk;Rechts;2;53;left;no;500;undefined;null;false;focus;no;1536125;Chrome;112.0;Windows;10;undefined;undefined;1600 x 900;1601 x 762
H001;25;Vrouwelijk;Rechts;2;54;left;yes;500;undefined;null;true;focus;no;1538171;Chrome;112.0;Windows;10;undefined;undefined;1600 x 900;1601 x 762
H001;25;Vrouwelijk;Rechts;2;55;right;no;550;undefined;null;false;focus;no;1540193;Chrome;112.0;Windows;10;undefined;undefined;1600 x 900;1601 x 762
H001;25;Vrouwelijk;Rechts;2;56;right;yes;550;undefined;null;true;focus;no;1542231;Chrome;112.0;Windows;10;undefined;undefined;1600 x 900;1601 x 762
H001;25;Vrouwelijk;Rechts;2;57;right;no;600;undefined;null;false;focus;no;1544259;Chrome;112.0;Windows;10;undefined;undefined;1600 x 900;1601 x 762
H001;25;Vrouwelijk;Rechts;2;58;left;no;600;leftarrow;771;true;focus;no;1545812;Chrome;112.0;Windows;10;undefined;undefined;1600 x 900;1601 x 762
H001;25;Vrouwelijk;Rechts;2;59;left;yes;600;leftarrow;484;false;focus;no;1547076;Chrome;112.0;Windows;10;undefined;undefined;1600 x 900;1601 x 762
H001;25;Vrouwelijk;Rechts;2;60;right;yes;550;rightarrow;546;false;focus;no;1548404;Chrome;112.0;Windows;10;undefined;undefined;1600 x 900;1601 x 762
H001;25;Vrouwelijk;Rechts;2;61;left;no;500;leftarrow;445;true;focus;no;1549620;Chrome;112.0;Windows;10;undefined;undefined;1600 x 900;1601 x 762
H001;25;Vrouwelijk;Rechts;2;62;left;no;500;leftarrow;429;true;focus;no;1550820;Chrome;112.0;Windows;10;undefined;undefined;1600 x 900;1601 x 762
H001;25;Vrouwelijk;Rechts;2;63;right;no;500;rightarrow;725;true;focus;no;1552316;Chrome;112.0;Windows;10;undefined;undefined;1600 x 900;1601 x 762
H001;25;Vrouwelijk;Rechts;2;64;right;no;500;rightarrow;1004;true;focus;no;1554100;Chrome;112.0;Windows;10;undefined;undefined;1600 x 900;1601 x 762
H001;25;Vrouwelijk;Rechts;2;65;left;no;500;leftarrow;556;true;focus;no;1555431;Chrome;112.0;Windows;10;undefined;undefined;1600 x 900;1601 x 762
H001;25;Vrouwelijk;Rechts;2;66;left;no;500;leftarrow;565;true;focus;no;1556759;Chrome;112.0;Windows;10;undefined;undefined;1600 x 900;1601 x 762
H001;25;Vrouwelijk;Rechts;2;67;right;no;500;rightarrow;1030;true;focus;no;1558543;Chrome;112.0;Windows;10;undefined;undefined;1600 x 900;1601 x 762
H001;25;Vrouwelijk;Rechts;2;68;left;no;500;leftarrow;528;true;focus;no;1559839;Chrome;112.0;Windows;10;undefined;undefined;1600 x 900;1601 x 762
H001;25;Vrouwelijk;Rechts;2;69;right;no;500;rightarrow;525;true;focus;no;1561135;Chrome;112.0;Windows;10;undefined;undefined;1600 x 900;1601 x 762
H001;25;Vrouwelijk;Rechts;2;70;right;no;500;rightarrow;528;true;focus;no;1562439;Chrome;112.0;Windows;10;undefined;undefined;1600 x 900;1601 x 762
H001;25;Vrouwelijk;Rechts;2;71;left;yes;500;leftarrow;445;false;focus;no;1563655;Chrome;112.0;Windows;10;undefined;undefined;1600 x 900;1601 x 762
H001;25;Vrouwelijk;Rechts;2;72;right;yes;450;rightarrow;516;false;focus;no;1564943;Chrome;112.0;Windows;10;undefined;undefined;1600 x 900;1601 x 762
H001;25;Vrouwelijk;Rechts;2;73;right;no;400;rightarrow;536;true;focus;no;1566247;Chrome;112.0;Windows;10;undefined;undefined;1600 x 900;1601 x 762
H001;25;Vrouwelijk;Rechts;2;74;right;yes;400;rightarrow;532;false;focus;no;1567559;Chrome;112.0;Windows;10;undefined;undefined;1600 x 900;1601 x 762
H001;25;Vrouwelijk;Rechts;2;75;right;no;350;rightarrow;678;true;focus;no;1568999;Chrome;112.0;Windows;10;undefined;undefined;1600 x 900;1601 x 762
H001;25;Vrouwelijk;Rechts;2;76;left;no;350;leftarrow;478;true;focus;no;1570255;Chrome;112.0;Windows;10;undefined;undefined;1600 x 900;1601 x 762
H001;25;Vrouwelijk;Rechts;2;77;right;no;350;rightarrow;676;true;focus;no;1571703;Chrome;112.0;Windows;10;undefined;undefined;1600 x 900;1601 x 762
H001;25;Vrouwelijk;Rechts;2;78;left;yes;350;undefined;null;true;focus;no;1573736;Chrome;112.0;Windows;10;undefined;undefined;1600 x 900;1601 x 762
H001;25;Vrouwelijk;Rechts;2;79;left;no;400;leftarrow;953;true;focus;no;1575463;Chrome;112.0;Windows;10;undefined;undefined;1600 x 900;1601 x 762
H001;25;Vrouwelijk;Rechts;2;80;left;no;400;leftarrow;675;true;focus;no;1576919;Chrome;112.0;Windows;10;undefined;undefined;1600 x 900;1601 x 762
H001;25;Vrouwelijk;Rechts;2;81;right;yes;400;undefined;null;true;focus;no;1578954;Chrome;112.0;Windows;10;undefined;undefined;1600 x 900;1601 x 762
H001;25;Vrouwelijk;Rechts;2;82;left;yes;450;leftarrow;584;false;focus;no;1580311;Chrome;112.0;Windows;10;undefined;undefined;1600 x 900;1601 x 762
H001;25;Vrouwelijk;Rechts;2;83;left;no;400;leftarrow;674;true;focus;no;1581767;Chrome;112.0;Windows;10;undefined;undefined;1600 x 900;1601 x 762
H001;25;Vrouwelijk;Rechts;2;84;right;no;400;rightarrow;679;true;focus;no;1583223;Chrome;112.0;Windows;10;undefined;undefined;1600 x 900;1601 x 762
H001;25;Vrouwelijk;Rechts;2;85;left;no;400;leftarrow;813;true;focus;no;1584807;Chrome;112.0;Windows;10;undefined;undefined;1600 x 900;1601 x 762
H001;25;Vrouwelijk;Rechts;2;86;right;no;400;rightarrow;470;true;focus;no;1586047;Chrome;112.0;Windows;10;undefined;undefined;1600 x 900;1601 x 762
H001;25;Vrouwelijk;Rechts;2;87;right;no;400;rightarrow;668;true;focus;no;1587495;Chrome;112.0;Windows;10;undefined;undefined;1600 x 900;1601 x 762
H001;25;Vrouwelijk;Rechts;2;88;left;no;400;leftarrow;757;true;focus;no;1589023;Chrome;112.0;Windows;10;undefined;undefined;1600 x 900;1601 x 762
H001;25;Vrouwelijk;Rechts;2;89;left;yes;400;undefined;null;true;focus;no;1591055;Chrome;112.0;Windows;10;undefined;undefined;1600 x 900;1601 x 762
H001;25;Vrouwelijk;Rechts;2;90;right;no;450;rightarrow;700;true;focus;no;1592527;Chrome;112.0;Windows;10;undefined;undefined;1600 x 900;1601 x 762
H001;25;Vrouwelijk;Rechts;2;91;left;no;450;leftarrow;517;true;focus;no;1593799;Chrome;112.0;Windows;10;undefined;undefined;1600 x 900;1601 x 762
H001;25;Vrouwelijk;Rechts;2;92;left;no;450;leftarrow;606;true;focus;no;1595183;Chrome;112.0;Windows;10;undefined;undefined;1600 x 900;1601 x 762
H001;25;Vrouwelijk;Rechts;2;93;right;no;450;rightarrow;933;true;focus;no;1596879;Chrome;112.0;Windows;10;undefined;undefined;1600 x 900;1601 x 762
H001;25;Vrouwelijk;Rechts;2;94;left;no;450;leftarrow;707;true;focus;no;1598367;Chrome;112.0;Windows;10;undefined;undefined;1600 x 900;1601 x 762
H001;25;Vrouwelijk;Rechts;2;95;right;no;450;rightarrow;743;true;focus;no;1599887;Chrome;112.0;Windows;10;undefined;undefined;1600 x 900;1601 x 762
H001;25;Vrouwelijk;Rechts;2;96;right;yes;450;undefined;null;true;focus;no;1601924;Chrome;112.0;Windows;10;undefined;undefined;1600 x 900;1601 x 762
H001;25;Vrouwelijk;Rechts;2;97;left;no;500;undefined;null;false;blur;no;1604399;Chrome;112.0;Windows;10;undefined;undefined;1600 x 900;1601 x 762
H001;25;Vrouwelijk;Rechts;2;98;right;no;500;undefined;null;false;blur;no;1608401;Chrome;112.0;Windows;10;undefined;undefined;1600 x 900;1601 x 762
H001;25;Vrouwelijk;Rechts;2;99;left;no;500;undefined;null;false;blur;no;1612399;Chrome;112.0;Windows;10;undefined;undefined;1600 x 900;1601 x 762
H001;25;Vrouwelijk;Rechts;2;100;right;yes;500;undefined;null;true;blur;no;1616411;Chrome;112.0;Windows;10;undefined;undefined;1600 x 900;1601 x 762
H001;25;Vrouwelijk;Rechts;2;101;right;no;550;undefined;null;false;blur;no;1620411;Chrome;112.0;Windows;10;undefined;undefined;1600 x 900;1601 x 762
H001;25;Vrouwelijk;Rechts;2;102;left;no;550;leftarrow;919;true;focus;no;1622210;Chrome;112.0;Windows;10;undefined;undefined;1600 x 900;1601 x 762
H001;25;Vrouwelijk;Rechts;2;103;right;no;550;rightarrow;518;true;focus;no;1623497;Chrome;112.0;Windows;10;undefined;undefined;1600 x 900;1601 x 762
H001;25;Vrouwelijk;Rechts;2;104;left;yes;550;undefined;null;true;focus;no;1625535;Chrome;112.0;Windows;10;undefined;undefined;1600 x 900;1601 x 762
H001;25;Vrouwelijk;Rechts;2;105;right;no;600;rightarrow;1121;true;focus;no;1627434;Chrome;112.0;Windows;10;undefined;undefined;1600 x 900;1601 x 762
H001;25;Vrouwelijk;Rechts;2;106;left;no;600;leftarrow;787;true;focus;no;1628985;Chrome;112.0;Windows;10;undefined;undefined;1600 x 900;1601 x 762
H001;25;Vrouwelijk;Rechts;2;107;left;no;600;leftarrow;551;true;focus;no;1630314;Chrome;112.0;Windows;10;undefined;undefined;1600 x 900;1601 x 762
H001;25;Vrouwelijk;Rechts;2;108;left;yes;600;leftarrow;841;false;focus;no;1631922;Chrome;112.0;Windows;10;undefined;undefined;1600 x 900;1601 x 762
H001;25;Vrouwelijk;Rechts;2;109;right;no;550;undefined;null;false;blur;no;1634412;Chrome;112.0;Windows;10;undefined;undefined;1600 x 900;1601 x 762
H001;25;Vrouwelijk;Rechts;2;110;right;no;550;undefined;null;false;focus;no;1637925;Chrome;112.0;Windows;10;undefined;undefined;1600 x 900;1601 x 762
H001;25;Vrouwelijk;Rechts;2;111;left;no;550;leftarrow;754;true;focus;no;1639449;Chrome;112.0;Windows;10;undefined;undefined;1600 x 900;1601 x 762
H001;25;Vrouwelijk;Rechts;2;112;right;yes;550;undefined;null;true;blur;no;1642414;Chrome;112.0;Windows;10;undefined;undefined;1600 x 900;1601 x 762
H001;25;Vrouwelijk;Rechts;2;113;left;yes;600;undefined;null;true;blur;no;1646412;Chrome;112.0;Windows;10;undefined;undefined;1600 x 900;1601 x 762
H001;25;Vrouwelijk;Rechts;2;114;right;no;650;undefined;null;false;blur;no;1650415;Chrome;112.0;Windows;10;undefined;undefined;1600 x 900;1601 x 762
H001;25;Vrouwelijk;Rechts;2;115;right;no;650;undefined;null;false;blur;no;1654416;Chrome;112.0;Windows;10;undefined;undefined;1600 x 900;1601 x 762
H001;25;Vrouwelijk;Rechts;2;116;left;no;650;undefined;null;false;blur;no;1658418;Chrome;112.0;Windows;10;undefined;undefined;1600 x 900;1601 x 762
H001;25;Vrouwelijk;Rechts;2;117;right;yes;650;undefined;null;true;focus;no;1661923;Chrome;112.0;Windows;10;undefined;undefined;1600 x 900;1601 x 762
H001;25;Vrouwelijk;Rechts;2;118;left;no;700;leftarrow;331;true;focus;no;1663026;Chrome;112.0;Windows;10;undefined;undefined;1600 x 900;1601 x 762
H001;25;Vrouwelijk;Rechts;2;119;right;no;700;rightarrow;430;true;focus;no;1664225;Chrome;112.0;Windows;10;undefined;undefined;1600 x 900;1601 x 762
H001;25;Vrouwelijk;Rechts;2;120;left;no;700;leftarrow;302;true;focus;no;1665298;Chrome;112.0;Windows;10;undefined;undefined;1600 x 900;1601 x 762
H001;25;Vrouwelijk;Rechts;2;121;left;yes;700;leftarrow;419;false;focus;no;1666497;Chrome;112.0;Windows;10;undefined;undefined;1600 x 900;1601 x 762
H001;25;Vrouwelijk;Rechts;2;122;right;yes;650;rightarrow;403;false;focus;no;1667682;Chrome;112.0;Windows;10;undefined;undefined;1600 x 900;1601 x 762
H001;25;Vrouwelijk;Rechts;2;123;left;no;600;leftarrow;395;true;focus;no;1668857;Chrome;112.0;Windows;10;undefined;undefined;1600 x 900;1601 x 762
H001;25;Vrouwelijk;Rechts;2;124;right;no;600;rightarrow;421;true;focus;no;1670049;Chrome;112.0;Windows;10;undefined;undefined;1600 x 900;1601 x 762
H001;25;Vrouwelijk;Rechts;2;125;left;no;600;leftarrow;325;true;focus;no;1671153;Chrome;112.0;Windows;10;undefined;undefined;1600 x 900;1601 x 762
H001;25;Vrouwelijk;Rechts;2;126;right;no;600;rightarrow;409;true;focus;no;1672337;Chrome;112.0;Windows;10;undefined;undefined;1600 x 900;1601 x 762
H001;25;Vrouwelijk;Rechts;2;127;left;no;600;leftarrow;249;true;focus;no;1673362;Chrome;112.0;Windows;10;undefined;undefined;1600 x 900;1601 x 762
H001;25;Vrouwelijk;Rechts;2;128;right;no;600;rightarrow;353;true;focus;no;1674481;Chrome;112.0;Windows;10;undefined;undefined;1600 x 900;1601 x 762
H001;25;Vrouwelijk;Rechts;3;1;left;no;600;leftarrow;467;true;focus;no;2676924;Chrome;112.0;Windows;10;undefined;undefined;1600 x 900;1601 x 762
H001;25;Vrouwelijk;Rechts;3;2;right;no;600;rightarrow;554;true;focus;no;2678260;Chrome;112.0;Windows;10;undefined;undefined;1600 x 900;1601 x 762
H001;25;Vrouwelijk;Rechts;3;3;left;yes;600;leftarrow;778;false;focus;no;2679804;Chrome;112.0;Windows;10;undefined;undefined;1600 x 900;1601 x 762
H001;25;Vrouwelijk;Rechts;3;4;left;no;550;leftarrow;967;true;focus;no;2681540;Chrome;112.0;Windows;10;undefined;undefined;1600 x 900;1601 x 762
H001;25;Vrouwelijk;Rechts;3;5;right;no;550;rightarrow;849;true;focus;no;2683172;Chrome;112.0;Windows;10;undefined;undefined;1600 x 900;1601 x 762
H001;25;Vrouwelijk;Rechts;3;6;right;no;550;rightarrow;1001;true;focus;no;2684932;Chrome;112.0;Windows;10;undefined;undefined;1600 x 900;1601 x 762
H001;25;Vrouwelijk;Rechts;3;7;right;yes;550;undefined;null;true;focus;no;2686962;Chrome;112.0;Windows;10;undefined;undefined;1600 x 900;1601 x 762
H001;25;Vrouwelijk;Rechts;3;8;left;no;600;leftarrow;913;true;focus;no;2688652;Chrome;112.0;Windows;10;undefined;undefined;1600 x 900;1601 x 762
H001;25;Vrouwelijk;Rechts;3;9;left;no;600;leftarrow;1070;true;focus;no;2690492;Chrome;112.0;Windows;10;undefined;undefined;1600 x 900;1601 x 762
H001;25;Vrouwelijk;Rechts;3;10;left;no;600;leftarrow;1060;true;focus;no;2692332;Chrome;112.0;Windows;10;undefined;undefined;1600 x 900;1601 x 762
H001;25;Vrouwelijk;Rechts;3;11;right;no;600;rightarrow;1042;true;focus;no;2694148;Chrome;112.0;Windows;10;undefined;undefined;1600 x 900;1601 x 762
H001;25;Vrouwelijk;Rechts;3;12;right;no;600;rightarrow;1030;true;focus;no;2695948;Chrome;112.0;Windows;10;undefined;undefined;1600 x 900;1601 x 762
H001;25;Vrouwelijk;Rechts;3;13;left;no;600;leftarrow;1146;true;focus;no;2697868;Chrome;112.0;Windows;10;undefined;undefined;1600 x 900;1601 x 762
H001;25;Vrouwelijk;Rechts;3;14;right;no;600;rightarrow;1085;true;focus;no;2699724;Chrome;112.0;Windows;10;undefined;undefined;1600 x 900;1601 x 762
H001;25;Vrouwelijk;Rechts;3;15;left;yes;600;undefined;null;true;focus;no;2701766;Chrome;112.0;Windows;10;undefined;undefined;1600 x 900;1601 x 762
H001;25;Vrouwelijk;Rechts;3;16;right;yes;650;rightarrow;816;false;focus;no;2703356;Chrome;112.0;Windows;10;undefined;undefined;1600 x 900;1601 x 762
H001;25;Vrouwelijk;Rechts;3;17;right;no;600;rightarrow;1065;true;focus;no;2705188;Chrome;112.0;Windows;10;undefined;undefined;1600 x 900;1601 x 762
H001;25;Vrouwelijk;Rechts;3;18;left;no;600;leftarrow;1048;true;focus;no;2707004;Chrome;112.0;Windows;10;undefined;undefined;1600 x 900;1601 x 762
H001;25;Vrouwelijk;Rechts;3;19;left;no;600;leftarrow;968;true;focus;no;2708740;Chrome;112.0;Windows;10;undefined;undefined;1600 x 900;1601 x 762
H001;25;Vrouwelijk;Rechts;3;20;left;no;600;leftarrow;1018;true;focus;no;2710540;Chrome;112.0;Windows;10;undefined;undefined;1600 x 900;1601 x 762
H001;25;Vrouwelijk;Rechts;3;21;left;yes;600;undefined;null;true;focus;no;2712582;Chrome;112.0;Windows;10;undefined;undefined;1600 x 900;1601 x 762
H001;25;Vrouwelijk;Rechts;3;22;right;no;650;rightarrow;912;true;focus;no;2714268;Chrome;112.0;Windows;10;undefined;undefined;1600 x 900;1601 x 762
H001;25;Vrouwelijk;Rechts;3;23;right;no;650;rightarrow;1029;true;focus;no;2716068;Chrome;112.0;Windows;10;undefined;undefined;1600 x 900;1601 x 762
H001;25;Vrouwelijk;Rechts;3;24;right;yes;650;rightarrow;909;false;focus;no;2717748;Chrome;112.0;Windows;10;undefined;undefined;1600 x 900;1601 x 762
H001;25;Vrouwelijk;Rechts;3;25;left;no;600;leftarrow;938;true;focus;no;2719460;Chrome;112.0;Windows;10;undefined;undefined;1600 x 900;1601 x 762
H001;25;Vrouwelijk;Rechts;3;26;left;no;600;leftarrow;1029;true;focus;no;2721268;Chrome;112.0;Windows;10;undefined;undefined;1600 x 900;1601 x 762
H001;25;Vrouwelijk;Rechts;3;27;left;no;600;leftarrow;973;true;focus;no;2723012;Chrome;112.0;Windows;10;undefined;undefined;1600 x 900;1601 x 762
H001;25;Vrouwelijk;Rechts;3;28;right;no;600;rightarrow;1071;true;focus;no;2724860;Chrome;112.0;Windows;10;undefined;undefined;1600 x 900;1601 x 762
H001;25;Vrouwelijk;Rechts;3;29;right;no;600;rightarrow;1085;true;focus;no;2726724;Chrome;112.0;Windows;10;undefined;undefined;1600 x 900;1601 x 762
H001;25;Vrouwelijk;Rechts;3;30;right;no;600;undefined;null;false;focus;no;2728742;Chrome;112.0;Windows;10;undefined;undefined;1600 x 900;1037 x 337
H001;25;Vrouwelijk;Rechts;3;31;right;yes;600;undefined;null;true;focus;no;2730759;Chrome;112.0;Windows;10;undefined;undefined;1600 x 900;1037 x 337
H001;25;Vrouwelijk;Rechts;3;32;left;yes;650;undefined;null;true;focus;no;2732777;Chrome;112.0;Windows;10;undefined;undefined;1600 x 900;1037 x 337
H001;25;Vrouwelijk;Rechts;3;33;left;no;700;undefined;null;false;focus;no;2734797;Chrome;112.0;Windows;10;undefined;undefined;1600 x 900;1037 x 337
H001;25;Vrouwelijk;Rechts;3;34;right;yes;700;rightarrow;589;false;focus;no;2736151;Chrome;112.0;Windows;10;undefined;undefined;1600 x 900;1037 x 337
H001;25;Vrouwelijk;Rechts;3;35;left;yes;650;undefined;null;true;focus;no;2738183;Chrome;112.0;Windows;10;undefined;undefined;1600 x 900;1037 x 337
H001;25;Vrouwelijk;Rechts;3;36;right;no;700;rightarrow;1006;true;focus;no;2739950;Chrome;112.0;Windows;10;undefined;undefined;1600 x 900;1037 x 337
H001;25;Vrouwelijk;Rechts;3;37;right;no;700;rightarrow;1202;true;focus;no;2741919;Chrome;112.0;Windows;10;undefined;undefined;1600 x 900;1037 x 337
H001;25;Vrouwelijk;Rechts;3;38;right;no;700;rightarrow;1068;true;focus;no;2743767;Chrome;112.0;Windows;10;undefined;undefined;1600 x 900;1037 x 337
H001;25;Vrouwelijk;Rechts;3;39;left;no;700;leftarrow;961;true;focus;no;2745511;Chrome;112.0;Windows;10;undefined;undefined;1600 x 900;1037 x 337
H001;25;Vrouwelijk;Rechts;3;40;left;no;700;leftarrow;1132;true;focus;no;2747415;Chrome;112.0;Windows;10;undefined;undefined;1600 x 900;1037 x 337
H001;25;Vrouwelijk;Rechts;3;41;left;yes;700;undefined;null;true;focus;no;2749448;Chrome;112.0;Windows;10;undefined;undefined;1600 x 900;1037 x 337
H001;25;Vrouwelijk;Rechts;3;42;left;no;750;leftarrow;702;true;focus;no;2750919;Chrome;112.0;Windows;10;undefined;undefined;1600 x 900;1037 x 337
H001;25;Vrouwelijk;Rechts;3;43;right;no;750;undefined;null;false;focus;no;2752950;Chrome;112.0;Windows;10;undefined;undefined;1600 x 900;1037 x 337
H001;25;Vrouwelijk;Rechts;3;44;right;no;750;rightarrow;459;true;focus;no;2754191;Chrome;112.0;Windows;10;undefined;undefined;1600 x 900;1037 x 337
H001;25;Vrouwelijk;Rechts;3;45;left;no;750;leftarrow;1000;true;focus;no;2755967;Chrome;112.0;Windows;10;undefined;undefined;1600 x 900;1037 x 337
H001;25;Vrouwelijk;Rechts;3;46;right;no;750;rightarrow;554;true;focus;no;2757303;Chrome;112.0;Windows;10;undefined;undefined;1600 x 900;1037 x 337
H001;25;Vrouwelijk;Rechts;3;47;left;no;750;leftarrow;868;true;focus;no;2758951;Chrome;112.0;Windows;10;undefined;undefined;1600 x 900;1037 x 337
H001;25;Vrouwelijk;Rechts;3;48;right;yes;750;rightarrow;802;false;focus;no;2760535;Chrome;112.0;Windows;10;undefined;undefined;1600 x 900;1037 x 337
H001;25;Vrouwelijk;Rechts;3;49;left;yes;700;undefined;null;true;focus;no;2762579;Chrome;112.0;Windows;10;undefined;undefined;1600 x 900;1037 x 337
H001;25;Vrouwelijk;Rechts;3;50;left;no;750;leftarrow;1170;true;focus;no;2764519;Chrome;112.0;Windows;10;undefined;undefined;1600 x 900;1037 x 337
H001;25;Vrouwelijk;Rechts;3;51;left;no;750;leftarrow;1099;true;focus;no;2766398;Chrome;112.0;Windows;10;undefined;undefined;1600 x 900;1037 x 337
H001;25;Vrouwelijk;Rechts;3;52;right;no;750;rightarrow;1136;true;focus;no;2768319;Chrome;112.0;Windows;10;undefined;undefined;1600 x 900;1037 x 337
H001;25;Vrouwelijk;Rechts;3;53;right;yes;750;undefined;null;true;focus;no;2770350;Chrome;112.0;Windows;10;undefined;undefined;1600 x 900;1037 x 337
H001;25;Vrouwelijk;Rechts;3;54;right;no;800;rightarrow;938;true;focus;no;2772071;Chrome;112.0;Windows;10;undefined;undefined;1600 x 900;1037 x 337
H001;25;Vrouwelijk;Rechts;3;55;left;no;800;undefined;null;false;focus;no;2774115;Chrome;112.0;Windows;10;undefined;undefined;1600 x 900;1037 x 337
H001;25;Vrouwelijk;Rechts;3;56;right;no;800;leftarrow;-27;false;focus;no;2774855;Chrome;112.0;Windows;10;undefined;undefined;1600 x 900;1037 x 337
H001;25;Vrouwelijk;Rechts;3;57;left;no;800;leftarrow;918;true;focus;no;2776551;Chrome;112.0;Windows;10;undefined;undefined;1600 x 900;1037 x 337
H001;25;Vrouwelijk;Rechts;3;58;right;no;800;rightarrow;1002;true;focus;no;2778334;Chrome;112.0;Windows;10;undefined;undefined;1600 x 900;1037 x 337
H001;25;Vrouwelijk;Rechts;3;59;right;no;800;rightarrow;987;true;focus;no;2780102;Chrome;112.0;Windows;10;undefined;undefined;1600 x 900;1037 x 337
H001;25;Vrouwelijk;Rechts;3;60;right;no;800;undefined;null;false;focus;no;2782133;Chrome;112.0;Windows;10;undefined;undefined;1600 x 900;1037 x 337
H001;25;Vrouwelijk;Rechts;3;61;right;yes;800;rightarrow;939;false;focus;no;2783855;Chrome;112.0;Windows;10;undefined;undefined;1600 x 900;1037 x 337
H001;25;Vrouwelijk;Rechts;3;62;left;no;750;leftarrow;734;true;focus;no;2785367;Chrome;112.0;Windows;10;undefined;undefined;1600 x 900;1037 x 337
H001;25;Vrouwelijk;Rechts;3;63;left;no;750;leftarrow;1153;true;focus;no;2787302;Chrome;112.0;Windows;10;undefined;undefined;1600 x 900;1037 x 337
H001;25;Vrouwelijk;Rechts;3;64;left;yes;750;undefined;null;true;focus;no;2789349;Chrome;112.0;Windows;10;undefined;undefined;1600 x 900;1037 x 337
H001;25;Vrouwelijk;Rechts;3;65;right;no;800;rightarrow;962;true;focus;no;2791095;Chrome;112.0;Windows;10;undefined;undefined;1600 x 900;1037 x 337
H001;25;Vrouwelijk;Rechts;3;66;left;no;800;leftarrow;1157;true;focus;no;2793032;Chrome;112.0;Windows;10;undefined;undefined;1600 x 900;1037 x 337
H001;25;Vrouwelijk;Rechts;3;67;left;no;800;undefined;null;false;focus;no;2795060;Chrome;112.0;Windows;10;undefined;undefined;1600 x 900;1037 x 337
H001;25;Vrouwelijk;Rechts;3;68;right;yes;800;rightarrow;647;false;focus;no;2796489;Chrome;112.0;Windows;10;undefined;undefined;1600 x 900;1037 x 337
H001;25;Vrouwelijk;Rechts;3;69;right;no;750;rightarrow;461;true;focus;no;2797721;Chrome;112.0;Windows;10;undefined;undefined;1600 x 900;1037 x 337
H001;25;Vrouwelijk;Rechts;3;70;left;yes;750;leftarrow;380;false;focus;no;2798872;Chrome;112.0;Windows;10;undefined;undefined;1600 x 900;1037 x 337
H001;25;Vrouwelijk;Rechts;3;71;left;no;700;leftarrow;382;true;focus;no;2800024;Chrome;112.0;Windows;10;undefined;undefined;1600 x 900;1037 x 337
H001;25;Vrouwelijk;Rechts;3;72;right;no;700;rightarrow;320;true;focus;no;2801112;Chrome;112.0;Windows;10;undefined;undefined;1600 x 900;1037 x 337
H001;25;Vrouwelijk;Rechts;3;73;right;no;700;rightarrow;388;true;focus;no;2802280;Chrome;112.0;Windows;10;undefined;undefined;1600 x 900;1037 x 337
H001;25;Vrouwelijk;Rechts;3;74;left;no;700;leftarrow;334;true;focus;no;2803392;Chrome;112.0;Windows;10;undefined;undefined;1600 x 900;1037 x 337
H001;25;Vrouwelijk;Rechts;3;75;left;yes;700;leftarrow;409;false;focus;no;2804569;Chrome;112.0;Windows;10;undefined;undefined;1600 x 900;1037 x 337
H001;25;Vrouwelijk;Rechts;3;76;left;no;650;leftarrow;306;true;focus;no;2805648;Chrome;112.0;Windows;10;undefined;undefined;1600 x 900;1037 x 337
H001;25;Vrouwelijk;Rechts;3;77;right;yes;650;leftarrow;271;false;focus;no;2806697;Chrome;112.0;Windows;10;undefined;undefined;1600 x 900;1037 x 337
H001;25;Vrouwelijk;Rechts;3;78;right;no;600;rightarrow;477;true;focus;no;2807953;Chrome;112.0;Windows;10;undefined;undefined;1600 x 900;1037 x 337
H001;25;Vrouwelijk;Rechts;3;79;right;no;600;rightarrow;451;true;focus;no;2809177;Chrome;112.0;Windows;10;undefined;undefined;1600 x 900;1037 x 337
H001;25;Vrouwelijk;Rechts;3;80;left;no;600;leftarrow;450;true;focus;no;2810409;Chrome;112.0;Windows;10;undefined;undefined;1600 x 900;1037 x 337
H001;25;Vrouwelijk;Rechts;3;81;right;yes;600;rightarrow;336;false;focus;no;2811528;Chrome;112.0;Windows;10;undefined;undefined;1600 x 900;1037 x 337
H001;25;Vrouwelijk;Rechts;3;82;right;no;550;leftarrow;253;false;focus;no;2812561;Chrome;112.0;Windows;10;undefined;undefined;1600 x 900;1037 x 337
H001;25;Vrouwelijk;Rechts;3;83;right;no;550;rightarrow;610;true;focus;no;2813952;Chrome;112.0;Windows;10;undefined;undefined;1600 x 900;1037 x 337
H001;25;Vrouwelijk;Rechts;3;84;right;no;550;rightarrow;363;true;focus;no;2815088;Chrome;112.0;Windows;10;undefined;undefined;1600 x 900;1037 x 337
H001;25;Vrouwelijk;Rechts;3;85;left;yes;550;leftarrow;437;false;focus;no;2816296;Chrome;112.0;Windows;10;undefined;undefined;1600 x 900;1037 x 337
H001;25;Vrouwelijk;Rechts;3;86;left;no;500;leftarrow;453;true;focus;no;2817529;Chrome;112.0;Windows;10;undefined;undefined;1600 x 900;1037 x 337
H001;25;Vrouwelijk;Rechts;3;87;left;no;500;leftarrow;356;true;focus;no;2818665;Chrome;112.0;Windows;10;undefined;undefined;1600 x 900;1037 x 337
H001;25;Vrouwelijk;Rechts;3;88;left;no;500;leftarrow;366;true;focus;no;2819808;Chrome;112.0;Windows;10;undefined;undefined;1600 x 900;1037 x 337
H001;25;Vrouwelijk;Rechts;3;89;left;no;500;leftarrow;472;true;focus;no;2821064;Chrome;112.0;Windows;10;undefined;undefined;1600 x 900;1037 x 337
H001;25;Vrouwelijk;Rechts;3;90;left;yes;500;leftarrow;422;false;focus;no;2822265;Chrome;112.0;Windows;10;undefined;undefined;1600 x 900;1037 x 337
H001;25;Vrouwelijk;Rechts;3;91;right;no;450;rightarrow;454;true;focus;no;2823497;Chrome;112.0;Windows;10;undefined;undefined;1600 x 900;1037 x 337
H001;25;Vrouwelijk;Rechts;3;92;left;no;450;leftarrow;469;true;focus;no;2824745;Chrome;112.0;Windows;10;undefined;undefined;1600 x 900;1037 x 337
H001;25;Vrouwelijk;Rechts;3;93;left;no;450;leftarrow;539;true;focus;no;2826065;Chrome;112.0;Windows;10;undefined;undefined;1600 x 900;1037 x 337
H001;25;Vrouwelijk;Rechts;3;94;right;yes;450;rightarrow;334;false;focus;no;2827176;Chrome;112.0;Windows;10;undefined;undefined;1600 x 900;1037 x 337
H001;25;Vrouwelijk;Rechts;3;95;right;no;400;rightarrow;402;true;focus;no;2828361;Chrome;112.0;Windows;10;undefined;undefined;1600 x 900;1037 x 337
H001;25;Vrouwelijk;Rechts;3;96;right;no;400;rightarrow;333;true;focus;no;2829472;Chrome;112.0;Windows;10;undefined;undefined;1600 x 900;1037 x 337
H001;25;Vrouwelijk;Rechts;3;97;right;no;400;rightarrow;334;true;focus;no;2830576;Chrome;112.0;Windows;10;undefined;undefined;1600 x 900;1037 x 337
H001;25;Vrouwelijk;Rechts;3;98;right;yes;400;rightarrow;315;false;focus;no;2831673;Chrome;112.0;Windows;10;undefined;undefined;1600 x 900;1037 x 337
H001;25;Vrouwelijk;Rechts;3;99;left;yes;350;rightarrow;302;false;focus;no;2832744;Chrome;112.0;Windows;10;undefined;undefined;1600 x 900;1037 x 337
H001;25;Vrouwelijk;Rechts;3;100;left;no;300;leftarrow;467;true;focus;no;2833992;Chrome;112.0;Windows;10;undefined;undefined;1600 x 900;1037 x 337
H001;25;Vrouwelijk;Rechts;3;101;left;no;300;leftarrow;409;true;focus;no;2835185;Chrome;112.0;Windows;10;undefined;undefined;1600 x 900;1037 x 337
H001;25;Vrouwelijk;Rechts;3;102;right;no;300;rightarrow;354;true;focus;no;2836312;Chrome;112.0;Windows;10;undefined;undefined;1600 x 900;1037 x 337
H001;25;Vrouwelijk;Rechts;3;103;right;no;300;rightarrow;436;true;focus;no;2837528;Chrome;112.0;Windows;10;undefined;undefined;1600 x 900;1037 x 337
H001;25;Vrouwelijk;Rechts;3;104;left;no;300;leftarrow;444;true;focus;no;2838753;Chrome;112.0;Windows;10;undefined;undefined;1600 x 900;1037 x 337
H001;25;Vrouwelijk;Rechts;3;105;left;yes;300;leftarrow;395;false;focus;no;2839920;Chrome;112.0;Windows;10;undefined;undefined;1600 x 900;1037 x 337
H001;25;Vrouwelijk;Rechts;3;106;right;yes;250;rightarrow;428;false;focus;no;2841120;Chrome;112.0;Windows;10;undefined;undefined;1600 x 900;1037 x 337
H001;25;Vrouwelijk;Rechts;3;107;left;no;200;leftarrow;620;true;focus;no;2842512;Chrome;112.0;Windows;10;undefined;undefined;1600 x 900;1037 x 337
H001;25;Vrouwelijk;Rechts;3;108;left;no;200;leftarrow;653;true;focus;no;2843944;Chrome;112.0;Windows;10;undefined;undefined;1600 x 900;1037 x 337
H001;25;Vrouwelijk;Rechts;3;109;right;no;200;rightarrow;451;true;focus;no;2845177;Chrome;112.0;Windows;10;undefined;undefined;1600 x 900;1037 x 337
H001;25;Vrouwelijk;Rechts;3;110;right;no;200;rightarrow;490;true;focus;no;2846448;Chrome;112.0;Windows;10;undefined;undefined;1600 x 900;1037 x 337
H001;25;Vrouwelijk;Rechts;3;111;left;no;200;leftarrow;855;true;focus;no;2848080;Chrome;112.0;Windows;10;undefined;undefined;1600 x 900;1037 x 337
H001;25;Vrouwelijk;Rechts;3;112;right;no;200;rightarrow;695;true;focus;no;2849553;Chrome;112.0;Windows;10;undefined;undefined;1600 x 900;1037 x 337
H001;25;Vrouwelijk;Rechts;3;113;right;no;200;rightarrow;467;true;focus;no;2850792;Chrome;112.0;Windows;10;undefined;undefined;1600 x 900;1037 x 337
H001;25;Vrouwelijk;Rechts;3;114;left;yes;200;undefined;null;true;focus;no;2852848;Chrome;112.0;Windows;10;undefined;undefined;1600 x 900;1037 x 337
H001;25;Vrouwelijk;Rechts;3;115;left;no;250;leftarrow;416;true;focus;no;2854033;Chrome;112.0;Windows;10;undefined;undefined;1600 x 900;1037 x 337
H001;25;Vrouwelijk;Rechts;3;116;right;no;250;rightarrow;464;true;focus;no;2855266;Chrome;112.0;Windows;10;undefined;undefined;1600 x 900;1037 x 337
H001;25;Vrouwelijk;Rechts;3;117;left;no;250;rightarrow;368;false;focus;no;2856402;Chrome;112.0;Windows;10;undefined;undefined;1600 x 900;1037 x 337
H001;25;Vrouwelijk;Rechts;3;118;right;no;250;rightarrow;529;true;focus;no;2857714;Chrome;112.0;Windows;10;undefined;undefined;1600 x 900;1037 x 337
H001;25;Vrouwelijk;Rechts;3;119;left;no;250;leftarrow;413;true;focus;no;2858898;Chrome;112.0;Windows;10;undefined;undefined;1600 x 900;1037 x 337
H001;25;Vrouwelijk;Rechts;3;120;right;yes;250;rightarrow;415;false;focus;no;2860082;Chrome;112.0;Windows;10;undefined;undefined;1600 x 900;1037 x 337
H001;25;Vrouwelijk;Rechts;3;121;left;yes;200;leftarrow;391;false;focus;no;2861242;Chrome;112.0;Windows;10;undefined;undefined;1600 x 900;1037 x 337
H001;25;Vrouwelijk;Rechts;3;122;right;no;150;rightarrow;664;true;focus;no;2862682;Chrome;112.0;Windows;10;undefined;undefined;1600 x 900;1037 x 337
H001;25;Vrouwelijk;Rechts;3;123;right;no;150;rightarrow;1007;true;focus;no;2864458;Chrome;112.0;Windows;10;undefined;undefined;1600 x 900;1037 x 337
H001;25;Vrouwelijk;Rechts;3;124;right;no;150;rightarrow;519;true;focus;no;2865753;Chrome;112.0;Windows;10;undefined;undefined;1600 x 900;1037 x 337
H001;25;Vrouwelijk;Rechts;3;125;left;no;150;leftarrow;627;true;focus;no;2867162;Chrome;112.0;Windows;10;undefined;undefined;1600 x 900;1037 x 337
H001;25;Vrouwelijk;Rechts;3;126;right;yes;150;undefined;null;true;focus;no;2869194;Chrome;112.0;Windows;10;undefined;undefined;1600 x 900;1037 x 337
H001;25;Vrouwelijk;Rechts;3;127;left;no;200;leftarrow;339;true;focus;no;2870306;Chrome;112.0;Windows;10;undefined;undefined;1600 x 900;1037 x 337
H001;25;Vrouwelijk;Rechts;3;128;left;no;200;leftarrow;453;true;focus;no;2871538;Chrome;112.0;Windows;10;undefined;undefined;1600 x 900;1037 x 337
H001;25;Vrouwelijk;Rechts;4;1;right;no;200;rightarrow;930;true;focus;no;2911899;Chrome;112.0;Windows;10;undefined;undefined;1600 x 900;1037 x 337
H001;25;Vrouwelijk;Rechts;4;2;left;no;200;undefined;null;false;focus;no;2913927;Chrome;112.0;Windows;10;undefined;undefined;1600 x 900;1037 x 749
H001;25;Vrouwelijk;Rechts;4;3;left;yes;200;undefined;null;true;focus;no;2915940;Chrome;112.0;Windows;10;undefined;undefined;1600 x 900;1037 x 484
H001;25;Vrouwelijk;Rechts;4;4;left;no;250;leftarrow;954;true;focus;no;2917667;Chrome;112.0;Windows;10;undefined;undefined;1600 x 900;1037 x 339
H001;25;Vrouwelijk;Rechts;4;5;left;no;250;leftarrow;407;true;focus;no;2918851;Chrome;112.0;Windows;10;undefined;undefined;1600 x 900;1037 x 339
H001;25;Vrouwelijk;Rechts;4;6;right;yes;250;rightarrow;409;false;focus;no;2920035;Chrome;112.0;Windows;10;undefined;undefined;1600 x 900;1037 x 339
H001;25;Vrouwelijk;Rechts;4;7;right;no;200;rightarrow;649;true;focus;no;2921459;Chrome;112.0;Windows;10;undefined;undefined;1600 x 900;1037 x 339
H001;25;Vrouwelijk;Rechts;4;8;right;no;200;leftarrow;369;false;focus;no;2922595;Chrome;112.0;Windows;10;undefined;undefined;1600 x 900;1037 x 339
H001;25;Vrouwelijk;Rechts;4;9;right;no;200;rightarrow;410;true;focus;no;2923787;Chrome;112.0;Windows;10;undefined;undefined;1600 x 900;1037 x 339
H001;25;Vrouwelijk;Rechts;4;10;left;no;200;leftarrow;388;true;focus;no;2924947;Chrome;112.0;Windows;10;undefined;undefined;1600 x 900;1037 x 339
H001;25;Vrouwelijk;Rechts;4;11;left;no;200;leftarrow;365;true;focus;no;2926091;Chrome;112.0;Windows;10;undefined;undefined;1600 x 900;1037 x 339
H001;25;Vrouwelijk;Rechts;4;12;left;yes;200;leftarrow;222;false;focus;no;2927083;Chrome;112.0;Windows;10;undefined;undefined;1600 x 900;1037 x 339
H001;25;Vrouwelijk;Rechts;4;13;left;no;150;leftarrow;591;true;focus;no;2928451;Chrome;112.0;Windows;10;undefined;undefined;1600 x 900;1037 x 339
H001;25;Vrouwelijk;Rechts;4;14;right;no;150;rightarrow;734;true;focus;no;2929963;Chrome;112.0;Windows;10;undefined;undefined;1600 x 900;1037 x 339
H001;25;Vrouwelijk;Rechts;4;15;right;yes;150;undefined;null;true;focus;no;2932007;Chrome;112.0;Windows;10;undefined;undefined;1600 x 900;1037 x 339
H001;25;Vrouwelijk;Rechts;4;16;right;no;200;undefined;null;false;blur;no;2934629;Chrome;112.0;Windows;10;undefined;undefined;1600 x 900;1037 x 339
H001;25;Vrouwelijk;Rechts;4;18;right;no;200;undefined;null;false;focus;no;2942134;Chrome;112.0;Windows;10;undefined;undefined;1600 x 900;1037 x 339
H001;25;Vrouwelijk;Rechts;4;17;left;no;200;undefined;null;false;blur;no;2938667;Chrome;112.0;Windows;10;undefined;undefined;1600 x 900;1037 x 339
H001;25;Vrouwelijk;Rechts;4;19;right;no;200;rightarrow;459;true;focus;no;2943355;Chrome;112.0;Windows;10;undefined;undefined;1600 x 900;1037 x 339
H001;25;Vrouwelijk;Rechts;4;20;right;no;200;undefined;null;false;blur;no;2945624;Chrome;112.0;Windows;10;undefined;undefined;1600 x 900;1037 x 339
H001;25;Vrouwelijk;Rechts;4;21;left;no;200;undefined;null;false;blur;no;2949628;Chrome;112.0;Windows;10;undefined;undefined;1600 x 900;1037 x 339
H001;25;Vrouwelijk;Rechts;4;22;left;no;200;undefined;null;false;blur;no;2953628;Chrome;112.0;Windows;10;undefined;undefined;1600 x 900;1037 x 339
H001;25;Vrouwelijk;Rechts;4;23;right;yes;200;undefined;null;true;blur;no;2957622;Chrome;112.0;Windows;10;undefined;undefined;1600 x 900;1037 x 339
H001;25;Vrouwelijk;Rechts;4;24;left;yes;250;undefined;null;true;blur;no;2961632;Chrome;112.0;Windows;10;undefined;undefined;1600 x 900;1037 x 339
H001;25;Vrouwelijk;Rechts;4;25;left;no;300;undefined;null;false;blur;no;2964634;Chrome;112.0;Windows;10;undefined;undefined;1600 x 900;1037 x 339
H001;25;Vrouwelijk;Rechts;4;26;right;no;300;undefined;null;false;blur;no;2968628;Chrome;112.0;Windows;10;undefined;undefined;1600 x 900;1037 x 339
H001;25;Vrouwelijk;Rechts;4;27;right;yes;300;undefined;null;true;blur;no;2972651;Chrome;112.0;Windows;10;undefined;undefined;1600 x 900;1037 x 339
H001;25;Vrouwelijk;Rechts;4;28;left;no;350;undefined;null;false;blur;no;2976648;Chrome;112.0;Windows;10;undefined;undefined;1600 x 900;1037 x 339
H001;25;Vrouwelijk;Rechts;4;29;right;no;350;undefined;null;false;blur;no;2980667;Chrome;112.0;Windows;10;undefined;undefined;1600 x 900;1037 x 339
H001;25;Vrouwelijk;Rechts;4;30;left;yes;350;undefined;null;true;blur;no;2984642;Chrome;112.0;Windows;10;undefined;undefined;1600 x 900;1037 x 339
H001;25;Vrouwelijk;Rechts;4;31;right;no;400;undefined;null;false;blur;no;2988647;Chrome;112.0;Windows;10;undefined;undefined;1600 x 900;1037 x 339
H001;25;Vrouwelijk;Rechts;4;32;left;no;400;undefined;null;false;blur;no;2992654;Chrome;112.0;Windows;10;undefined;undefined;1600 x 900;1037 x 339
H001;25;Vrouwelijk;Rechts;4;33;left;no;400;undefined;null;false;blur;no;2996645;Chrome;112.0;Windows;10;undefined;undefined;1600 x 900;1037 x 339
H001;25;Vrouwelijk;Rechts;4;34;left;no;400;undefined;null;false;blur;no;3000643;Chrome;112.0;Windows;10;undefined;undefined;1600 x 900;1037 x 339
H001;25;Vrouwelijk;Rechts;4;35;right;no;400;undefined;null;false;blur;no;3004644;Chrome;112.0;Windows;10;undefined;undefined;1600 x 900;1037 x 339
H001;25;Vrouwelijk;Rechts;4;36;left;no;400;undefined;null;false;blur;no;3007249;Chrome;112.0;Windows;10;undefined;undefined;1600 x 900;1037 x 339
H001;25;Vrouwelijk;Rechts;4;37;right;no;400;undefined;null;false;blur;no;3010642;Chrome;112.0;Windows;10;undefined;undefined;1600 x 900;1037 x 339
H001;25;Vrouwelijk;Rechts;4;38;right;yes;400;undefined;null;true;blur;no;3014642;Chrome;112.0;Windows;10;undefined;undefined;1600 x 900;1037 x 339
H001;25;Vrouwelijk;Rechts;4;39;left;yes;450;undefined;null;true;focus;no;3018148;Chrome;112.0;Windows;10;undefined;undefined;1600 x 900;1037 x 339
H001;25;Vrouwelijk;Rechts;4;40;right;no;500;undefined;null;false;blur;no;3020650;Chrome;112.0;Windows;10;undefined;undefined;1600 x 900;1037 x 339
H001;25;Vrouwelijk;Rechts;4;41;right;no;500;undefined;null;false;blur;no;3024644;Chrome;112.0;Windows;10;undefined;undefined;1600 x 900;1037 x 339
H001;25;Vrouwelijk;Rechts;4;42;right;no;500;undefined;null;false;blur;no;3028644;Chrome;112.0;Windows;10;undefined;undefined;1600 x 900;1037 x 339
H001;25;Vrouwelijk;Rechts;4;43;right;no;500;undefined;null;false;blur;no;3032642;Chrome;112.0;Windows;10;undefined;undefined;1600 x 900;1037 x 339
H001;25;Vrouwelijk;Rechts;4;44;left;no;500;undefined;null;false;blur;no;3036647;Chrome;112.0;Windows;10;undefined;undefined;1600 x 900;1037 x 339
H001;25;Vrouwelijk;Rechts;4;45;left;no;500;undefined;null;false;blur;no;3040653;Chrome;112.0;Windows;10;undefined;undefined;1600 x 900;1037 x 339
H001;25;Vrouwelijk;Rechts;4;46;right;yes;500;undefined;null;true;blur;no;3044659;Chrome;112.0;Windows;10;undefined;undefined;1600 x 900;1037 x 339
H001;25;Vrouwelijk;Rechts;4;47;left;yes;550;undefined;null;true;blur;no;3048658;Chrome;112.0;Windows;10;undefined;undefined;1600 x 900;1037 x 339
H001;25;Vrouwelijk;Rechts;4;48;left;no;600;undefined;null;false;blur;no;3052655;Chrome;112.0;Windows;10;undefined;undefined;1600 x 900;1037 x 339
H001;25;Vrouwelijk;Rechts;4;49;right;no;600;undefined;null;false;blur;no;3056649;Chrome;112.0;Windows;10;undefined;undefined;1600 x 900;1037 x 339
H001;25;Vrouwelijk;Rechts;4;50;right;yes;600;undefined;null;true;blur;no;3060658;Chrome;112.0;Windows;10;undefined;undefined;1600 x 900;1037 x 339
H001;25;Vrouwelijk;Rechts;4;51;left;yes;650;undefined;null;true;blur;no;3064646;Chrome;112.0;Windows;10;undefined;undefined;1600 x 900;1037 x 339
H001;25;Vrouwelijk;Rechts;4;52;right;no;700;undefined;null;false;blur;no;3068648;Chrome;112.0;Windows;10;undefined;undefined;1600 x 900;1037 x 339
H001;25;Vrouwelijk;Rechts;4;53;right;no;700;undefined;null;false;blur;no;3072649;Chrome;112.0;Windows;10;undefined;undefined;1600 x 900;1037 x 339
H001;25;Vrouwelijk;Rechts;4;54;left;no;700;undefined;null;false;blur;no;3076660;Chrome;112.0;Windows;10;undefined;undefined;1600 x 900;1037 x 339
H001;25;Vrouwelijk;Rechts;4;55;left;no;700;undefined;null;false;blur;no;3111668;Chrome;112.0;Windows;10;undefined;undefined;1600 x 900;1037 x 339
H001;25;Vrouwelijk;Rechts;4;56;left;no;700;undefined;null;false;focus;no;3285951;Chrome;112.0;Windows;10;undefined;undefined;1600 x 900;1601 x 762
H001;25;Vrouwelijk;Rechts;4;57;left;no;700;leftarrow;540;true;focus;no;3287279;Chrome;112.0;Windows;10;undefined;undefined;1600 x 900;1601 x 762
H001;25;Vrouwelijk;Rechts;4;58;right;yes;700;rightarrow;420;false;focus;no;3288479;Chrome;112.0;Windows;10;undefined;undefined;1600 x 900;1601 x 762
H001;25;Vrouwelijk;Rechts;4;59;left;no;650;leftarrow;293;true;focus;no;3289551;Chrome;112.0;Windows;10;undefined;undefined;1600 x 900;1601 x 762
H001;25;Vrouwelijk;Rechts;4;60;right;no;650;rightarrow;274;true;focus;no;3290599;Chrome;112.0;Windows;10;undefined;undefined;1600 x 900;1601 x 762
H001;25;Vrouwelijk;Rechts;4;61;left;no;650;leftarrow;340;true;focus;no;3291712;Chrome;112.0;Windows;10;undefined;undefined;1600 x 900;1601 x 762
H001;25;Vrouwelijk;Rechts;4;62;left;yes;650;leftarrow;354;false;focus;no;3292848;Chrome;112.0;Windows;10;undefined;undefined;1600 x 900;1601 x 762
H001;25;Vrouwelijk;Rechts;4;63;right;no;600;rightarrow;414;true;focus;no;3294040;Chrome;112.0;Windows;10;undefined;undefined;1600 x 900;1601 x 762
H001;25;Vrouwelijk;Rechts;4;64;right;no;600;rightarrow;326;true;focus;no;3295136;Chrome;112.0;Windows;10;undefined;undefined;1600 x 900;1601 x 762
H001;25;Vrouwelijk;Rechts;4;65;right;no;600;rightarrow;490;true;focus;no;3296400;Chrome;112.0;Windows;10;undefined;undefined;1600 x 900;1601 x 762
H001;25;Vrouwelijk;Rechts;4;66;left;no;600;leftarrow;359;true;focus;no;3297536;Chrome;112.0;Windows;10;undefined;undefined;1600 x 900;1601 x 762
H001;25;Vrouwelijk;Rechts;4;67;right;no;600;rightarrow;418;true;focus;no;3298728;Chrome;112.0;Windows;10;undefined;undefined;1600 x 900;1601 x 762
H001;25;Vrouwelijk;Rechts;4;68;right;no;600;rightarrow;355;true;focus;no;3299864;Chrome;112.0;Windows;10;undefined;undefined;1600 x 900;1601 x 762
H001;25;Vrouwelijk;Rechts;4;69;left;yes;600;leftarrow;421;false;focus;no;3301064;Chrome;112.0;Windows;10;undefined;undefined;1600 x 900;1601 x 762
H001;25;Vrouwelijk;Rechts;4;70;left;no;550;leftarrow;333;true;focus;no;3302176;Chrome;112.0;Windows;10;undefined;undefined;1600 x 900;1601 x 762
H001;25;Vrouwelijk;Rechts;4;71;left;no;550;leftarrow;368;true;focus;no;3303328;Chrome;112.0;Windows;10;undefined;undefined;1600 x 900;1601 x 762
H001;25;Vrouwelijk;Rechts;4;72;right;yes;550;rightarrow;339;false;focus;no;3304448;Chrome;112.0;Windows;10;undefined;undefined;1600 x 900;1601 x 762
H001;25;Vrouwelijk;Rechts;4;73;left;no;500;leftarrow;469;true;focus;no;3305696;Chrome;112.0;Windows;10;undefined;undefined;1600 x 900;1601 x 762
H001;25;Vrouwelijk;Rechts;4;74;right;yes;500;rightarrow;532;false;focus;no;3307008;Chrome;112.0;Windows;10;undefined;undefined;1600 x 900;1601 x 762
H001;25;Vrouwelijk;Rechts;4;75;left;no;450;leftarrow;527;true;focus;no;3308304;Chrome;112.0;Windows;10;undefined;undefined;1600 x 900;1601 x 762
H001;25;Vrouwelijk;Rechts;4;76;right;no;450;rightarrow;635;true;focus;no;3309712;Chrome;112.0;Windows;10;undefined;undefined;1600 x 900;1601 x 762
H001;25;Vrouwelijk;Rechts;4;77;left;no;450;leftarrow;683;true;focus;no;3311176;Chrome;112.0;Windows;10;undefined;undefined;1600 x 900;1601 x 762
H001;25;Vrouwelijk;Rechts;4;78;right;no;450;rightarrow;433;true;focus;no;3312392;Chrome;112.0;Windows;10;undefined;undefined;1600 x 900;1601 x 762
H001;25;Vrouwelijk;Rechts;4;79;right;no;450;rightarrow;599;true;focus;no;3313775;Chrome;112.0;Windows;10;undefined;undefined;1600 x 900;1601 x 762
H001;25;Vrouwelijk;Rechts;4;80;left;yes;450;leftarrow;671;false;focus;no;3315216;Chrome;112.0;Windows;10;undefined;undefined;1600 x 900;1601 x 762
H001;25;Vrouwelijk;Rechts;4;81;left;yes;400;undefined;null;true;focus;no;3317253;Chrome;112.0;Windows;10;undefined;undefined;1600 x 900;1601 x 762
H001;25;Vrouwelijk;Rechts;4;82;right;no;450;rightarrow;581;true;focus;no;3318607;Chrome;112.0;Windows;10;undefined;undefined;1600 x 900;1601 x 762
H001;25;Vrouwelijk;Rechts;4;83;left;no;450;leftarrow;773;true;focus;no;3320136;Chrome;112.0;Windows;10;undefined;undefined;1600 x 900;1601 x 762
H001;25;Vrouwelijk;Rechts;4;84;right;no;450;rightarrow;779;true;focus;no;3321687;Chrome;112.0;Windows;10;undefined;undefined;1600 x 900;1601 x 762
H001;25;Vrouwelijk;Rechts;4;85;right;yes;450;undefined;null;true;focus;no;3323723;Chrome;112.0;Windows;10;undefined;undefined;1600 x 900;1601 x 762
H001;25;Vrouwelijk;Rechts;4;86;left;no;500;undefined;null;false;focus;no;3325760;Chrome;112.0;Windows;10;undefined;undefined;1600 x 900;1601 x 762
H001;25;Vrouwelijk;Rechts;4;87;left;no;500;undefined;null;false;focus;no;3327793;Chrome;112.0;Windows;10;undefined;undefined;1600 x 900;1601 x 762
H001;25;Vrouwelijk;Rechts;4;88;right;no;500;rightarrow;999;true;focus;no;3329576;Chrome;112.0;Windows;10;undefined;undefined;1600 x 900;1601 x 762
H001;25;Vrouwelijk;Rechts;4;89;left;no;500;leftarrow;616;true;focus;no;3330976;Chrome;112.0;Windows;10;undefined;undefined;1600 x 900;1601 x 762
H001;25;Vrouwelijk;Rechts;4;90;right;yes;500;rightarrow;712;false;focus;no;3332472;Chrome;112.0;Windows;10;undefined;undefined;1600 x 900;1601 x 762
H001;25;Vrouwelijk;Rechts;4;91;left;no;450;leftarrow;973;true;focus;no;3334216;Chrome;112.0;Windows;10;undefined;undefined;1600 x 900;1601 x 762
H001;25;Vrouwelijk;Rechts;4;92;left;yes;450;undefined;null;true;focus;no;3336256;Chrome;112.0;Windows;10;undefined;undefined;1600 x 900;1601 x 762
H001;25;Vrouwelijk;Rechts;4;93;right;no;500;rightarrow;820;true;focus;no;3337848;Chrome;112.0;Windows;10;undefined;undefined;1600 x 900;1601 x 762
H001;25;Vrouwelijk;Rechts;4;94;left;no;500;undefined;null;false;focus;no;3339881;Chrome;112.0;Windows;10;undefined;undefined;1600 x 900;1601 x 762
H001;25;Vrouwelijk;Rechts;4;95;right;no;500;rightarrow;892;true;focus;no;3341552;Chrome;112.0;Windows;10;undefined;undefined;1600 x 900;1601 x 762
H001;25;Vrouwelijk;Rechts;4;96;right;no;500;undefined;null;false;focus;no;3343577;Chrome;112.0;Windows;10;undefined;undefined;1600 x 900;1601 x 762
H001;25;Vrouwelijk;Rechts;4;97;right;no;500;rightarrow;480;true;focus;no;3344832;Chrome;112.0;Windows;10;undefined;undefined;1600 x 900;1601 x 762
H001;25;Vrouwelijk;Rechts;4;98;left;no;500;leftarrow;678;true;focus;no;3346288;Chrome;112.0;Windows;10;undefined;undefined;1600 x 900;1601 x 762
H001;25;Vrouwelijk;Rechts;4;99;right;no;500;rightarrow;772;true;focus;no;3347832;Chrome;112.0;Windows;10;undefined;undefined;1600 x 900;1601 x 762
H001;25;Vrouwelijk;Rechts;4;100;left;yes;500;undefined;null;true;focus;no;3349861;Chrome;112.0;Windows;10;undefined;undefined;1600 x 900;1601 x 762
H001;25;Vrouwelijk;Rechts;4;101;right;no;550;rightarrow;749;true;focus;no;3351391;Chrome;112.0;Windows;10;undefined;undefined;1600 x 900;1601 x 762
H001;25;Vrouwelijk;Rechts;4;102;left;no;550;undefined;null;false;focus;no;3353455;Chrome;112.0;Windows;10;undefined;undefined;1600 x 900;1601 x 762
H001;25;Vrouwelijk;Rechts;4;103;right;yes;550;undefined;null;true;focus;no;3355478;Chrome;112.0;Windows;10;undefined;undefined;1600 x 900;1601 x 762
H001;25;Vrouwelijk;Rechts;4;104;left;no;600;undefined;null;false;focus;no;3357506;Chrome;112.0;Windows;10;undefined;undefined;1600 x 900;1601 x 762
H001;25;Vrouwelijk;Rechts;4;105;right;no;600;rightarrow;1028;true;focus;no;3359317;Chrome;112.0;Windows;10;undefined;undefined;1600 x 900;1601 x 762
H001;25;Vrouwelijk;Rechts;4;106;right;no;600;undefined;null;false;focus;no;3361340;Chrome;112.0;Windows;10;undefined;undefined;1600 x 900;1601 x 762
H001;25;Vrouwelijk;Rechts;4;107;right;yes;600;rightarrow;923;false;focus;no;3363045;Chrome;112.0;Windows;10;undefined;undefined;1600 x 900;1601 x 762
H001;25;Vrouwelijk;Rechts;4;108;left;no;550;leftarrow;623;true;focus;no;3364445;Chrome;112.0;Windows;10;undefined;undefined;1600 x 900;1601 x 762
H001;25;Vrouwelijk;Rechts;4;109;left;no;550;leftarrow;1215;true;focus;no;3366437;Chrome;112.0;Windows;10;undefined;undefined;1600 x 900;1601 x 762
H001;25;Vrouwelijk;Rechts;4;110;right;no;550;rightarrow;472;true;focus;no;3367677;Chrome;112.0;Windows;10;undefined;undefined;1600 x 900;1601 x 762
H001;25;Vrouwelijk;Rechts;4;111;left;yes;550;leftarrow;429;false;focus;no;3368885;Chrome;112.0;Windows;10;undefined;undefined;1600 x 900;1601 x 762
H001;25;Vrouwelijk;Rechts;4;112;left;no;500;leftarrow;566;true;focus;no;3370221;Chrome;112.0;Windows;10;undefined;undefined;1600 x 900;1601 x 762
H001;25;Vrouwelijk;Rechts;4;113;right;yes;500;rightarrow;996;false;focus;no;3371973;Chrome;112.0;Windows;10;undefined;undefined;1600 x 900;1601 x 762
H001;25;Vrouwelijk;Rechts;4;114;left;yes;450;leftarrow;785;false;focus;no;3373541;Chrome;112.0;Windows;10;undefined;undefined;1600 x 900;1601 x 762
H001;25;Vrouwelijk;Rechts;4;115;right;no;400;rightarrow;871;true;focus;no;3375189;Chrome;112.0;Windows;10;undefined;undefined;1600 x 900;1601 x 762
H001;25;Vrouwelijk;Rechts;4;116;right;no;400;rightarrow;721;true;focus;no;3376693;Chrome;112.0;Windows;10;undefined;undefined;1600 x 900;1601 x 762
H001;25;Vrouwelijk;Rechts;4;117;left;no;400;leftarrow;733;true;focus;no;3378205;Chrome;112.0;Windows;10;undefined;undefined;1600 x 900;1601 x 762
H001;25;Vrouwelijk;Rechts;4;118;right;no;400;undefined;null;false;focus;no;3380240;Chrome;112.0;Windows;10;undefined;undefined;1600 x 900;1601 x 762
H001;25;Vrouwelijk;Rechts;4;119;left;no;400;leftarrow;519;true;focus;no;3381541;Chrome;112.0;Windows;10;undefined;undefined;1600 x 900;1601 x 762
H001;25;Vrouwelijk;Rechts;4;120;left;no;400;undefined;null;false;blur;no;3383708;Chrome;112.0;Windows;10;undefined;undefined;1600 x 900;1601 x 762
H001;25;Vrouwelijk;Rechts;4;121;right;no;400;undefined;null;false;blur;no;3387257;Chrome;112.0;Windows;10;undefined;undefined;1600 x 900;1601 x 762
H001;25;Vrouwelijk;Rechts;4;122;left;no;400;leftarrow;385;true;focus;no;3388397;Chrome;112.0;Windows;10;undefined;undefined;1600 x 900;1601 x 762
H001;25;Vrouwelijk;Rechts;4;123;left;no;400;leftarrow;406;true;focus;no;3389589;Chrome;112.0;Windows;10;undefined;undefined;1600 x 900;1601 x 762
H001;25;Vrouwelijk;Rechts;4;124;right;no;400;rightarrow;498;true;focus;no;3390861;Chrome;112.0;Windows;10;undefined;undefined;1600 x 900;1601 x 762
H001;25;Vrouwelijk;Rechts;4;125;left;no;400;leftarrow;417;true;focus;no;3392037;Chrome;112.0;Windows;10;undefined;undefined;1600 x 900;1601 x 762
H001;25;Vrouwelijk;Rechts;4;126;left;yes;400;leftarrow;431;false;focus;no;3393237;Chrome;112.0;Windows;10;undefined;undefined;1600 x 900;1601 x 762
H001;25;Vrouwelijk;Rechts;4;127;right;yes;350;rightarrow;476;false;focus;no;3394485;Chrome;112.0;Windows;10;undefined;undefined;1600 x 900;1601 x 762
H001;25;Vrouwelijk;Rechts;4;128;right;no;300;undefined;null;false;focus;no;3396523;Chrome;112.0;Windows;10;undefined;undefined;1600 x 900;1601 x 762
H001;25;Vrouwelijk;Rechts;5;1;left;no;300;leftarrow;751;true;focus;no;3725632;Chrome;112.0;Windows;10;undefined;undefined;1600 x 900;1601 x 762
H001;25;Vrouwelijk;Rechts;5;6;left;no;400;undefined;null;false;blur;no;3740739;Chrome;112.0;Windows;10;undefined;undefined;1600 x 900;1601 x 762
H001;25;Vrouwelijk;Rechts;5;7;right;no;400;undefined;null;false;blur;no;3744739;Chrome;112.0;Windows;10;undefined;undefined;1600 x 900;1601 x 762
H001;25;Vrouwelijk;Rechts;5;8;left;no;400;undefined;null;false;blur;no;3748739;Chrome;112.0;Windows;10;undefined;undefined;1600 x 900;1601 x 762
H001;25;Vrouwelijk;Rechts;5;2;right;no;300;rightarrow;469;true;focus;no;3726865;Chrome;112.0;Windows;10;undefined;undefined;1600 x 900;1601 x 762
H001;25;Vrouwelijk;Rechts;5;3;right;yes;300;undefined;null;true;focus;no;3728907;Chrome;112.0;Windows;10;undefined;undefined;1600 x 900;1601 x 762
H001;25;Vrouwelijk;Rechts;5;5;left;yes;350;undefined;null;true;blur;no;3736739;Chrome;112.0;Windows;10;undefined;undefined;1600 x 900;1601 x 762
H001;25;Vrouwelijk;Rechts;5;4;right;no;350;undefined;null;false;blur;no;3732739;Chrome;112.0;Windows;10;undefined;undefined;1600 x 900;1601 x 762
H001;25;Vrouwelijk;Rechts;5;9;left;no;400;undefined;null;false;blur;no;3752738;Chrome;112.0;Windows;10;undefined;undefined;1600 x 900;1601 x 762
H001;25;Vrouwelijk;Rechts;5;10;left;no;400;undefined;null;false;blur;no;3756746;Chrome;112.0;Windows;10;undefined;undefined;1600 x 900;1601 x 762
H001;25;Vrouwelijk;Rechts;5;11;right;no;400;rightarrow;904;true;focus;no;3758752;Chrome;112.0;Windows;10;undefined;undefined;1600 x 900;1601 x 762
H001;25;Vrouwelijk;Rechts;5;12;right;yes;400;rightarrow;791;false;focus;no;3760320;Chrome;112.0;Windows;10;undefined;undefined;1600 x 900;1601 x 762
H001;25;Vrouwelijk;Rechts;5;13;left;no;350;leftarrow;545;true;focus;no;3761640;Chrome;112.0;Windows;10;undefined;undefined;1600 x 900;1601 x 762
H001;25;Vrouwelijk;Rechts;5;14;left;yes;350;leftarrow;476;false;focus;no;3762889;Chrome;112.0;Windows;10;undefined;undefined;1600 x 900;1601 x 762
H001;25;Vrouwelijk;Rechts;5;15;right;no;300;rightarrow;450;true;focus;no;3764112;Chrome;112.0;Windows;10;undefined;undefined;1600 x 900;1601 x 762
H001;25;Vrouwelijk;Rechts;5;16;right;no;300;rightarrow;617;true;focus;no;3765496;Chrome;112.0;Windows;10;undefined;undefined;1600 x 900;1601 x 762
H001;25;Vrouwelijk;Rechts;5;17;right;yes;300;rightarrow;537;false;focus;no;3766816;Chrome;112.0;Windows;10;undefined;undefined;1600 x 900;1601 x 762
H001;25;Vrouwelijk;Rechts;5;18;right;no;250;rightarrow;540;true;focus;no;3768136;Chrome;112.0;Windows;10;undefined;undefined;1600 x 900;1601 x 762
H001;25;Vrouwelijk;Rechts;5;19;left;no;250;leftarrow;697;true;focus;no;3769609;Chrome;112.0;Windows;10;undefined;undefined;1600 x 900;1601 x 762
H001;25;Vrouwelijk;Rechts;5;20;right;no;250;rightarrow;445;true;focus;no;3770824;Chrome;112.0;Windows;10;undefined;undefined;1600 x 900;1601 x 762
H001;25;Vrouwelijk;Rechts;5;21;left;no;250;leftarrow;381;true;focus;no;3771976;Chrome;112.0;Windows;10;undefined;undefined;1600 x 900;1601 x 762
H001;25;Vrouwelijk;Rechts;5;22;right;no;250;rightarrow;243;true;focus;no;3772985;Chrome;112.0;Windows;10;undefined;undefined;1600 x 900;1601 x 762
H001;25;Vrouwelijk;Rechts;5;23;left;no;250;leftarrow;190;true;focus;no;3773952;Chrome;112.0;Windows;10;undefined;undefined;1600 x 900;1601 x 762
H001;25;Vrouwelijk;Rechts;5;24;left;yes;250;rightarrow;143;false;focus;no;3774872;Chrome;112.0;Windows;10;undefined;undefined;1600 x 900;1601 x 762
H001;25;Vrouwelijk;Rechts;5;25;right;no;200;leftarrow;267;false;focus;no;3775913;Chrome;112.0;Windows;10;undefined;undefined;1600 x 900;1601 x 762
H001;25;Vrouwelijk;Rechts;5;26;left;no;200;leftarrow;321;true;focus;no;3777016;Chrome;112.0;Windows;10;undefined;undefined;1600 x 900;1601 x 762
H001;25;Vrouwelijk;Rechts;5;27;right;no;200;rightarrow;445;true;focus;no;3778240;Chrome;112.0;Windows;10;undefined;undefined;1600 x 900;1601 x 762
H001;25;Vrouwelijk;Rechts;5;28;left;yes;200;leftarrow;405;false;focus;no;3779417;Chrome;112.0;Windows;10;undefined;undefined;1600 x 900;1601 x 762
H001;25;Vrouwelijk;Rechts;5;29;left;no;150;leftarrow;421;true;focus;no;3780616;Chrome;112.0;Windows;10;undefined;undefined;1600 x 900;1601 x 762
H001;25;Vrouwelijk;Rechts;5;30;right;yes;150;rightarrow;412;false;focus;no;3781807;Chrome;112.0;Windows;10;undefined;undefined;1600 x 900;1601 x 762
H001;25;Vrouwelijk;Rechts;5;31;left;no;100;leftarrow;742;true;focus;no;3783327;Chrome;112.0;Windows;10;undefined;undefined;1600 x 900;1601 x 762
H001;25;Vrouwelijk;Rechts;5;32;right;no;100;rightarrow;521;true;focus;no;3784623;Chrome;112.0;Windows;10;undefined;undefined;1600 x 900;1601 x 762
H001;25;Vrouwelijk;Rechts;5;33;right;no;100;rightarrow;389;true;focus;no;3785791;Chrome;112.0;Windows;10;undefined;undefined;1600 x 900;1601 x 762
H001;25;Vrouwelijk;Rechts;5;34;left;no;100;leftarrow;615;true;focus;no;3787183;Chrome;112.0;Windows;10;undefined;undefined;1600 x 900;1601 x 762
H001;25;Vrouwelijk;Rechts;5;35;left;no;100;leftarrow;478;true;focus;no;3788431;Chrome;112.0;Windows;10;undefined;undefined;1600 x 900;1601 x 762
H001;25;Vrouwelijk;Rechts;5;36;right;no;100;rightarrow;445;true;focus;no;3789647;Chrome;112.0;Windows;10;undefined;undefined;1600 x 900;1601 x 762
H001;25;Vrouwelijk;Rechts;5;37;left;no;100;leftarrow;1244;true;focus;no;3791647;Chrome;112.0;Windows;10;undefined;undefined;1600 x 900;1601 x 762
H001;25;Vrouwelijk;Rechts;5;38;right;no;100;rightarrow;573;true;focus;no;3792991;Chrome;112.0;Windows;10;undefined;undefined;1600 x 900;1601 x 762
H001;25;Vrouwelijk;Rechts;5;39;left;yes;100;leftarrow;455;false;focus;no;3794223;Chrome;112.0;Windows;10;undefined;undefined;1600 x 900;1601 x 762
H001;25;Vrouwelijk;Rechts;5;40;right;yes;50;rightarrow;429;false;focus;no;3795431;Chrome;112.0;Windows;10;undefined;undefined;1600 x 900;1601 x 762
H001;25;Vrouwelijk;Rechts;5;41;left;no;50;leftarrow;437;true;focus;no;3796639;Chrome;112.0;Windows;10;undefined;undefined;1600 x 900;1601 x 762
H001;25;Vrouwelijk;Rechts;5;42;right;yes;50;undefined;null;true;focus;no;3798676;Chrome;112.0;Windows;10;undefined;undefined;1600 x 900;1601 x 762
H001;25;Vrouwelijk;Rechts;5;43;right;no;100;rightarrow;419;true;focus;no;3799871;Chrome;112.0;Windows;10;undefined;undefined;1600 x 900;1601 x 762
H001;25;Vrouwelijk;Rechts;5;44;right;no;100;rightarrow;699;true;focus;no;3801351;Chrome;112.0;Windows;10;undefined;undefined;1600 x 900;1601 x 762
H001;25;Vrouwelijk;Rechts;5;45;right;no;100;rightarrow;793;true;focus;no;3802911;Chrome;112.0;Windows;10;undefined;undefined;1600 x 900;1601 x 762
H001;25;Vrouwelijk;Rechts;5;46;left;yes;100;undefined;null;true;focus;no;3804944;Chrome;112.0;Windows;10;undefined;undefined;1600 x 900;1601 x 762
H001;25;Vrouwelijk;Rechts;5;47;left;no;150;leftarrow;537;true;focus;no;3806255;Chrome;112.0;Windows;10;undefined;undefined;1600 x 900;1601 x 762
H001;25;Vrouwelijk;Rechts;5;48;left;no;150;leftarrow;884;true;focus;no;3807919;Chrome;112.0;Windows;10;undefined;undefined;1600 x 900;1601 x 762
H001;25;Vrouwelijk;Rechts;5;49;left;no;150;leftarrow;825;true;focus;no;3809527;Chrome;112.0;Windows;10;undefined;undefined;1600 x 900;1601 x 762
H001;25;Vrouwelijk;Rechts;5;50;left;no;150;leftarrow;810;true;focus;no;3811111;Chrome;112.0;Windows;10;undefined;undefined;1600 x 900;1601 x 762
H001;25;Vrouwelijk;Rechts;5;51;right;no;150;rightarrow;634;true;focus;no;3812519;Chrome;112.0;Windows;10;undefined;undefined;1600 x 900;1601 x 762
H001;25;Vrouwelijk;Rechts;5;52;right;no;150;rightarrow;570;true;focus;no;3813871;Chrome;112.0;Windows;10;undefined;undefined;1600 x 900;1601 x 762
H001;25;Vrouwelijk;Rechts;5;53;right;yes;150;undefined;null;true;focus;no;3815910;Chrome;112.0;Windows;10;undefined;undefined;1600 x 900;1601 x 762
H001;25;Vrouwelijk;Rechts;5;54;left;no;200;leftarrow;804;true;focus;no;3817495;Chrome;112.0;Windows;10;undefined;undefined;1600 x 900;1601 x 762
H001;25;Vrouwelijk;Rechts;5;55;right;no;200;rightarrow;576;true;focus;no;3818847;Chrome;112.0;Windows;10;undefined;undefined;1600 x 900;1601 x 762
H001;25;Vrouwelijk;Rechts;5;56;left;yes;200;undefined;null;true;blur;no;3821741;Chrome;112.0;Windows;10;undefined;undefined;1600 x 900;1601 x 762
H001;25;Vrouwelijk;Rechts;5;57;right;no;250;undefined;null;false;blur;no;3825752;Chrome;112.0;Windows;10;undefined;undefined;1600 x 900;1601 x 762
H001;25;Vrouwelijk;Rechts;5;58;right;no;250;undefined;null;false;blur;no;3829744;Chrome;112.0;Windows;10;undefined;undefined;1600 x 900;1601 x 762
H001;25;Vrouwelijk;Rechts;5;59;right;yes;250;undefined;null;true;blur;no;3833738;Chrome;112.0;Windows;10;undefined;undefined;1600 x 900;1601 x 762
H001;25;Vrouwelijk;Rechts;5;60;right;no;300;undefined;null;false;blur;no;3837738;Chrome;112.0;Windows;10;undefined;undefined;1600 x 900;1601 x 762
H001;25;Vrouwelijk;Rechts;5;61;left;no;300;undefined;null;false;blur;no;3841747;Chrome;112.0;Windows;10;undefined;undefined;1600 x 900;1601 x 762
H001;25;Vrouwelijk;Rechts;5;62;left;yes;300;undefined;null;true;focus;no;3843935;Chrome;112.0;Windows;10;undefined;undefined;1600 x 900;1601 x 762
H001;25;Vrouwelijk;Rechts;5;63;left;no;350;undefined;null;false;focus;no;3845960;Chrome;112.0;Windows;10;undefined;undefined;1600 x 900;1601 x 762
H001;25;Vrouwelijk;Rechts;5;64;left;no;350;undefined;null;false;focus;no;3847993;Chrome;112.0;Windows;10;undefined;undefined;1600 x 900;1601 x 762
H001;25;Vrouwelijk;Rechts;5;65;right;no;350;undefined;null;false;focus;no;3850029;Chrome;112.0;Windows;10;undefined;undefined;1600 x 900;1601 x 762
H001;25;Vrouwelijk;Rechts;5;66;right;no;350;undefined;null;false;focus;no;3852060;Chrome;112.0;Windows;10;undefined;undefined;1600 x 900;1601 x 762
H001;25;Vrouwelijk;Rechts;5;67;left;no;350;undefined;null;false;focus;no;3854093;Chrome;112.0;Windows;10;undefined;undefined;1600 x 900;1601 x 762
H001;25;Vrouwelijk;Rechts;5;68;left;no;350;undefined;null;false;focus;no;3856126;Chrome;112.0;Windows;10;undefined;undefined;1600 x 900;1601 x 762
H001;25;Vrouwelijk;Rechts;5;69;left;no;350;undefined;null;false;focus;no;3858175;Chrome;112.0;Windows;10;undefined;undefined;1600 x 900;1601 x 762
H001;25;Vrouwelijk;Rechts;5;70;right;yes;350;undefined;null;true;focus;no;3860216;Chrome;112.0;Windows;10;undefined;undefined;1600 x 900;1601 x 762
H001;25;Vrouwelijk;Rechts;5;71;left;yes;400;undefined;null;true;focus;no;3862252;Chrome;112.0;Windows;10;undefined;undefined;1600 x 900;1601 x 762
H001;25;Vrouwelijk;Rechts;5;72;right;no;450;undefined;null;false;focus;no;3864267;Chrome;112.0;Windows;10;undefined;undefined;1600 x 900;1601 x 762
H001;25;Vrouwelijk;Rechts;5;73;right;no;450;undefined;null;false;focus;no;3866293;Chrome;112.0;Windows;10;undefined;undefined;1600 x 900;1601 x 762
H001;25;Vrouwelijk;Rechts;5;74;left;no;450;undefined;null;false;focus;no;3868327;Chrome;112.0;Windows;10;undefined;undefined;1600 x 900;1601 x 762
H001;25;Vrouwelijk;Rechts;5;75;right;yes;450;undefined;null;true;focus;no;3870372;Chrome;112.0;Windows;10;undefined;undefined;1600 x 900;1601 x 762
H001;25;Vrouwelijk;Rechts;5;76;right;no;500;undefined;null;false;focus;no;3872408;Chrome;112.0;Windows;10;undefined;undefined;1600 x 900;1601 x 762
H001;25;Vrouwelijk;Rechts;5;77;left;yes;500;undefined;null;true;blur;no;3874754;Chrome;112.0;Windows;10;undefined;undefined;1600 x 900;1601 x 762
H001;25;Vrouwelijk;Rechts;5;78;left;no;550;undefined;null;false;blur;no;3878760;Chrome;112.0;Windows;10;undefined;undefined;1600 x 900;1601 x 762
H001;25;Vrouwelijk;Rechts;5;79;left;no;550;undefined;null;false;blur;no;3882744;Chrome;112.0;Windows;10;undefined;undefined;1600 x 900;1601 x 762
H001;25;Vrouwelijk;Rechts;5;80;right;no;550;undefined;null;false;blur;no;3886746;Chrome;112.0;Windows;10;undefined;undefined;1600 x 900;1601 x 762
H001;25;Vrouwelijk;Rechts;5;81;right;yes;550;undefined;null;true;blur;no;3890747;Chrome;112.0;Windows;10;undefined;undefined;1600 x 900;1601 x 762
H001;25;Vrouwelijk;Rechts;5;82;right;no;600;undefined;null;false;blur;no;3894749;Chrome;112.0;Windows;10;undefined;undefined;1600 x 900;1601 x 762
H001;25;Vrouwelijk;Rechts;5;83;right;no;600;undefined;null;false;blur;no;3898749;Chrome;112.0;Windows;10;undefined;undefined;1600 x 900;1601 x 762
H001;25;Vrouwelijk;Rechts;5;84;left;yes;600;undefined;null;true;blur;no;3902755;Chrome;112.0;Windows;10;undefined;undefined;1600 x 900;1601 x 762
H001;25;Vrouwelijk;Rechts;5;85;right;no;650;undefined;null;false;blur;no;3906757;Chrome;112.0;Windows;10;undefined;undefined;1600 x 900;1601 x 762
H001;25;Vrouwelijk;Rechts;5;86;left;no;650;undefined;null;false;blur;no;3910757;Chrome;112.0;Windows;10;undefined;undefined;1600 x 900;1601 x 762
H001;25;Vrouwelijk;Rechts;5;87;left;no;650;undefined;null;false;blur;no;3914757;Chrome;112.0;Windows;10;undefined;undefined;1600 x 900;1601 x 762
H001;25;Vrouwelijk;Rechts;5;88;left;no;650;undefined;null;false;blur;no;3918757;Chrome;112.0;Windows;10;undefined;undefined;1600 x 900;1601 x 762
H001;25;Vrouwelijk;Rechts;5;89;right;no;650;undefined;null;false;blur;no;3922756;Chrome;112.0;Windows;10;undefined;undefined;1600 x 900;1601 x 762
H001;25;Vrouwelijk;Rechts;5;90;left;no;650;undefined;null;false;blur;no;3926758;Chrome;112.0;Windows;10;undefined;undefined;1600 x 900;1601 x 762
H001;25;Vrouwelijk;Rechts;5;91;left;no;650;undefined;null;false;blur;no;3930758;Chrome;112.0;Windows;10;undefined;undefined;1600 x 900;1601 x 762
H001;25;Vrouwelijk;Rechts;5;92;left;yes;650;undefined;null;true;blur;no;3951762;Chrome;112.0;Windows;10;undefined;undefined;1600 x 900;1601 x 762
H001;25;Vrouwelijk;Rechts;5;93;right;no;700;undefined;null;false;blur;no;3969045;Chrome;112.0;Windows;10;undefined;undefined;1600 x 900;1601 x 762
H001;25;Vrouwelijk;Rechts;5;94;left;no;700;undefined;null;false;blur;no;3971066;Chrome;112.0;Windows;10;undefined;undefined;1600 x 900;1601 x 762
H001;25;Vrouwelijk;Rechts;5;95;right;yes;700;undefined;null;true;blur;no;3973112;Chrome;112.0;Windows;10;undefined;undefined;1600 x 900;1601 x 762
H001;25;Vrouwelijk;Rechts;5;96;right;no;750;undefined;null;false;blur;no;3975148;Chrome;112.0;Windows;10;undefined;undefined;1600 x 900;1601 x 762
H001;25;Vrouwelijk;Rechts;5;97;right;no;750;undefined;null;false;blur;no;3977185;Chrome;112.0;Windows;10;undefined;undefined;1600 x 900;1601 x 762
H001;25;Vrouwelijk;Rechts;5;98;left;no;750;undefined;null;false;blur;no;3979767;Chrome;112.0;Windows;10;undefined;undefined;1600 x 900;1601 x 762
H001;25;Vrouwelijk;Rechts;5;99;left;yes;750;leftarrow;565;false;focus;no;3981094;Chrome;112.0;Windows;10;undefined;undefined;1600 x 900;1601 x 762
H001;25;Vrouwelijk;Rechts;5;100;left;no;700;leftarrow;365;true;focus;no;3982230;Chrome;112.0;Windows;10;undefined;undefined;1600 x 900;1601 x 762
H001;25;Vrouwelijk;Rechts;5;101;right;no;700;rightarrow;399;true;focus;no;3983398;Chrome;112.0;Windows;10;undefined;undefined;1600 x 900;1601 x 762
H001;25;Vrouwelijk;Rechts;5;102;right;no;700;rightarrow;384;true;focus;no;3984566;Chrome;112.0;Windows;10;undefined;undefined;1600 x 900;1601 x 762
H001;25;Vrouwelijk;Rechts;5;103;left;no;700;undefined;null;false;blur;no;3986762;Chrome;112.0;Windows;10;undefined;undefined;1600 x 900;1601 x 762
H001;25;Vrouwelijk;Rechts;5;104;right;yes;700;rightarrow;508;false;focus;no;3989526;Chrome;112.0;Windows;10;undefined;undefined;1600 x 900;1601 x 762
H001;25;Vrouwelijk;Rechts;5;105;left;no;650;leftarrow;257;true;focus;no;3990542;Chrome;112.0;Windows;10;undefined;undefined;1600 x 900;1601 x 762
H001;25;Vrouwelijk;Rechts;5;106;left;yes;650;leftarrow;366;false;focus;no;3991678;Chrome;112.0;Windows;10;undefined;undefined;1600 x 900;1601 x 762
H001;25;Vrouwelijk;Rechts;5;107;right;no;600;rightarrow;366;true;focus;no;3992814;Chrome;112.0;Windows;10;undefined;undefined;1600 x 900;1601 x 762
H001;25;Vrouwelijk;Rechts;5;108;left;no;600;leftarrow;256;true;focus;no;3993838;Chrome;112.0;Windows;10;undefined;undefined;1600 x 900;1601 x 762
H001;25;Vrouwelijk;Rechts;5;109;right;yes;600;rightarrow;519;false;focus;no;3995134;Chrome;112.0;Windows;10;undefined;undefined;1600 x 900;1601 x 762
H001;25;Vrouwelijk;Rechts;5;110;left;no;550;leftarrow;251;true;focus;no;3996166;Chrome;112.0;Windows;10;undefined;undefined;1600 x 900;1601 x 762
H001;25;Vrouwelijk;Rechts;5;111;right;no;550;rightarrow;1146;true;focus;no;3998078;Chrome;112.0;Windows;10;undefined;undefined;1600 x 900;1601 x 762
H001;25;Vrouwelijk;Rechts;5;112;right;no;550;rightarrow;373;true;focus;no;3999222;Chrome;112.0;Windows;10;undefined;undefined;1600 x 900;1601 x 762
H001;25;Vrouwelijk;Rechts;5;113;right;no;550;rightarrow;264;true;focus;no;4000262;Chrome;112.0;Windows;10;undefined;undefined;1600 x 900;1601 x 762
H001;25;Vrouwelijk;Rechts;5;114;left;yes;550;rightarrow;87;false;focus;no;4001902;Chrome;112.0;Windows;10;undefined;undefined;1600 x 900;1601 x 762
H001;25;Vrouwelijk;Rechts;5;115;right;no;500;leftarrow;-181;false;focus;no;4004334;Chrome;112.0;Windows;10;undefined;undefined;1600 x 900;1601 x 762
H001;25;Vrouwelijk;Rechts;5;116;right;no;500;rightarrow;705;true;focus;no;4009470;Chrome;112.0;Windows;10;undefined;undefined;1600 x 900;1601 x 762
H001;25;Vrouwelijk;Rechts;5;117;left;no;500;leftarrow;326;true;focus;no;4010574;Chrome;112.0;Windows;10;undefined;undefined;1600 x 900;1601 x 762
H001;25;Vrouwelijk;Rechts;5;118;right;yes;500;leftarrow;283;false;focus;no;4011886;Chrome;112.0;Windows;10;undefined;undefined;1600 x 900;1601 x 762
H001;25;Vrouwelijk;Rechts;5;119;left;no;450;rightarrow;421;false;focus;no;4013086;Chrome;112.0;Windows;10;undefined;undefined;1600 x 900;1601 x 762
H001;25;Vrouwelijk;Rechts;5;120;left;no;450;leftarrow;-11;false;focus;no;4013854;Chrome;112.0;Windows;10;undefined;undefined;1600 x 900;1601 x 762
H001;25;Vrouwelijk;Rechts;5;121;left;no;450;rightarrow;-141;false;focus;no;4014478;Chrome;112.0;Windows;10;undefined;undefined;1600 x 900;1601 x 762
H001;25;Vrouwelijk;Rechts;5;122;right;yes;450;leftarrow;-218;false;focus;no;4015030;Chrome;112.0;Windows;10;undefined;undefined;1600 x 900;1601 x 762
H001;25;Vrouwelijk;Rechts;5;123;left;no;400;rightarrow;-192;false;focus;no;4015606;Chrome;112.0;Windows;10;undefined;undefined;1600 x 900;1601 x 762
H001;25;Vrouwelijk;Rechts;5;124;right;no;400;rightarrow;-153;false;focus;no;4016214;Chrome;112.0;Windows;10;undefined;undefined;1600 x 900;1601 x 762
H001;25;Vrouwelijk;Rechts;5;125;right;no;400;leftarrow;-159;false;focus;no;4016822;Chrome;112.0;Windows;10;undefined;undefined;1600 x 900;1601 x 762
H001;25;Vrouwelijk;Rechts;5;126;left;no;400;rightarrow;null;false;focus;no;4017334;Chrome;112.0;Windows;10;undefined;undefined;1600 x 900;1601 x 762
H001;25;Vrouwelijk;Rechts;5;127;right;no;400;leftarrow;19;false;focus;no;4018118;Chrome;112.0;Windows;10;undefined;undefined;1600 x 900;1601 x 762
H001;25;Vrouwelijk;Rechts;5;128;left;yes;400;leftarrow;452;false;focus;no;4019350;Chrome;112.0;Windows;10;undefined;undefined;1600 x 900;1601 x 762
H001;25;Vrouwelijk;Rechts;6;1;right;yes;350;rightarrow;407;false;focus;no;4086631;Chrome;112.0;Windows;10;undefined;undefined;1600 x 900;1601 x 762
H001;25;Vrouwelijk;Rechts;6;2;left;no;300;leftarrow;509;true;focus;no;4087912;Chrome;112.0;Windows;10;undefined;undefined;1600 x 900;1601 x 762
H001;25;Vrouwelijk;Rechts;6;3;right;no;300;rightarrow;405;true;focus;no;4089095;Chrome;112.0;Windows;10;undefined;undefined;1600 x 900;1601 x 762
H001;25;Vrouwelijk;Rechts;6;4;left;yes;300;leftarrow;307;false;focus;no;4091231;Chrome;112.0;Windows;10;undefined;undefined;1600 x 900;1601 x 762
H001;25;Vrouwelijk;Rechts;6;5;left;no;250;rightarrow;-229;false;focus;no;4092031;Chrome;112.0;Windows;10;undefined;undefined;1600 x 900;1601 x 762
H001;25;Vrouwelijk;Rechts;6;6;right;no;250;rightarrow;-139;false;focus;no;4092936;Chrome;112.0;Windows;10;undefined;undefined;1600 x 900;1601 x 762
H001;25;Vrouwelijk;Rechts;6;7;right;no;250;leftarrow;61;false;focus;no;4096141;Chrome;112.0;Windows;10;undefined;undefined;1600 x 900;1601 x 762
H001;25;Vrouwelijk;Rechts;6;8;left;no;250;leftarrow;636;true;focus;no;4136133;Chrome;112.0;Windows;10;undefined;undefined;1600 x 900;1601 x 762
H001;25;Vrouwelijk;Rechts;6;9;left;no;250;leftarrow;340;true;focus;no;4137253;Chrome;112.0;Windows;10;undefined;undefined;1600 x 900;1601 x 762
H001;25;Vrouwelijk;Rechts;6;10;right;yes;250;rightarrow;408;false;focus;no;4138437;Chrome;112.0;Windows;10;undefined;undefined;1600 x 900;1601 x 762
H001;25;Vrouwelijk;Rechts;6;11;left;no;200;undefined;null;false;focus;no;4140474;Chrome;112.0;Windows;10;undefined;undefined;1600 x 900;1601 x 762
H001;25;Vrouwelijk;Rechts;6;12;right;no;200;rightarrow;392;true;focus;no;4141637;Chrome;112.0;Windows;10;undefined;undefined;1600 x 900;1601 x 762
H001;25;Vrouwelijk;Rechts;6;13;left;yes;200;leftarrow;448;false;focus;no;4142861;Chrome;112.0;Windows;10;undefined;undefined;1600 x 900;1601 x 762
H001;25;Vrouwelijk;Rechts;6;14;right;no;150;rightarrow;463;true;focus;no;4144109;Chrome;112.0;Windows;10;undefined;undefined;1600 x 900;1601 x 762
H001;25;Vrouwelijk;Rechts;6;15;right;no;150;rightarrow;646;true;focus;no;4145525;Chrome;112.0;Windows;10;undefined;undefined;1600 x 900;1601 x 762
H001;25;Vrouwelijk;Rechts;6;16;left;no;150;leftarrow;765;true;focus;no;4147061;Chrome;112.0;Windows;10;undefined;undefined;1600 x 900;1601 x 762
H001;25;Vrouwelijk;Rechts;6;17;right;no;150;rightarrow;512;true;focus;no;4148341;Chrome;112.0;Windows;10;undefined;undefined;1600 x 900;1601 x 762
H001;25;Vrouwelijk;Rechts;6;18;right;yes;150;undefined;null;true;focus;no;4150362;Chrome;112.0;Windows;10;undefined;undefined;1600 x 900;1601 x 762
H001;25;Vrouwelijk;Rechts;6;19;left;yes;200;leftarrow;423;false;focus;no;4151557;Chrome;112.0;Windows;10;undefined;undefined;1600 x 900;1601 x 762
H001;25;Vrouwelijk;Rechts;6;20;left;no;150;leftarrow;636;true;focus;no;4152965;Chrome;112.0;Windows;10;undefined;undefined;1600 x 900;1601 x 762
H001;25;Vrouwelijk;Rechts;6;21;left;no;150;leftarrow;763;true;focus;no;4154509;Chrome;112.0;Windows;10;undefined;undefined;1600 x 900;1601 x 762
H001;25;Vrouwelijk;Rechts;6;22;right;no;150;rightarrow;638;true;focus;no;4155922;Chrome;112.0;Windows;10;undefined;undefined;1600 x 900;1601 x 762
H001;25;Vrouwelijk;Rechts;6;23;left;no;150;leftarrow;510;true;focus;no;4157210;Chrome;112.0;Windows;10;undefined;undefined;1600 x 900;1601 x 762
H001;25;Vrouwelijk;Rechts;6;24;right;no;150;rightarrow;586;true;focus;no;4158570;Chrome;112.0;Windows;10;undefined;undefined;1600 x 900;1601 x 762
H001;25;Vrouwelijk;Rechts;6;25;left;no;150;leftarrow;571;true;focus;no;4159922;Chrome;112.0;Windows;10;undefined;undefined;1600 x 900;1601 x 762
H001;25;Vrouwelijk;Rechts;6;26;right;yes;150;undefined;null;true;focus;no;4161943;Chrome;112.0;Windows;10;undefined;undefined;1600 x 900;1601 x 762
H001;25;Vrouwelijk;Rechts;6;27;left;no;200;leftarrow;661;true;focus;no;4163378;Chrome;112.0;Windows;10;undefined;undefined;1600 x 900;1601 x 762
H001;25;Vrouwelijk;Rechts;6;28;right;no;200;rightarrow;708;true;focus;no;4164858;Chrome;112.0;Windows;10;undefined;undefined;1600 x 900;1601 x 762
