participantID;age;gender;handedness;block_i;trial_i;stim;signal;SSD;response;rt;correct;focus;Fullscreen;time_elapsed;browser_name;browser_version;os_name;os_version;tablet;mobile;screen_resolution;window_resolution
H027;32;Mannelijk;Rechts;0;1;right;no;200;rightarrow;509;true;focus;yes;126615;Chrome;112.0;Windows;10;undefined;undefined;1920 x 1080;2560 x 1440
H027;32;Mannelijk;Rechts;0;2;right;no;200;rightarrow;503;true;focus;yes;128623;Chrome;112.0;Windows;10;undefined;undefined;1920 x 1080;2560 x 1440
H027;32;Mannelijk;Rechts;0;3;left;no;200;leftarrow;392;true;focus;yes;130519;Chrome;112.0;Windows;10;undefined;undefined;1920 x 1080;2560 x 1440
H027;32;Mannelijk;Rechts;0;4;left;no;200;leftarrow;377;true;focus;yes;132399;Chrome;112.0;Windows;10;undefined;undefined;1920 x 1080;2560 x 1440
H027;32;Mannelijk;Rechts;0;5;right;no;200;rightarrow;289;true;focus;yes;134191;Chrome;112.0;Windows;10;undefined;undefined;1920 x 1080;2560 x 1440
H027;32;Mannelijk;Rechts;0;6;right;yes;200;rightarrow;368;false;focus;yes;136063;Chrome;112.0;Windows;10;undefined;undefined;1920 x 1080;2560 x 1440
H027;32;Mannelijk;Rechts;0;7;left;no;150;leftarrow;393;true;focus;yes;137959;Chrome;112.0;Windows;10;undefined;undefined;1920 x 1080;2560 x 1440
H027;32;Mannelijk;Rechts;0;8;left;yes;150;leftarrow;385;false;focus;yes;139847;Chrome;112.0;Windows;10;undefined;undefined;1920 x 1080;2560 x 1440
H027;32;Mannelijk;Rechts;1;1;right;no;100;rightarrow;415;true;focus;yes;160815;Chrome;112.0;Windows;10;undefined;undefined;1920 x 1080;2560 x 1440
H027;32;Mannelijk;Rechts;1;2;left;no;100;leftarrow;407;true;focus;yes;161975;Chrome;112.0;Windows;10;undefined;undefined;1920 x 1080;2560 x 1440
H027;32;Mannelijk;Rechts;1;3;left;no;100;leftarrow;335;true;focus;yes;163063;Chrome;112.0;Windows;10;undefined;undefined;1920 x 1080;2560 x 1440
H027;32;Mannelijk;Rechts;1;4;left;yes;100;undefined;null;true;focus;yes;165078;Chrome;112.0;Windows;10;undefined;undefined;1920 x 1080;2560 x 1440
H027;32;Mannelijk;Rechts;1;5;right;yes;150;rightarrow;360;false;focus;yes;166191;Chrome;112.0;Windows;10;undefined;undefined;1920 x 1080;2560 x 1440
H027;32;Mannelijk;Rechts;1;6;left;no;100;leftarrow;447;true;focus;yes;167391;Chrome;112.0;Windows;10;undefined;undefined;1920 x 1080;2560 x 1440
H027;32;Mannelijk;Rechts;1;7;right;no;100;rightarrow;360;true;focus;yes;168503;Chrome;112.0;Windows;10;undefined;undefined;1920 x 1080;2560 x 1440
H027;32;Mannelijk;Rechts;1;8;right;no;100;rightarrow;368;true;focus;yes;169623;Chrome;112.0;Windows;10;undefined;undefined;1920 x 1080;2560 x 1440
H027;32;Mannelijk;Rechts;1;9;left;no;100;leftarrow;312;true;focus;yes;170687;Chrome;112.0;Windows;10;undefined;undefined;1920 x 1080;2560 x 1440
H027;32;Mannelijk;Rechts;1;10;left;no;100;leftarrow;263;true;focus;yes;171703;Chrome;112.0;Windows;10;undefined;undefined;1920 x 1080;2560 x 1440
H027;32;Mannelijk;Rechts;1;11;right;no;100;rightarrow;287;true;focus;yes;172743;Chrome;112.0;Windows;10;undefined;undefined;1920 x 1080;2560 x 1440
H027;32;Mannelijk;Rechts;1;12;left;no;100;leftarrow;374;true;focus;yes;173871;Chrome;112.0;Windows;10;undefined;undefined;1920 x 1080;2560 x 1440
H027;32;Mannelijk;Rechts;1;13;right;no;100;rightarrow;230;true;focus;yes;174855;Chrome;112.0;Windows;10;undefined;undefined;1920 x 1080;2560 x 1440
H027;32;Mannelijk;Rechts;1;14;right;yes;100;undefined;null;true;focus;yes;176858;Chrome;112.0;Windows;10;undefined;undefined;1920 x 1080;2560 x 1440
H027;32;Mannelijk;Rechts;1;15;right;no;150;rightarrow;349;true;focus;yes;177959;Chrome;112.0;Windows;10;undefined;undefined;1920 x 1080;2560 x 1440
H027;32;Mannelijk;Rechts;1;16;left;yes;150;leftarrow;278;false;focus;yes;178991;Chrome;112.0;Windows;10;undefined;undefined;1920 x 1080;2560 x 1440
H027;32;Mannelijk;Rechts;1;17;left;yes;100;undefined;null;true;focus;yes;180995;Chrome;112.0;Windows;10;undefined;undefined;1920 x 1080;2560 x 1440
H027;32;Mannelijk;Rechts;1;18;left;no;150;rightarrow;244;false;focus;yes;181991;Chrome;112.0;Windows;10;undefined;undefined;1920 x 1080;2560 x 1440
H027;32;Mannelijk;Rechts;1;19;left;no;150;leftarrow;367;true;focus;yes;183111;Chrome;112.0;Windows;10;undefined;undefined;1920 x 1080;2560 x 1440
H027;32;Mannelijk;Rechts;1;20;right;no;150;rightarrow;383;true;focus;yes;184247;Chrome;112.0;Windows;10;undefined;undefined;1920 x 1080;2560 x 1440
H027;32;Mannelijk;Rechts;1;21;left;no;150;leftarrow;375;true;focus;yes;185375;Chrome;112.0;Windows;10;undefined;undefined;1920 x 1080;2560 x 1440
H027;32;Mannelijk;Rechts;1;22;right;no;150;rightarrow;358;true;focus;yes;186487;Chrome;112.0;Windows;10;undefined;undefined;1920 x 1080;2560 x 1440
H027;32;Mannelijk;Rechts;1;23;right;no;150;rightarrow;416;true;focus;yes;187655;Chrome;112.0;Windows;10;undefined;undefined;1920 x 1080;2560 x 1440
H027;32;Mannelijk;Rechts;1;24;right;yes;150;rightarrow;318;false;focus;yes;188727;Chrome;112.0;Windows;10;undefined;undefined;1920 x 1080;2560 x 1440
H027;32;Mannelijk;Rechts;1;25;right;yes;100;undefined;null;true;focus;yes;190731;Chrome;112.0;Windows;10;undefined;undefined;1920 x 1080;2560 x 1440
H027;32;Mannelijk;Rechts;1;26;left;yes;150;leftarrow;282;false;focus;yes;191767;Chrome;112.0;Windows;10;undefined;undefined;1920 x 1080;2560 x 1440
H027;32;Mannelijk;Rechts;1;27;left;no;100;leftarrow;982;true;focus;yes;193503;Chrome;112.0;Windows;10;undefined;undefined;1920 x 1080;2560 x 1440
H027;32;Mannelijk;Rechts;1;28;left;no;100;leftarrow;359;true;focus;yes;194615;Chrome;112.0;Windows;10;undefined;undefined;1920 x 1080;2560 x 1440
H027;32;Mannelijk;Rechts;1;29;right;no;100;rightarrow;375;true;focus;yes;195743;Chrome;112.0;Windows;10;undefined;undefined;1920 x 1080;2560 x 1440
H027;32;Mannelijk;Rechts;1;30;right;no;100;rightarrow;369;true;focus;yes;196871;Chrome;112.0;Windows;10;undefined;undefined;1920 x 1080;2560 x 1440
H027;32;Mannelijk;Rechts;1;31;left;no;100;leftarrow;399;true;focus;yes;198023;Chrome;112.0;Windows;10;undefined;undefined;1920 x 1080;2560 x 1440
H027;32;Mannelijk;Rechts;1;32;right;no;100;rightarrow;263;true;focus;yes;199039;Chrome;112.0;Windows;10;undefined;undefined;1920 x 1080;2560 x 1440
H027;32;Mannelijk;Rechts;1;33;left;no;100;leftarrow;383;true;focus;yes;200175;Chrome;112.0;Windows;10;undefined;undefined;1920 x 1080;2560 x 1440
H027;32;Mannelijk;Rechts;1;34;left;yes;100;undefined;null;true;focus;yes;202179;Chrome;112.0;Windows;10;undefined;undefined;1920 x 1080;2560 x 1440
H027;32;Mannelijk;Rechts;1;35;right;no;150;rightarrow;354;true;focus;yes;203295;Chrome;112.0;Windows;10;undefined;undefined;1920 x 1080;2560 x 1440
H027;32;Mannelijk;Rechts;1;36;left;no;150;leftarrow;302;true;focus;yes;204351;Chrome;112.0;Windows;10;undefined;undefined;1920 x 1080;2560 x 1440
H027;32;Mannelijk;Rechts;1;37;right;no;150;rightarrow;327;true;focus;yes;205431;Chrome;112.0;Windows;10;undefined;undefined;1920 x 1080;2560 x 1440
H027;32;Mannelijk;Rechts;1;38;left;no;150;leftarrow;263;true;focus;yes;206447;Chrome;112.0;Windows;10;undefined;undefined;1920 x 1080;2560 x 1440
H027;32;Mannelijk;Rechts;1;39;right;yes;150;rightarrow;262;false;focus;yes;207463;Chrome;112.0;Windows;10;undefined;undefined;1920 x 1080;2560 x 1440
H027;32;Mannelijk;Rechts;1;40;right;no;100;rightarrow;774;true;focus;yes;208991;Chrome;112.0;Windows;10;undefined;undefined;1920 x 1080;2560 x 1440
H027;32;Mannelijk;Rechts;1;41;right;yes;100;undefined;null;true;focus;yes;211001;Chrome;112.0;Windows;10;undefined;undefined;1920 x 1080;2560 x 1440
H027;32;Mannelijk;Rechts;1;42;left;yes;150;leftarrow;326;false;focus;yes;212079;Chrome;112.0;Windows;10;undefined;undefined;1920 x 1080;2560 x 1440
H027;32;Mannelijk;Rechts;1;43;left;no;100;leftarrow;718;true;focus;yes;213551;Chrome;112.0;Windows;10;undefined;undefined;1920 x 1080;2560 x 1440
H027;32;Mannelijk;Rechts;1;44;left;no;100;leftarrow;510;true;focus;yes;214815;Chrome;112.0;Windows;10;undefined;undefined;1920 x 1080;2560 x 1440
H027;32;Mannelijk;Rechts;1;45;left;no;100;leftarrow;415;true;focus;yes;215983;Chrome;112.0;Windows;10;undefined;undefined;1920 x 1080;2560 x 1440
H027;32;Mannelijk;Rechts;1;46;right;no;100;rightarrow;719;true;focus;yes;217455;Chrome;112.0;Windows;10;undefined;undefined;1920 x 1080;2560 x 1440
H027;32;Mannelijk;Rechts;1;47;right;no;100;rightarrow;495;true;focus;yes;218703;Chrome;112.0;Windows;10;undefined;undefined;1920 x 1080;2560 x 1440
H027;32;Mannelijk;Rechts;1;48;right;no;100;rightarrow;294;true;focus;yes;219759;Chrome;112.0;Windows;10;undefined;undefined;1920 x 1080;2560 x 1440
H027;32;Mannelijk;Rechts;1;49;right;no;100;rightarrow;375;true;focus;yes;220887;Chrome;112.0;Windows;10;undefined;undefined;1920 x 1080;2560 x 1440
H027;32;Mannelijk;Rechts;1;50;left;no;100;leftarrow;383;true;focus;yes;222023;Chrome;112.0;Windows;10;undefined;undefined;1920 x 1080;2560 x 1440
H027;32;Mannelijk;Rechts;1;51;left;yes;100;leftarrow;350;false;focus;yes;223127;Chrome;112.0;Windows;10;undefined;undefined;1920 x 1080;2560 x 1440
H027;32;Mannelijk;Rechts;1;52;right;no;50;rightarrow;344;true;focus;yes;224223;Chrome;112.0;Windows;10;undefined;undefined;1920 x 1080;2560 x 1440
H027;32;Mannelijk;Rechts;1;53;left;no;50;leftarrow;288;true;focus;yes;225263;Chrome;112.0;Windows;10;undefined;undefined;1920 x 1080;2560 x 1440
H027;32;Mannelijk;Rechts;1;54;left;no;50;leftarrow;558;true;focus;yes;226583;Chrome;112.0;Windows;10;undefined;undefined;1920 x 1080;2560 x 1440
H027;32;Mannelijk;Rechts;1;55;right;no;50;rightarrow;279;true;focus;yes;227623;Chrome;112.0;Windows;10;undefined;undefined;1920 x 1080;2560 x 1440
H027;32;Mannelijk;Rechts;1;56;right;yes;50;rightarrow;368;false;focus;yes;228743;Chrome;112.0;Windows;10;undefined;undefined;1920 x 1080;2560 x 1440
H027;32;Mannelijk;Rechts;1;57;left;yes;50;leftarrow;272;false;focus;yes;229767;Chrome;112.0;Windows;10;undefined;undefined;1920 x 1080;2560 x 1440
H027;32;Mannelijk;Rechts;1;58;left;no;50;leftarrow;359;true;focus;yes;230879;Chrome;112.0;Windows;10;undefined;undefined;1920 x 1080;2560 x 1440
H027;32;Mannelijk;Rechts;1;59;right;yes;50;undefined;null;true;focus;yes;232884;Chrome;112.0;Windows;10;undefined;undefined;1920 x 1080;2560 x 1440
H027;32;Mannelijk;Rechts;1;60;right;no;100;rightarrow;323;true;focus;yes;233959;Chrome;112.0;Windows;10;undefined;undefined;1920 x 1080;2560 x 1440
H027;32;Mannelijk;Rechts;1;61;left;no;100;leftarrow;311;true;focus;yes;235023;Chrome;112.0;Windows;10;undefined;undefined;1920 x 1080;2560 x 1440
H027;32;Mannelijk;Rechts;1;62;right;no;100;rightarrow;378;true;focus;yes;236159;Chrome;112.0;Windows;10;undefined;undefined;1920 x 1080;2560 x 1440
H027;32;Mannelijk;Rechts;1;63;right;no;100;rightarrow;599;true;focus;yes;237511;Chrome;112.0;Windows;10;undefined;undefined;1920 x 1080;2560 x 1440
H027;32;Mannelijk;Rechts;1;64;left;no;100;leftarrow;342;true;focus;yes;238607;Chrome;112.0;Windows;10;undefined;undefined;1920 x 1080;2560 x 1440
H027;32;Mannelijk;Rechts;1;65;right;no;100;rightarrow;326;true;focus;yes;239687;Chrome;112.0;Windows;10;undefined;undefined;1920 x 1080;2560 x 1440
H027;32;Mannelijk;Rechts;1;66;right;yes;100;rightarrow;342;false;focus;yes;240783;Chrome;112.0;Windows;10;undefined;undefined;1920 x 1080;2560 x 1440
H027;32;Mannelijk;Rechts;1;67;left;no;50;leftarrow;304;true;focus;yes;241839;Chrome;112.0;Windows;10;undefined;undefined;1920 x 1080;2560 x 1440
H027;32;Mannelijk;Rechts;1;68;left;yes;50;leftarrow;320;false;focus;yes;242911;Chrome;112.0;Windows;10;undefined;undefined;1920 x 1080;2560 x 1440
H027;32;Mannelijk;Rechts;1;69;left;no;50;leftarrow;351;true;focus;yes;244015;Chrome;112.0;Windows;10;undefined;undefined;1920 x 1080;2560 x 1440
H027;32;Mannelijk;Rechts;1;70;right;no;50;rightarrow;303;true;focus;yes;245071;Chrome;112.0;Windows;10;undefined;undefined;1920 x 1080;2560 x 1440
H027;32;Mannelijk;Rechts;1;71;right;no;50;rightarrow;279;true;focus;yes;246103;Chrome;112.0;Windows;10;undefined;undefined;1920 x 1080;2560 x 1440
H027;32;Mannelijk;Rechts;1;72;left;no;50;leftarrow;390;true;focus;yes;247247;Chrome;112.0;Windows;10;undefined;undefined;1920 x 1080;2560 x 1440
H027;32;Mannelijk;Rechts;1;73;right;yes;50;rightarrow;326;false;focus;yes;248327;Chrome;112.0;Windows;10;undefined;undefined;1920 x 1080;2560 x 1440
H027;32;Mannelijk;Rechts;1;74;left;no;50;leftarrow;342;true;focus;yes;249423;Chrome;112.0;Windows;10;undefined;undefined;1920 x 1080;2560 x 1440
H027;32;Mannelijk;Rechts;1;75;left;yes;50;undefined;null;true;focus;yes;251428;Chrome;112.0;Windows;10;undefined;undefined;1920 x 1080;2560 x 1440
H027;32;Mannelijk;Rechts;1;76;right;no;100;rightarrow;306;true;focus;yes;252487;Chrome;112.0;Windows;10;undefined;undefined;1920 x 1080;2560 x 1440
H027;32;Mannelijk;Rechts;1;77;right;no;100;rightarrow;358;true;focus;yes;253599;Chrome;112.0;Windows;10;undefined;undefined;1920 x 1080;2560 x 1440
H027;32;Mannelijk;Rechts;1;78;left;no;100;leftarrow;326;true;focus;yes;254679;Chrome;112.0;Windows;10;undefined;undefined;1920 x 1080;2560 x 1440
H027;32;Mannelijk;Rechts;1;79;right;no;100;rightarrow;334;true;focus;yes;255767;Chrome;112.0;Windows;10;undefined;undefined;1920 x 1080;2560 x 1440
H027;32;Mannelijk;Rechts;1;80;left;no;100;leftarrow;414;true;focus;yes;256935;Chrome;112.0;Windows;10;undefined;undefined;1920 x 1080;2560 x 1440
H027;32;Mannelijk;Rechts;1;81;left;no;100;leftarrow;413;true;focus;yes;258103;Chrome;112.0;Windows;10;undefined;undefined;1920 x 1080;2560 x 1440
H027;32;Mannelijk;Rechts;1;82;left;no;100;leftarrow;294;true;focus;yes;259151;Chrome;112.0;Windows;10;undefined;undefined;1920 x 1080;2560 x 1440
H027;32;Mannelijk;Rechts;1;83;right;no;100;rightarrow;334;true;focus;yes;260239;Chrome;112.0;Windows;10;undefined;undefined;1920 x 1080;2560 x 1440
H027;32;Mannelijk;Rechts;1;84;right;yes;100;undefined;null;true;focus;yes;262243;Chrome;112.0;Windows;10;undefined;undefined;1920 x 1080;2560 x 1440
H027;32;Mannelijk;Rechts;1;85;right;no;150;rightarrow;356;true;focus;yes;263351;Chrome;112.0;Windows;10;undefined;undefined;1920 x 1080;2560 x 1440
H027;32;Mannelijk;Rechts;1;86;right;no;150;rightarrow;375;true;focus;yes;264479;Chrome;112.0;Windows;10;undefined;undefined;1920 x 1080;2560 x 1440
H027;32;Mannelijk;Rechts;1;87;left;yes;150;leftarrow;327;false;focus;yes;265559;Chrome;112.0;Windows;10;undefined;undefined;1920 x 1080;2560 x 1440
H027;32;Mannelijk;Rechts;1;88;left;no;100;leftarrow;814;true;focus;yes;267127;Chrome;112.0;Windows;10;undefined;undefined;1920 x 1080;2560 x 1440
H027;32;Mannelijk;Rechts;1;89;left;no;100;leftarrow;375;true;focus;yes;268255;Chrome;112.0;Windows;10;undefined;undefined;1920 x 1080;2560 x 1440
H027;32;Mannelijk;Rechts;1;90;right;no;100;rightarrow;455;true;focus;yes;269463;Chrome;112.0;Windows;10;undefined;undefined;1920 x 1080;2560 x 1440
H027;32;Mannelijk;Rechts;1;91;right;yes;100;rightarrow;675;false;focus;yes;270895;Chrome;112.0;Windows;10;undefined;undefined;1920 x 1080;2560 x 1440
H027;32;Mannelijk;Rechts;1;92;left;yes;50;undefined;null;true;focus;yes;272899;Chrome;112.0;Windows;10;undefined;undefined;1920 x 1080;2560 x 1440
H027;32;Mannelijk;Rechts;1;93;right;no;100;rightarrow;532;true;focus;yes;274191;Chrome;112.0;Windows;10;undefined;undefined;1920 x 1080;2560 x 1440
H027;32;Mannelijk;Rechts;1;94;left;no;100;leftarrow;319;true;focus;yes;275263;Chrome;112.0;Windows;10;undefined;undefined;1920 x 1080;2560 x 1440
H027;32;Mannelijk;Rechts;1;95;left;no;100;leftarrow;334;true;focus;yes;276351;Chrome;112.0;Windows;10;undefined;undefined;1920 x 1080;2560 x 1440
H027;32;Mannelijk;Rechts;1;96;right;no;100;rightarrow;350;true;focus;yes;277455;Chrome;112.0;Windows;10;undefined;undefined;1920 x 1080;2560 x 1440
H027;32;Mannelijk;Rechts;1;97;left;no;100;leftarrow;286;true;focus;yes;278495;Chrome;112.0;Windows;10;undefined;undefined;1920 x 1080;2560 x 1440
H027;32;Mannelijk;Rechts;1;98;right;no;100;rightarrow;248;true;focus;yes;279495;Chrome;112.0;Windows;10;undefined;undefined;1920 x 1080;2560 x 1440
H027;32;Mannelijk;Rechts;1;99;left;no;100;leftarrow;247;true;focus;yes;280495;Chrome;112.0;Windows;10;undefined;undefined;1920 x 1080;2560 x 1440
H027;32;Mannelijk;Rechts;1;100;right;no;100;rightarrow;254;true;focus;yes;281503;Chrome;112.0;Windows;10;undefined;undefined;1920 x 1080;2560 x 1440
H027;32;Mannelijk;Rechts;1;101;left;no;100;leftarrow;606;true;focus;yes;282863;Chrome;112.0;Windows;10;undefined;undefined;1920 x 1080;2560 x 1440
H027;32;Mannelijk;Rechts;1;102;right;no;100;rightarrow;303;true;focus;yes;283919;Chrome;112.0;Windows;10;undefined;undefined;1920 x 1080;2560 x 1440
H027;32;Mannelijk;Rechts;1;103;right;yes;100;leftarrow;279;false;focus;yes;284951;Chrome;112.0;Windows;10;undefined;undefined;1920 x 1080;2560 x 1440
H027;32;Mannelijk;Rechts;1;104;left;yes;50;leftarrow;336;false;focus;yes;286039;Chrome;112.0;Windows;10;undefined;undefined;1920 x 1080;2560 x 1440
H027;32;Mannelijk;Rechts;1;105;left;no;50;leftarrow;422;true;focus;yes;287215;Chrome;112.0;Windows;10;undefined;undefined;1920 x 1080;2560 x 1440
H027;32;Mannelijk;Rechts;1;106;left;no;50;leftarrow;358;true;focus;yes;288327;Chrome;112.0;Windows;10;undefined;undefined;1920 x 1080;2560 x 1440
H027;32;Mannelijk;Rechts;1;107;left;yes;50;undefined;null;true;focus;yes;290331;Chrome;112.0;Windows;10;undefined;undefined;1920 x 1080;2560 x 1440
H027;32;Mannelijk;Rechts;1;108;left;no;100;leftarrow;334;true;focus;yes;291423;Chrome;112.0;Windows;10;undefined;undefined;1920 x 1080;2560 x 1440
H027;32;Mannelijk;Rechts;1;109;right;no;100;rightarrow;357;true;focus;yes;292543;Chrome;112.0;Windows;10;undefined;undefined;1920 x 1080;2560 x 1440
H027;32;Mannelijk;Rechts;1;110;right;yes;100;rightarrow;409;false;focus;yes;293719;Chrome;112.0;Windows;10;undefined;undefined;1920 x 1080;2560 x 1440
H027;32;Mannelijk;Rechts;1;111;right;no;50;rightarrow;495;true;focus;yes;294967;Chrome;112.0;Windows;10;undefined;undefined;1920 x 1080;2560 x 1440
H027;32;Mannelijk;Rechts;1;112;right;no;50;rightarrow;310;true;focus;yes;296031;Chrome;112.0;Windows;10;undefined;undefined;1920 x 1080;2560 x 1440
H027;32;Mannelijk;Rechts;1;113;left;no;50;leftarrow;688;true;focus;yes;297471;Chrome;112.0;Windows;10;undefined;undefined;1920 x 1080;2560 x 1440
H027;32;Mannelijk;Rechts;1;114;left;no;50;leftarrow;303;true;focus;yes;298527;Chrome;112.0;Windows;10;undefined;undefined;1920 x 1080;2560 x 1440
H027;32;Mannelijk;Rechts;1;115;right;no;50;rightarrow;345;true;focus;yes;299623;Chrome;112.0;Windows;10;undefined;undefined;1920 x 1080;2560 x 1440
H027;32;Mannelijk;Rechts;1;116;right;yes;50;undefined;null;true;focus;yes;301641;Chrome;112.0;Windows;10;undefined;undefined;1920 x 1080;2560 x 1440
H027;32;Mannelijk;Rechts;1;117;left;yes;100;undefined;null;true;focus;yes;303647;Chrome;112.0;Windows;10;undefined;undefined;1920 x 1080;2560 x 1440
H027;32;Mannelijk;Rechts;1;118;right;no;150;rightarrow;471;true;focus;yes;304871;Chrome;112.0;Windows;10;undefined;undefined;1920 x 1080;2560 x 1440
H027;32;Mannelijk;Rechts;1;119;left;no;150;leftarrow;567;true;focus;yes;306191;Chrome;112.0;Windows;10;undefined;undefined;1920 x 1080;2560 x 1440
H027;32;Mannelijk;Rechts;1;120;right;no;150;rightarrow;574;true;focus;yes;307519;Chrome;112.0;Windows;10;undefined;undefined;1920 x 1080;2560 x 1440
H027;32;Mannelijk;Rechts;1;121;right;no;150;rightarrow;645;true;focus;yes;308927;Chrome;112.0;Windows;10;undefined;undefined;1920 x 1080;2560 x 1440
H027;32;Mannelijk;Rechts;1;122;left;yes;150;rightarrow;262;false;focus;yes;309943;Chrome;112.0;Windows;10;undefined;undefined;1920 x 1080;2560 x 1440
H027;32;Mannelijk;Rechts;1;123;left;no;100;leftarrow;423;true;focus;yes;311127;Chrome;112.0;Windows;10;undefined;undefined;1920 x 1080;2560 x 1440
H027;32;Mannelijk;Rechts;1;124;left;no;100;leftarrow;374;true;focus;yes;312255;Chrome;112.0;Windows;10;undefined;undefined;1920 x 1080;2560 x 1440
H027;32;Mannelijk;Rechts;1;125;right;no;100;rightarrow;438;true;focus;yes;313447;Chrome;112.0;Windows;10;undefined;undefined;1920 x 1080;2560 x 1440
H027;32;Mannelijk;Rechts;1;126;right;yes;100;undefined;null;true;focus;yes;315451;Chrome;112.0;Windows;10;undefined;undefined;1920 x 1080;2560 x 1440
H027;32;Mannelijk;Rechts;1;127;right;no;150;rightarrow;291;true;focus;yes;316495;Chrome;112.0;Windows;10;undefined;undefined;1920 x 1080;2560 x 1440
H027;32;Mannelijk;Rechts;1;128;left;no;150;leftarrow;351;true;focus;yes;317599;Chrome;112.0;Windows;10;undefined;undefined;1920 x 1080;2560 x 1440
H027;32;Mannelijk;Rechts;2;1;right;no;150;rightarrow;311;true;focus;yes;337903;Chrome;112.0;Windows;10;undefined;undefined;1920 x 1080;2560 x 1440
H027;32;Mannelijk;Rechts;2;2;right;no;150;rightarrow;265;true;focus;yes;338935;Chrome;112.0;Windows;10;undefined;undefined;1920 x 1080;2560 x 1440
H027;32;Mannelijk;Rechts;2;3;left;no;150;leftarrow;401;true;focus;yes;340087;Chrome;112.0;Windows;10;undefined;undefined;1920 x 1080;2560 x 1440
H027;32;Mannelijk;Rechts;2;4;right;yes;150;rightarrow;367;false;focus;yes;341207;Chrome;112.0;Windows;10;undefined;undefined;1920 x 1080;2560 x 1440
H027;32;Mannelijk;Rechts;2;5;right;no;100;rightarrow;431;true;focus;yes;342391;Chrome;112.0;Windows;10;undefined;undefined;1920 x 1080;2560 x 1440
H027;32;Mannelijk;Rechts;2;6;left;yes;100;undefined;null;true;focus;yes;344396;Chrome;112.0;Windows;10;undefined;undefined;1920 x 1080;2560 x 1440
H027;32;Mannelijk;Rechts;2;7;left;no;150;leftarrow;315;true;focus;yes;345463;Chrome;112.0;Windows;10;undefined;undefined;1920 x 1080;2560 x 1440
H027;32;Mannelijk;Rechts;2;8;left;no;150;leftarrow;286;true;focus;yes;346503;Chrome;112.0;Windows;10;undefined;undefined;1920 x 1080;2560 x 1440
H027;32;Mannelijk;Rechts;2;9;left;no;150;leftarrow;324;true;focus;yes;347591;Chrome;112.0;Windows;10;undefined;undefined;1920 x 1080;2560 x 1440
H027;32;Mannelijk;Rechts;2;10;right;no;150;rightarrow;391;true;focus;yes;348735;Chrome;112.0;Windows;10;undefined;undefined;1920 x 1080;2560 x 1440
H027;32;Mannelijk;Rechts;2;11;right;no;150;rightarrow;271;true;focus;yes;349759;Chrome;112.0;Windows;10;undefined;undefined;1920 x 1080;2560 x 1440
H027;32;Mannelijk;Rechts;2;12;left;yes;150;leftarrow;360;false;focus;yes;350870;Chrome;112.0;Windows;10;undefined;undefined;1920 x 1080;2560 x 1440
H027;32;Mannelijk;Rechts;2;13;right;no;100;rightarrow;398;true;focus;yes;352022;Chrome;112.0;Windows;10;undefined;undefined;1920 x 1080;2560 x 1440
H027;32;Mannelijk;Rechts;2;14;left;no;100;leftarrow;358;true;focus;yes;353134;Chrome;112.0;Windows;10;undefined;undefined;1920 x 1080;2560 x 1440
H027;32;Mannelijk;Rechts;2;15;left;no;100;leftarrow;350;true;focus;yes;354238;Chrome;112.0;Windows;10;undefined;undefined;1920 x 1080;2560 x 1440
H027;32;Mannelijk;Rechts;2;16;right;yes;100;undefined;null;true;focus;yes;356243;Chrome;112.0;Windows;10;undefined;undefined;1920 x 1080;2560 x 1440
H027;32;Mannelijk;Rechts;2;17;left;no;150;leftarrow;370;true;focus;yes;357366;Chrome;112.0;Windows;10;undefined;undefined;1920 x 1080;2560 x 1440
H027;32;Mannelijk;Rechts;2;18;left;no;150;leftarrow;349;true;focus;yes;358470;Chrome;112.0;Windows;10;undefined;undefined;1920 x 1080;2560 x 1440
H027;32;Mannelijk;Rechts;2;19;right;yes;150;rightarrow;374;false;focus;yes;359598;Chrome;112.0;Windows;10;undefined;undefined;1920 x 1080;2560 x 1440
H027;32;Mannelijk;Rechts;2;20;right;no;100;rightarrow;478;true;focus;yes;360830;Chrome;112.0;Windows;10;undefined;undefined;1920 x 1080;2560 x 1440
H027;32;Mannelijk;Rechts;2;21;left;yes;100;leftarrow;342;false;focus;yes;361926;Chrome;112.0;Windows;10;undefined;undefined;1920 x 1080;2560 x 1440
H027;32;Mannelijk;Rechts;2;22;right;no;50;rightarrow;486;true;focus;yes;363166;Chrome;112.0;Windows;10;undefined;undefined;1920 x 1080;2560 x 1440
H027;32;Mannelijk;Rechts;2;23;right;no;50;rightarrow;486;true;focus;yes;364406;Chrome;112.0;Windows;10;undefined;undefined;1920 x 1080;2560 x 1440
H027;32;Mannelijk;Rechts;2;24;left;no;50;leftarrow;246;true;focus;yes;365406;Chrome;112.0;Windows;10;undefined;undefined;1920 x 1080;2560 x 1440
H027;32;Mannelijk;Rechts;2;25;right;no;50;rightarrow;382;true;focus;yes;366542;Chrome;112.0;Windows;10;undefined;undefined;1920 x 1080;2560 x 1440
H027;32;Mannelijk;Rechts;2;26;right;no;50;rightarrow;393;true;focus;yes;367702;Chrome;112.0;Windows;10;undefined;undefined;1920 x 1080;2560 x 1440
H027;32;Mannelijk;Rechts;2;27;left;no;50;leftarrow;281;true;focus;yes;368750;Chrome;112.0;Windows;10;undefined;undefined;1920 x 1080;2560 x 1440
H027;32;Mannelijk;Rechts;2;28;right;yes;50;rightarrow;286;false;focus;yes;369790;Chrome;112.0;Windows;10;undefined;undefined;1920 x 1080;2560 x 1440
H027;32;Mannelijk;Rechts;2;29;left;yes;50;undefined;null;true;focus;yes;371796;Chrome;112.0;Windows;10;undefined;undefined;1920 x 1080;2560 x 1440
H027;32;Mannelijk;Rechts;2;30;left;no;100;leftarrow;401;true;focus;yes;372950;Chrome;112.0;Windows;10;undefined;undefined;1920 x 1080;2560 x 1440
H027;32;Mannelijk;Rechts;2;31;left;no;100;leftarrow;318;true;focus;yes;374022;Chrome;112.0;Windows;10;undefined;undefined;1920 x 1080;2560 x 1440
H027;32;Mannelijk;Rechts;2;32;right;no;100;rightarrow;382;true;focus;yes;375158;Chrome;112.0;Windows;10;undefined;undefined;1920 x 1080;2560 x 1440
H027;32;Mannelijk;Rechts;2;33;left;no;100;leftarrow;346;true;focus;yes;376270;Chrome;112.0;Windows;10;undefined;undefined;1920 x 1080;2560 x 1440
H027;32;Mannelijk;Rechts;2;34;right;no;100;rightarrow;358;true;focus;yes;377382;Chrome;112.0;Windows;10;undefined;undefined;1920 x 1080;2560 x 1440
H027;32;Mannelijk;Rechts;2;35;left;yes;100;leftarrow;358;false;focus;yes;378494;Chrome;112.0;Windows;10;undefined;undefined;1920 x 1080;2560 x 1440
H027;32;Mannelijk;Rechts;2;36;right;no;50;rightarrow;382;true;focus;yes;379630;Chrome;112.0;Windows;10;undefined;undefined;1920 x 1080;2560 x 1440
H027;32;Mannelijk;Rechts;2;37;right;yes;50;undefined;null;true;focus;yes;381642;Chrome;112.0;Windows;10;undefined;undefined;1920 x 1080;2560 x 1440
H027;32;Mannelijk;Rechts;2;38;right;no;100;rightarrow;475;true;focus;yes;382870;Chrome;112.0;Windows;10;undefined;undefined;1920 x 1080;2560 x 1440
H027;32;Mannelijk;Rechts;2;39;left;no;100;leftarrow;374;true;focus;yes;383998;Chrome;112.0;Windows;10;undefined;undefined;1920 x 1080;2560 x 1440
H027;32;Mannelijk;Rechts;2;40;left;no;100;leftarrow;390;true;focus;yes;385142;Chrome;112.0;Windows;10;undefined;undefined;1920 x 1080;2560 x 1440
H027;32;Mannelijk;Rechts;2;41;right;no;100;rightarrow;292;true;focus;yes;386198;Chrome;112.0;Windows;10;undefined;undefined;1920 x 1080;2560 x 1440
H027;32;Mannelijk;Rechts;2;42;right;yes;100;rightarrow;389;false;focus;yes;387342;Chrome;112.0;Windows;10;undefined;undefined;1920 x 1080;2560 x 1440
H027;32;Mannelijk;Rechts;2;43;left;yes;50;leftarrow;280;false;focus;yes;388390;Chrome;112.0;Windows;10;undefined;undefined;1920 x 1080;2560 x 1440
H027;32;Mannelijk;Rechts;2;44;left;no;50;leftarrow;542;true;focus;yes;389686;Chrome;112.0;Windows;10;undefined;undefined;1920 x 1080;2560 x 1440
H027;32;Mannelijk;Rechts;2;45;right;no;50;rightarrow;334;true;focus;yes;390774;Chrome;112.0;Windows;10;undefined;undefined;1920 x 1080;2560 x 1440
H027;32;Mannelijk;Rechts;2;46;left;no;50;leftarrow;304;true;focus;yes;391830;Chrome;112.0;Windows;10;undefined;undefined;1920 x 1080;2560 x 1440
H027;32;Mannelijk;Rechts;2;47;left;no;50;leftarrow;334;true;focus;yes;392918;Chrome;112.0;Windows;10;undefined;undefined;1920 x 1080;2560 x 1440
H027;32;Mannelijk;Rechts;2;48;right;no;50;rightarrow;325;true;focus;yes;393998;Chrome;112.0;Windows;10;undefined;undefined;1920 x 1080;2560 x 1440
H027;32;Mannelijk;Rechts;2;49;left;no;50;leftarrow;334;true;focus;yes;395086;Chrome;112.0;Windows;10;undefined;undefined;1920 x 1080;2560 x 1440
H027;32;Mannelijk;Rechts;2;50;right;no;50;rightarrow;262;true;focus;yes;396102;Chrome;112.0;Windows;10;undefined;undefined;1920 x 1080;2560 x 1440
H027;32;Mannelijk;Rechts;2;51;right;no;50;rightarrow;312;true;focus;yes;397174;Chrome;112.0;Windows;10;undefined;undefined;1920 x 1080;2560 x 1440
H027;32;Mannelijk;Rechts;2;52;left;yes;50;leftarrow;322;false;focus;yes;398262;Chrome;112.0;Windows;10;undefined;undefined;1920 x 1080;2560 x 1440
H027;32;Mannelijk;Rechts;2;53;right;yes;50;undefined;null;true;focus;yes;400267;Chrome;112.0;Windows;10;undefined;undefined;1920 x 1080;2560 x 1440
H027;32;Mannelijk;Rechts;2;54;left;no;100;leftarrow;314;true;focus;yes;401334;Chrome;112.0;Windows;10;undefined;undefined;1920 x 1080;2560 x 1440
H027;32;Mannelijk;Rechts;2;55;left;no;100;leftarrow;304;true;focus;yes;402390;Chrome;112.0;Windows;10;undefined;undefined;1920 x 1080;2560 x 1440
H027;32;Mannelijk;Rechts;2;56;right;no;100;rightarrow;398;true;focus;yes;403542;Chrome;112.0;Windows;10;undefined;undefined;1920 x 1080;2560 x 1440
H027;32;Mannelijk;Rechts;2;57;left;yes;100;leftarrow;261;false;focus;yes;404582;Chrome;112.0;Windows;10;undefined;undefined;1920 x 1080;2560 x 1440
H027;32;Mannelijk;Rechts;2;58;left;no;50;leftarrow;510;true;focus;yes;405846;Chrome;112.0;Windows;10;undefined;undefined;1920 x 1080;2560 x 1440
H027;32;Mannelijk;Rechts;2;59;left;no;50;leftarrow;294;true;focus;yes;406894;Chrome;112.0;Windows;10;undefined;undefined;1920 x 1080;2560 x 1440
H027;32;Mannelijk;Rechts;2;60;left;no;50;leftarrow;326;true;focus;yes;407974;Chrome;112.0;Windows;10;undefined;undefined;1920 x 1080;2560 x 1440
H027;32;Mannelijk;Rechts;2;61;right;yes;50;undefined;null;true;focus;yes;409979;Chrome;112.0;Windows;10;undefined;undefined;1920 x 1080;2560 x 1440
H027;32;Mannelijk;Rechts;2;62;right;no;100;rightarrow;264;true;focus;yes;410998;Chrome;112.0;Windows;10;undefined;undefined;1920 x 1080;2560 x 1440
H027;32;Mannelijk;Rechts;2;63;right;no;100;leftarrow;304;false;focus;yes;412054;Chrome;112.0;Windows;10;undefined;undefined;1920 x 1080;2560 x 1440
H027;32;Mannelijk;Rechts;2;64;right;no;100;rightarrow;320;true;focus;yes;413126;Chrome;112.0;Windows;10;undefined;undefined;1920 x 1080;2560 x 1440
H027;32;Mannelijk;Rechts;2;65;left;no;100;leftarrow;389;true;focus;yes;414270;Chrome;112.0;Windows;10;undefined;undefined;1920 x 1080;2560 x 1440
H027;32;Mannelijk;Rechts;2;66;right;no;100;rightarrow;309;true;focus;yes;415334;Chrome;112.0;Windows;10;undefined;undefined;1920 x 1080;2560 x 1440
H027;32;Mannelijk;Rechts;2;67;left;no;100;leftarrow;373;true;focus;yes;416462;Chrome;112.0;Windows;10;undefined;undefined;1920 x 1080;2560 x 1440
H027;32;Mannelijk;Rechts;2;68;left;no;100;leftarrow;374;true;focus;yes;417590;Chrome;112.0;Windows;10;undefined;undefined;1920 x 1080;2560 x 1440
H027;32;Mannelijk;Rechts;2;69;right;no;100;rightarrow;333;true;focus;yes;418678;Chrome;112.0;Windows;10;undefined;undefined;1920 x 1080;2560 x 1440
H027;32;Mannelijk;Rechts;2;70;left;yes;100;undefined;null;true;focus;yes;420682;Chrome;112.0;Windows;10;undefined;undefined;1920 x 1080;2560 x 1440
H027;32;Mannelijk;Rechts;2;71;right;no;150;rightarrow;299;true;focus;yes;421734;Chrome;112.0;Windows;10;undefined;undefined;1920 x 1080;2560 x 1440
H027;32;Mannelijk;Rechts;2;72;right;yes;150;rightarrow;319;false;focus;yes;422806;Chrome;112.0;Windows;10;undefined;undefined;1920 x 1080;2560 x 1440
H027;32;Mannelijk;Rechts;2;73;right;no;100;rightarrow;582;true;focus;yes;424142;Chrome;112.0;Windows;10;undefined;undefined;1920 x 1080;2560 x 1440
H027;32;Mannelijk;Rechts;2;74;left;no;100;leftarrow;405;true;focus;yes;425310;Chrome;112.0;Windows;10;undefined;undefined;1920 x 1080;2560 x 1440
H027;32;Mannelijk;Rechts;2;75;left;no;100;leftarrow;350;true;focus;yes;426414;Chrome;112.0;Windows;10;undefined;undefined;1920 x 1080;2560 x 1440
H027;32;Mannelijk;Rechts;2;76;left;no;100;leftarrow;359;true;focus;yes;427526;Chrome;112.0;Windows;10;undefined;undefined;1920 x 1080;2560 x 1440
H027;32;Mannelijk;Rechts;2;77;right;yes;100;undefined;null;true;focus;yes;429532;Chrome;112.0;Windows;10;undefined;undefined;1920 x 1080;2560 x 1440
H027;32;Mannelijk;Rechts;2;78;right;no;150;rightarrow;281;true;focus;yes;430566;Chrome;112.0;Windows;10;undefined;undefined;1920 x 1080;2560 x 1440
H027;32;Mannelijk;Rechts;2;79;right;no;150;rightarrow;294;true;focus;yes;431614;Chrome;112.0;Windows;10;undefined;undefined;1920 x 1080;2560 x 1440
H027;32;Mannelijk;Rechts;2;80;left;yes;150;leftarrow;350;false;focus;yes;432718;Chrome;112.0;Windows;10;undefined;undefined;1920 x 1080;2560 x 1440
H027;32;Mannelijk;Rechts;2;81;left;yes;100;undefined;null;true;focus;yes;434724;Chrome;112.0;Windows;10;undefined;undefined;1920 x 1080;2560 x 1440
H027;32;Mannelijk;Rechts;2;82;right;no;150;rightarrow;432;true;focus;yes;435910;Chrome;112.0;Windows;10;undefined;undefined;1920 x 1080;2560 x 1440
H027;32;Mannelijk;Rechts;2;83;left;no;150;leftarrow;325;true;focus;yes;436990;Chrome;112.0;Windows;10;undefined;undefined;1920 x 1080;2560 x 1440
H027;32;Mannelijk;Rechts;2;84;right;no;150;rightarrow;373;true;focus;yes;438118;Chrome;112.0;Windows;10;undefined;undefined;1920 x 1080;2560 x 1440
H027;32;Mannelijk;Rechts;2;85;left;no;150;leftarrow;596;true;focus;yes;439470;Chrome;112.0;Windows;10;undefined;undefined;1920 x 1080;2560 x 1440
H027;32;Mannelijk;Rechts;2;86;left;no;150;leftarrow;317;true;focus;yes;440542;Chrome;112.0;Windows;10;undefined;undefined;1920 x 1080;2560 x 1440
H027;32;Mannelijk;Rechts;2;87;right;no;150;rightarrow;446;true;focus;yes;441742;Chrome;112.0;Windows;10;undefined;undefined;1920 x 1080;2560 x 1440
H027;32;Mannelijk;Rechts;2;88;right;yes;150;undefined;null;true;focus;yes;443749;Chrome;112.0;Windows;10;undefined;undefined;1920 x 1080;2560 x 1440
H027;32;Mannelijk;Rechts;2;89;left;no;200;leftarrow;303;true;focus;yes;444806;Chrome;112.0;Windows;10;undefined;undefined;1920 x 1080;2560 x 1440
H027;32;Mannelijk;Rechts;2;90;left;no;200;leftarrow;350;true;focus;yes;445910;Chrome;112.0;Windows;10;undefined;undefined;1920 x 1080;2560 x 1440
H027;32;Mannelijk;Rechts;2;91;left;no;200;leftarrow;560;true;focus;yes;447222;Chrome;112.0;Windows;10;undefined;undefined;1920 x 1080;2560 x 1440
H027;32;Mannelijk;Rechts;2;92;right;yes;200;rightarrow;342;false;focus;yes;448318;Chrome;112.0;Windows;10;undefined;undefined;1920 x 1080;2560 x 1440
H027;32;Mannelijk;Rechts;2;93;right;no;150;rightarrow;414;true;focus;yes;449486;Chrome;112.0;Windows;10;undefined;undefined;1920 x 1080;2560 x 1440
H027;32;Mannelijk;Rechts;2;94;left;yes;150;undefined;null;true;focus;yes;451492;Chrome;112.0;Windows;10;undefined;undefined;1920 x 1080;2560 x 1440
H027;32;Mannelijk;Rechts;2;95;right;no;200;rightarrow;425;true;focus;yes;452670;Chrome;112.0;Windows;10;undefined;undefined;1920 x 1080;2560 x 1440
H027;32;Mannelijk;Rechts;2;96;right;no;200;rightarrow;558;true;focus;yes;453982;Chrome;112.0;Windows;10;undefined;undefined;1920 x 1080;2560 x 1440
H027;32;Mannelijk;Rechts;2;97;left;no;200;leftarrow;622;true;focus;yes;455358;Chrome;112.0;Windows;10;undefined;undefined;1920 x 1080;2560 x 1440
H027;32;Mannelijk;Rechts;2;98;left;no;200;leftarrow;341;true;focus;yes;456454;Chrome;112.0;Windows;10;undefined;undefined;1920 x 1080;2560 x 1440
H027;32;Mannelijk;Rechts;2;99;right;no;200;rightarrow;390;true;focus;yes;457598;Chrome;112.0;Windows;10;undefined;undefined;1920 x 1080;2560 x 1440
H027;32;Mannelijk;Rechts;2;100;right;no;200;rightarrow;388;true;focus;yes;458742;Chrome;112.0;Windows;10;undefined;undefined;1920 x 1080;2560 x 1440
H027;32;Mannelijk;Rechts;2;101;left;yes;200;undefined;null;true;focus;yes;460748;Chrome;112.0;Windows;10;undefined;undefined;1920 x 1080;2560 x 1440
H027;32;Mannelijk;Rechts;2;102;right;yes;250;rightarrow;512;false;focus;yes;462014;Chrome;112.0;Windows;10;undefined;undefined;1920 x 1080;2560 x 1440
H027;32;Mannelijk;Rechts;2;103;left;no;200;leftarrow;333;true;focus;yes;463102;Chrome;112.0;Windows;10;undefined;undefined;1920 x 1080;2560 x 1440
H027;32;Mannelijk;Rechts;2;104;right;no;200;rightarrow;382;true;focus;yes;464238;Chrome;112.0;Windows;10;undefined;undefined;1920 x 1080;2560 x 1440
H027;32;Mannelijk;Rechts;2;105;right;no;200;rightarrow;360;true;focus;yes;465350;Chrome;112.0;Windows;10;undefined;undefined;1920 x 1080;2560 x 1440
H027;32;Mannelijk;Rechts;2;106;left;no;200;leftarrow;310;true;focus;yes;466414;Chrome;112.0;Windows;10;undefined;undefined;1920 x 1080;2560 x 1440
H027;32;Mannelijk;Rechts;2;107;right;no;200;rightarrow;318;true;focus;yes;467486;Chrome;112.0;Windows;10;undefined;undefined;1920 x 1080;2560 x 1440
H027;32;Mannelijk;Rechts;2;108;left;yes;200;leftarrow;334;false;focus;yes;468574;Chrome;112.0;Windows;10;undefined;undefined;1920 x 1080;2560 x 1440
H027;32;Mannelijk;Rechts;2;109;left;no;150;leftarrow;742;true;focus;yes;470070;Chrome;112.0;Windows;10;undefined;undefined;1920 x 1080;2560 x 1440
H027;32;Mannelijk;Rechts;2;110;left;no;150;leftarrow;342;true;focus;yes;471166;Chrome;112.0;Windows;10;undefined;undefined;1920 x 1080;2560 x 1440
H027;32;Mannelijk;Rechts;2;111;right;no;150;rightarrow;438;true;focus;yes;472358;Chrome;112.0;Windows;10;undefined;undefined;1920 x 1080;2560 x 1440
H027;32;Mannelijk;Rechts;2;112;right;yes;150;undefined;null;true;focus;yes;474364;Chrome;112.0;Windows;10;undefined;undefined;1920 x 1080;2560 x 1440
H027;32;Mannelijk;Rechts;2;113;right;no;200;rightarrow;368;true;focus;yes;475486;Chrome;112.0;Windows;10;undefined;undefined;1920 x 1080;2560 x 1440
H027;32;Mannelijk;Rechts;2;114;right;no;200;rightarrow;358;true;focus;yes;476598;Chrome;112.0;Windows;10;undefined;undefined;1920 x 1080;2560 x 1440
H027;32;Mannelijk;Rechts;2;115;left;no;200;leftarrow;352;true;focus;yes;477702;Chrome;112.0;Windows;10;undefined;undefined;1920 x 1080;2560 x 1440
H027;32;Mannelijk;Rechts;2;116;right;yes;200;undefined;null;true;focus;yes;479706;Chrome;112.0;Windows;10;undefined;undefined;1920 x 1080;2560 x 1440
H027;32;Mannelijk;Rechts;2;117;left;no;250;leftarrow;314;true;focus;yes;480774;Chrome;112.0;Windows;10;undefined;undefined;1920 x 1080;2560 x 1440
H027;32;Mannelijk;Rechts;2;118;left;yes;250;leftarrow;406;false;focus;yes;481934;Chrome;112.0;Windows;10;undefined;undefined;1920 x 1080;2560 x 1440
H027;32;Mannelijk;Rechts;2;119;right;no;200;rightarrow;517;true;focus;yes;483206;Chrome;112.0;Windows;10;undefined;undefined;1920 x 1080;2560 x 1440
H027;32;Mannelijk;Rechts;2;120;left;no;200;leftarrow;381;true;focus;yes;484350;Chrome;112.0;Windows;10;undefined;undefined;1920 x 1080;2560 x 1440
H027;32;Mannelijk;Rechts;2;121;left;no;200;leftarrow;558;true;focus;yes;485662;Chrome;112.0;Windows;10;undefined;undefined;1920 x 1080;2560 x 1440
H027;32;Mannelijk;Rechts;2;122;right;yes;200;rightarrow;327;false;focus;yes;486742;Chrome;112.0;Windows;10;undefined;undefined;1920 x 1080;2560 x 1440
H027;32;Mannelijk;Rechts;2;123;left;yes;150;undefined;null;true;focus;yes;488751;Chrome;112.0;Windows;10;undefined;undefined;1920 x 1080;2560 x 1440
H027;32;Mannelijk;Rechts;2;124;right;no;200;rightarrow;365;true;focus;yes;489870;Chrome;112.0;Windows;10;undefined;undefined;1920 x 1080;2560 x 1440
H027;32;Mannelijk;Rechts;2;125;right;no;200;rightarrow;327;true;focus;yes;490950;Chrome;112.0;Windows;10;undefined;undefined;1920 x 1080;2560 x 1440
H027;32;Mannelijk;Rechts;2;126;left;no;200;leftarrow;357;true;focus;yes;492062;Chrome;112.0;Windows;10;undefined;undefined;1920 x 1080;2560 x 1440
H027;32;Mannelijk;Rechts;2;127;left;no;200;leftarrow;365;true;focus;yes;493182;Chrome;112.0;Windows;10;undefined;undefined;1920 x 1080;2560 x 1440
H027;32;Mannelijk;Rechts;2;128;right;no;200;rightarrow;340;true;focus;yes;494278;Chrome;112.0;Windows;10;undefined;undefined;1920 x 1080;2560 x 1440
H027;32;Mannelijk;Rechts;3;1;left;yes;200;leftarrow;351;false;focus;yes;515574;Chrome;112.0;Windows;10;undefined;undefined;1920 x 1080;2560 x 1440
H027;32;Mannelijk;Rechts;3;2;left;no;150;leftarrow;419;true;focus;yes;516750;Chrome;112.0;Windows;10;undefined;undefined;1920 x 1080;2560 x 1440
H027;32;Mannelijk;Rechts;3;3;right;no;150;rightarrow;313;true;focus;yes;517830;Chrome;112.0;Windows;10;undefined;undefined;1920 x 1080;2560 x 1440
H027;32;Mannelijk;Rechts;3;4;right;no;150;rightarrow;245;true;focus;yes;518830;Chrome;112.0;Windows;10;undefined;undefined;1920 x 1080;2560 x 1440
H027;32;Mannelijk;Rechts;3;5;right;no;150;rightarrow;262;true;focus;yes;519846;Chrome;112.0;Windows;10;undefined;undefined;1920 x 1080;2560 x 1440
H027;32;Mannelijk;Rechts;3;6;right;yes;150;rightarrow;230;false;focus;yes;520830;Chrome;112.0;Windows;10;undefined;undefined;1920 x 1080;2560 x 1440
H027;32;Mannelijk;Rechts;3;7;left;no;100;leftarrow;373;true;focus;yes;521958;Chrome;112.0;Windows;10;undefined;undefined;1920 x 1080;2560 x 1440
H027;32;Mannelijk;Rechts;3;8;left;no;100;leftarrow;573;true;focus;yes;523286;Chrome;112.0;Windows;10;undefined;undefined;1920 x 1080;2560 x 1440
H027;32;Mannelijk;Rechts;3;9;right;no;100;rightarrow;238;true;focus;yes;524278;Chrome;112.0;Windows;10;undefined;undefined;1920 x 1080;2560 x 1440
H027;32;Mannelijk;Rechts;3;10;left;no;100;rightarrow;197;false;focus;yes;525230;Chrome;112.0;Windows;10;undefined;undefined;1920 x 1080;2560 x 1440
H027;32;Mannelijk;Rechts;3;11;right;yes;100;rightarrow;254;false;focus;yes;526238;Chrome;112.0;Windows;10;undefined;undefined;1920 x 1080;2560 x 1440
H027;32;Mannelijk;Rechts;3;12;right;no;50;leftarrow;190;false;focus;yes;527182;Chrome;112.0;Windows;10;undefined;undefined;1920 x 1080;2560 x 1440
H027;32;Mannelijk;Rechts;3;13;right;no;50;rightarrow;311;true;focus;yes;528246;Chrome;112.0;Windows;10;undefined;undefined;1920 x 1080;2560 x 1440
H027;32;Mannelijk;Rechts;3;14;left;no;50;leftarrow;246;true;focus;yes;529246;Chrome;112.0;Windows;10;undefined;undefined;1920 x 1080;2560 x 1440
H027;32;Mannelijk;Rechts;3;15;left;yes;50;leftarrow;550;false;focus;yes;530550;Chrome;112.0;Windows;10;undefined;undefined;1920 x 1080;2560 x 1440
H027;32;Mannelijk;Rechts;3;16;left;no;50;leftarrow;550;true;focus;yes;531855;Chrome;112.0;Windows;10;undefined;undefined;1920 x 1080;2560 x 1440
H027;32;Mannelijk;Rechts;3;17;left;no;50;leftarrow;349;true;focus;yes;532959;Chrome;112.0;Windows;10;undefined;undefined;1920 x 1080;2560 x 1440
H027;32;Mannelijk;Rechts;3;18;left;no;50;leftarrow;294;true;focus;yes;534007;Chrome;112.0;Windows;10;undefined;undefined;1920 x 1080;2560 x 1440
H027;32;Mannelijk;Rechts;3;19;right;yes;50;rightarrow;342;false;focus;yes;535103;Chrome;112.0;Windows;10;undefined;undefined;1920 x 1080;2560 x 1440
H027;32;Mannelijk;Rechts;3;20;right;no;50;rightarrow;278;true;focus;yes;536135;Chrome;112.0;Windows;10;undefined;undefined;1920 x 1080;2560 x 1440
H027;32;Mannelijk;Rechts;3;21;left;no;50;leftarrow;343;true;focus;yes;537231;Chrome;112.0;Windows;10;undefined;undefined;1920 x 1080;2560 x 1440
H027;32;Mannelijk;Rechts;3;22;right;no;50;rightarrow;279;true;focus;yes;538263;Chrome;112.0;Windows;10;undefined;undefined;1920 x 1080;2560 x 1440
H027;32;Mannelijk;Rechts;3;23;left;yes;50;leftarrow;238;false;focus;yes;539255;Chrome;112.0;Windows;10;undefined;undefined;1920 x 1080;2560 x 1440
H027;32;Mannelijk;Rechts;3;24;right;no;50;rightarrow;238;true;focus;yes;540247;Chrome;112.0;Windows;10;undefined;undefined;1920 x 1080;2560 x 1440
H027;32;Mannelijk;Rechts;3;25;right;no;50;leftarrow;223;false;focus;yes;541223;Chrome;112.0;Windows;10;undefined;undefined;1920 x 1080;2560 x 1440
H027;32;Mannelijk;Rechts;3;26;left;no;50;leftarrow;284;true;focus;yes;542271;Chrome;112.0;Windows;10;undefined;undefined;1920 x 1080;2560 x 1440
H027;32;Mannelijk;Rechts;3;27;right;yes;50;rightarrow;294;false;focus;yes;543319;Chrome;112.0;Windows;10;undefined;undefined;1920 x 1080;2560 x 1440
H027;32;Mannelijk;Rechts;3;28;right;no;50;rightarrow;254;true;focus;yes;544327;Chrome;112.0;Windows;10;undefined;undefined;1920 x 1080;2560 x 1440
H027;32;Mannelijk;Rechts;3;29;right;no;50;rightarrow;254;true;focus;yes;545335;Chrome;112.0;Windows;10;undefined;undefined;1920 x 1080;2560 x 1440
H027;32;Mannelijk;Rechts;3;30;left;yes;50;leftarrow;414;false;focus;yes;546503;Chrome;112.0;Windows;10;undefined;undefined;1920 x 1080;2560 x 1440
H027;32;Mannelijk;Rechts;3;31;left;no;50;leftarrow;412;true;focus;yes;547679;Chrome;112.0;Windows;10;undefined;undefined;1920 x 1080;2560 x 1440
H027;32;Mannelijk;Rechts;3;32;left;no;50;leftarrow;422;true;focus;yes;548855;Chrome;112.0;Windows;10;undefined;undefined;1920 x 1080;2560 x 1440
H027;32;Mannelijk;Rechts;3;33;right;yes;50;rightarrow;278;false;focus;yes;549887;Chrome;112.0;Windows;10;undefined;undefined;1920 x 1080;2560 x 1440
H027;32;Mannelijk;Rechts;3;34;right;no;50;rightarrow;358;true;focus;yes;550999;Chrome;112.0;Windows;10;undefined;undefined;1920 x 1080;2560 x 1440
H027;32;Mannelijk;Rechts;3;35;left;no;50;leftarrow;326;true;focus;yes;552079;Chrome;112.0;Windows;10;undefined;undefined;1920 x 1080;2560 x 1440
H027;32;Mannelijk;Rechts;3;36;left;yes;50;leftarrow;414;false;focus;yes;553247;Chrome;112.0;Windows;10;undefined;undefined;1920 x 1080;2560 x 1440
H027;32;Mannelijk;Rechts;3;37;right;no;50;rightarrow;334;true;focus;yes;554335;Chrome;112.0;Windows;10;undefined;undefined;1920 x 1080;2560 x 1440
H027;32;Mannelijk;Rechts;3;38;left;no;50;leftarrow;366;true;focus;yes;555455;Chrome;112.0;Windows;10;undefined;undefined;1920 x 1080;2560 x 1440
H027;32;Mannelijk;Rechts;3;39;left;no;50;rightarrow;230;false;focus;yes;556439;Chrome;112.0;Windows;10;undefined;undefined;1920 x 1080;2560 x 1440
H027;32;Mannelijk;Rechts;3;40;right;no;50;rightarrow;334;true;focus;yes;557527;Chrome;112.0;Windows;10;undefined;undefined;1920 x 1080;2560 x 1440
H027;32;Mannelijk;Rechts;3;41;right;yes;50;rightarrow;374;false;focus;yes;558655;Chrome;112.0;Windows;10;undefined;undefined;1920 x 1080;2560 x 1440
H027;32;Mannelijk;Rechts;3;42;left;no;50;leftarrow;302;true;focus;yes;559711;Chrome;112.0;Windows;10;undefined;undefined;1920 x 1080;2560 x 1440
H027;32;Mannelijk;Rechts;3;43;right;no;50;rightarrow;286;true;focus;yes;560751;Chrome;112.0;Windows;10;undefined;undefined;1920 x 1080;2560 x 1440
H027;32;Mannelijk;Rechts;3;44;left;no;50;leftarrow;302;true;focus;yes;561807;Chrome;112.0;Windows;10;undefined;undefined;1920 x 1080;2560 x 1440
H027;32;Mannelijk;Rechts;3;45;left;no;50;leftarrow;286;true;focus;yes;562847;Chrome;112.0;Windows;10;undefined;undefined;1920 x 1080;2560 x 1440
H027;32;Mannelijk;Rechts;3;46;left;yes;50;leftarrow;356;false;focus;yes;563967;Chrome;112.0;Windows;10;undefined;undefined;1920 x 1080;2560 x 1440
H027;32;Mannelijk;Rechts;3;47;right;no;50;rightarrow;334;true;focus;yes;565055;Chrome;112.0;Windows;10;undefined;undefined;1920 x 1080;2560 x 1440
H027;32;Mannelijk;Rechts;3;48;right;no;50;rightarrow;326;true;focus;yes;566135;Chrome;112.0;Windows;10;undefined;undefined;1920 x 1080;2560 x 1440
H027;32;Mannelijk;Rechts;3;49;left;no;50;leftarrow;342;true;focus;yes;567231;Chrome;112.0;Windows;10;undefined;undefined;1920 x 1080;2560 x 1440
H027;32;Mannelijk;Rechts;3;50;right;no;50;rightarrow;366;true;focus;yes;568351;Chrome;112.0;Windows;10;undefined;undefined;1920 x 1080;2560 x 1440
H027;32;Mannelijk;Rechts;3;51;right;yes;50;rightarrow;558;false;focus;yes;569663;Chrome;112.0;Windows;10;undefined;undefined;1920 x 1080;2560 x 1440
H027;32;Mannelijk;Rechts;3;52;right;no;50;rightarrow;295;true;focus;yes;570719;Chrome;112.0;Windows;10;undefined;undefined;1920 x 1080;2560 x 1440
H027;32;Mannelijk;Rechts;3;53;left;yes;50;leftarrow;381;false;focus;yes;571855;Chrome;112.0;Windows;10;undefined;undefined;1920 x 1080;2560 x 1440
H027;32;Mannelijk;Rechts;3;54;right;no;50;rightarrow;326;true;focus;yes;572935;Chrome;112.0;Windows;10;undefined;undefined;1920 x 1080;2560 x 1440
H027;32;Mannelijk;Rechts;3;55;left;no;50;leftarrow;294;true;focus;yes;573983;Chrome;112.0;Windows;10;undefined;undefined;1920 x 1080;2560 x 1440
H027;32;Mannelijk;Rechts;3;56;left;no;50;leftarrow;294;true;focus;yes;575031;Chrome;112.0;Windows;10;undefined;undefined;1920 x 1080;2560 x 1440
H027;32;Mannelijk;Rechts;3;57;right;no;50;rightarrow;278;true;focus;yes;576063;Chrome;112.0;Windows;10;undefined;undefined;1920 x 1080;2560 x 1440
H027;32;Mannelijk;Rechts;3;58;right;yes;50;rightarrow;331;false;focus;yes;577159;Chrome;112.0;Windows;10;undefined;undefined;1920 x 1080;2560 x 1440
H027;32;Mannelijk;Rechts;3;59;left;no;50;leftarrow;318;true;focus;yes;578231;Chrome;112.0;Windows;10;undefined;undefined;1920 x 1080;2560 x 1440
H027;32;Mannelijk;Rechts;3;60;left;no;50;leftarrow;325;true;focus;yes;579311;Chrome;112.0;Windows;10;undefined;undefined;1920 x 1080;2560 x 1440
H027;32;Mannelijk;Rechts;3;61;left;no;50;leftarrow;278;true;focus;yes;580343;Chrome;112.0;Windows;10;undefined;undefined;1920 x 1080;2560 x 1440
H027;32;Mannelijk;Rechts;3;62;right;no;50;rightarrow;365;true;focus;yes;581463;Chrome;112.0;Windows;10;undefined;undefined;1920 x 1080;2560 x 1440
H027;32;Mannelijk;Rechts;3;63;left;yes;50;leftarrow;261;false;focus;yes;582479;Chrome;112.0;Windows;10;undefined;undefined;1920 x 1080;2560 x 1440
H027;32;Mannelijk;Rechts;3;64;right;no;50;rightarrow;254;true;focus;yes;583487;Chrome;112.0;Windows;10;undefined;undefined;1920 x 1080;2560 x 1440
H027;32;Mannelijk;Rechts;3;65;left;yes;50;leftarrow;294;false;focus;yes;584535;Chrome;112.0;Windows;10;undefined;undefined;1920 x 1080;2560 x 1440
H027;32;Mannelijk;Rechts;3;66;left;no;50;leftarrow;581;true;focus;yes;585871;Chrome;112.0;Windows;10;undefined;undefined;1920 x 1080;2560 x 1440
H027;32;Mannelijk;Rechts;3;67;right;no;50;rightarrow;350;true;focus;yes;586975;Chrome;112.0;Windows;10;undefined;undefined;1920 x 1080;2560 x 1440
H027;32;Mannelijk;Rechts;3;68;right;no;50;rightarrow;317;true;focus;yes;588047;Chrome;112.0;Windows;10;undefined;undefined;1920 x 1080;2560 x 1440
H027;32;Mannelijk;Rechts;3;69;right;no;50;rightarrow;261;true;focus;yes;589063;Chrome;112.0;Windows;10;undefined;undefined;1920 x 1080;2560 x 1440
H027;32;Mannelijk;Rechts;3;70;right;yes;50;undefined;null;true;focus;yes;591067;Chrome;112.0;Windows;10;undefined;undefined;1920 x 1080;2560 x 1440
H027;32;Mannelijk;Rechts;3;71;left;no;100;leftarrow;273;true;focus;yes;592095;Chrome;112.0;Windows;10;undefined;undefined;1920 x 1080;2560 x 1440
H027;32;Mannelijk;Rechts;3;72;left;no;100;leftarrow;269;true;focus;yes;593119;Chrome;112.0;Windows;10;undefined;undefined;1920 x 1080;2560 x 1440
H027;32;Mannelijk;Rechts;3;73;left;yes;100;leftarrow;266;false;focus;yes;594143;Chrome;112.0;Windows;10;undefined;undefined;1920 x 1080;2560 x 1440
H027;32;Mannelijk;Rechts;3;74;left;no;50;leftarrow;373;true;focus;yes;595279;Chrome;112.0;Windows;10;undefined;undefined;1920 x 1080;2560 x 1440
H027;32;Mannelijk;Rechts;3;75;left;no;50;leftarrow;311;true;focus;yes;596343;Chrome;112.0;Windows;10;undefined;undefined;1920 x 1080;2560 x 1440
H027;32;Mannelijk;Rechts;3;76;right;no;50;rightarrow;454;true;focus;yes;597551;Chrome;112.0;Windows;10;undefined;undefined;1920 x 1080;2560 x 1440
H027;32;Mannelijk;Rechts;3;77;right;yes;50;rightarrow;270;false;focus;yes;598575;Chrome;112.0;Windows;10;undefined;undefined;1920 x 1080;2560 x 1440
H027;32;Mannelijk;Rechts;3;78;left;no;50;leftarrow;253;true;focus;yes;599583;Chrome;112.0;Windows;10;undefined;undefined;1920 x 1080;2560 x 1440
H027;32;Mannelijk;Rechts;3;79;right;no;50;rightarrow;277;true;focus;yes;600615;Chrome;112.0;Windows;10;undefined;undefined;1920 x 1080;2560 x 1440
H027;32;Mannelijk;Rechts;3;80;right;no;50;rightarrow;294;true;focus;yes;601663;Chrome;112.0;Windows;10;undefined;undefined;1920 x 1080;2560 x 1440
H027;32;Mannelijk;Rechts;3;81;right;no;50;rightarrow;293;true;focus;yes;602711;Chrome;112.0;Windows;10;undefined;undefined;1920 x 1080;2560 x 1440
H027;32;Mannelijk;Rechts;3;82;left;no;50;leftarrow;389;true;focus;yes;603855;Chrome;112.0;Windows;10;undefined;undefined;1920 x 1080;2560 x 1440
H027;32;Mannelijk;Rechts;3;83;left;yes;50;undefined;null;true;focus;yes;605860;Chrome;112.0;Windows;10;undefined;undefined;1920 x 1080;2560 x 1440
H027;32;Mannelijk;Rechts;3;84;right;yes;100;rightarrow;336;false;focus;yes;606951;Chrome;112.0;Windows;10;undefined;undefined;1920 x 1080;2560 x 1440
H027;32;Mannelijk;Rechts;3;85;right;no;50;rightarrow;494;true;focus;yes;608199;Chrome;112.0;Windows;10;undefined;undefined;1920 x 1080;2560 x 1440
H027;32;Mannelijk;Rechts;3;86;left;no;50;leftarrow;301;true;focus;yes;609255;Chrome;112.0;Windows;10;undefined;undefined;1920 x 1080;2560 x 1440
H027;32;Mannelijk;Rechts;3;87;left;no;50;leftarrow;301;true;focus;yes;610311;Chrome;112.0;Windows;10;undefined;undefined;1920 x 1080;2560 x 1440
H027;32;Mannelijk;Rechts;3;88;right;no;50;rightarrow;381;true;focus;yes;611447;Chrome;112.0;Windows;10;undefined;undefined;1920 x 1080;2560 x 1440
H027;32;Mannelijk;Rechts;3;89;left;yes;50;leftarrow;317;false;focus;yes;612519;Chrome;112.0;Windows;10;undefined;undefined;1920 x 1080;2560 x 1440
H027;32;Mannelijk;Rechts;3;90;right;no;50;rightarrow;341;true;focus;yes;613615;Chrome;112.0;Windows;10;undefined;undefined;1920 x 1080;2560 x 1440
H027;32;Mannelijk;Rechts;3;91;left;no;50;leftarrow;349;true;focus;yes;614719;Chrome;112.0;Windows;10;undefined;undefined;1920 x 1080;2560 x 1440
H027;32;Mannelijk;Rechts;3;92;left;no;50;leftarrow;317;true;focus;yes;615791;Chrome;112.0;Windows;10;undefined;undefined;1920 x 1080;2560 x 1440
H027;32;Mannelijk;Rechts;3;93;left;no;50;leftarrow;318;true;focus;yes;616863;Chrome;112.0;Windows;10;undefined;undefined;1920 x 1080;2560 x 1440
H027;32;Mannelijk;Rechts;3;94;right;yes;50;undefined;null;true;focus;yes;618867;Chrome;112.0;Windows;10;undefined;undefined;1920 x 1080;2560 x 1440
H027;32;Mannelijk;Rechts;3;95;right;no;100;rightarrow;313;true;focus;yes;619935;Chrome;112.0;Windows;10;undefined;undefined;1920 x 1080;2560 x 1440
H027;32;Mannelijk;Rechts;3;96;right;no;100;rightarrow;293;true;focus;yes;620983;Chrome;112.0;Windows;10;undefined;undefined;1920 x 1080;2560 x 1440
H027;32;Mannelijk;Rechts;3;97;right;yes;100;rightarrow;308;false;focus;yes;622047;Chrome;112.0;Windows;10;undefined;undefined;1920 x 1080;2560 x 1440
H027;32;Mannelijk;Rechts;3;98;left;no;50;leftarrow;390;true;focus;yes;623191;Chrome;112.0;Windows;10;undefined;undefined;1920 x 1080;2560 x 1440
H027;32;Mannelijk;Rechts;3;99;right;no;50;rightarrow;325;true;focus;yes;624271;Chrome;112.0;Windows;10;undefined;undefined;1920 x 1080;2560 x 1440
H027;32;Mannelijk;Rechts;3;100;left;no;50;leftarrow;341;true;focus;yes;625367;Chrome;112.0;Windows;10;undefined;undefined;1920 x 1080;2560 x 1440
H027;32;Mannelijk;Rechts;3;101;right;no;50;rightarrow;397;true;focus;yes;626519;Chrome;112.0;Windows;10;undefined;undefined;1920 x 1080;2560 x 1440
H027;32;Mannelijk;Rechts;3;102;left;yes;50;undefined;null;true;focus;yes;628525;Chrome;112.0;Windows;10;undefined;undefined;1920 x 1080;2560 x 1440
H027;32;Mannelijk;Rechts;3;103;right;no;100;rightarrow;343;true;focus;yes;629623;Chrome;112.0;Windows;10;undefined;undefined;1920 x 1080;2560 x 1440
H027;32;Mannelijk;Rechts;3;104;left;no;100;leftarrow;322;true;focus;yes;630711;Chrome;112.0;Windows;10;undefined;undefined;1920 x 1080;2560 x 1440
H027;32;Mannelijk;Rechts;3;105;right;yes;100;rightarrow;284;false;focus;yes;631751;Chrome;112.0;Windows;10;undefined;undefined;1920 x 1080;2560 x 1440
H027;32;Mannelijk;Rechts;3;106;left;yes;50;leftarrow;342;false;focus;yes;632847;Chrome;112.0;Windows;10;undefined;undefined;1920 x 1080;2560 x 1440
H027;32;Mannelijk;Rechts;3;107;left;no;50;leftarrow;363;true;focus;yes;633975;Chrome;112.0;Windows;10;undefined;undefined;1920 x 1080;2560 x 1440
H027;32;Mannelijk;Rechts;3;108;left;no;50;leftarrow;317;true;focus;yes;635047;Chrome;112.0;Windows;10;undefined;undefined;1920 x 1080;2560 x 1440
H027;32;Mannelijk;Rechts;3;109;right;no;50;rightarrow;365;true;focus;yes;636167;Chrome;112.0;Windows;10;undefined;undefined;1920 x 1080;2560 x 1440
H027;32;Mannelijk;Rechts;3;110;left;no;50;leftarrow;301;true;focus;yes;637223;Chrome;112.0;Windows;10;undefined;undefined;1920 x 1080;2560 x 1440
H027;32;Mannelijk;Rechts;3;111;right;no;50;rightarrow;333;true;focus;yes;638311;Chrome;112.0;Windows;10;undefined;undefined;1920 x 1080;2560 x 1440
H027;32;Mannelijk;Rechts;3;112;right;no;50;rightarrow;389;true;focus;yes;639455;Chrome;112.0;Windows;10;undefined;undefined;1920 x 1080;2560 x 1440
H027;32;Mannelijk;Rechts;3;113;right;no;50;rightarrow;309;true;focus;yes;640519;Chrome;112.0;Windows;10;undefined;undefined;1920 x 1080;2560 x 1440
H027;32;Mannelijk;Rechts;3;114;left;yes;50;undefined;null;true;focus;yes;642526;Chrome;112.0;Windows;10;undefined;undefined;1920 x 1080;2560 x 1440
H027;32;Mannelijk;Rechts;3;115;left;no;100;leftarrow;302;true;focus;yes;643583;Chrome;112.0;Windows;10;undefined;undefined;1920 x 1080;2560 x 1440
H027;32;Mannelijk;Rechts;3;116;left;no;100;leftarrow;293;true;focus;yes;644631;Chrome;112.0;Windows;10;undefined;undefined;1920 x 1080;2560 x 1440
H027;32;Mannelijk;Rechts;3;117;right;yes;100;undefined;null;true;focus;yes;646638;Chrome;112.0;Windows;10;undefined;undefined;1920 x 1080;2560 x 1440
H027;32;Mannelijk;Rechts;3;118;right;no;150;rightarrow;327;true;focus;yes;647719;Chrome;112.0;Windows;10;undefined;undefined;1920 x 1080;2560 x 1440
H027;32;Mannelijk;Rechts;3;119;right;no;150;rightarrow;277;true;focus;yes;648751;Chrome;112.0;Windows;10;undefined;undefined;1920 x 1080;2560 x 1440
H027;32;Mannelijk;Rechts;3;120;left;no;150;leftarrow;406;true;focus;yes;649911;Chrome;112.0;Windows;10;undefined;undefined;1920 x 1080;2560 x 1440
H027;32;Mannelijk;Rechts;3;121;left;no;150;leftarrow;325;true;focus;yes;650991;Chrome;112.0;Windows;10;undefined;undefined;1920 x 1080;2560 x 1440
H027;32;Mannelijk;Rechts;3;122;right;yes;150;rightarrow;301;false;focus;yes;652047;Chrome;112.0;Windows;10;undefined;undefined;1920 x 1080;2560 x 1440
H027;32;Mannelijk;Rechts;3;123;right;no;100;rightarrow;333;true;focus;yes;653135;Chrome;112.0;Windows;10;undefined;undefined;1920 x 1080;2560 x 1440
H027;32;Mannelijk;Rechts;3;124;right;no;100;rightarrow;308;true;focus;yes;654199;Chrome;112.0;Windows;10;undefined;undefined;1920 x 1080;2560 x 1440
H027;32;Mannelijk;Rechts;3;125;right;no;100;rightarrow;293;true;focus;yes;655247;Chrome;112.0;Windows;10;undefined;undefined;1920 x 1080;2560 x 1440
H027;32;Mannelijk;Rechts;3;126;left;no;100;leftarrow;445;true;focus;yes;656447;Chrome;112.0;Windows;10;undefined;undefined;1920 x 1080;2560 x 1440
H027;32;Mannelijk;Rechts;3;127;left;no;100;leftarrow;357;true;focus;yes;657559;Chrome;112.0;Windows;10;undefined;undefined;1920 x 1080;2560 x 1440
H027;32;Mannelijk;Rechts;3;128;left;yes;100;leftarrow;301;false;focus;yes;658615;Chrome;112.0;Windows;10;undefined;undefined;1920 x 1080;2560 x 1440
H027;32;Mannelijk;Rechts;4;1;left;yes;50;leftarrow;340;false;focus;yes;678615;Chrome;112.0;Windows;10;undefined;undefined;1920 x 1080;2560 x 1440
H027;32;Mannelijk;Rechts;4;2;right;no;50;rightarrow;334;true;focus;yes;679703;Chrome;112.0;Windows;10;undefined;undefined;1920 x 1080;2560 x 1440
H027;32;Mannelijk;Rechts;4;3;right;no;50;rightarrow;320;true;focus;yes;680791;Chrome;112.0;Windows;10;undefined;undefined;1920 x 1080;2560 x 1440
H027;32;Mannelijk;Rechts;4;4;right;yes;50;undefined;null;true;focus;yes;682797;Chrome;112.0;Windows;10;undefined;undefined;1920 x 1080;2560 x 1440
H027;32;Mannelijk;Rechts;4;5;left;no;100;leftarrow;287;true;focus;yes;683839;Chrome;112.0;Windows;10;undefined;undefined;1920 x 1080;2560 x 1440
H027;32;Mannelijk;Rechts;4;6;left;no;100;leftarrow;276;true;focus;yes;684871;Chrome;112.0;Windows;10;undefined;undefined;1920 x 1080;2560 x 1440
H027;32;Mannelijk;Rechts;4;7;left;no;100;leftarrow;301;true;focus;yes;685927;Chrome;112.0;Windows;10;undefined;undefined;1920 x 1080;2560 x 1440
H027;32;Mannelijk;Rechts;4;8;right;no;100;rightarrow;334;true;focus;yes;687023;Chrome;112.0;Windows;10;undefined;undefined;1920 x 1080;2560 x 1440
H027;32;Mannelijk;Rechts;4;9;right;no;100;rightarrow;339;true;focus;yes;688119;Chrome;112.0;Windows;10;undefined;undefined;1920 x 1080;2560 x 1440
H027;32;Mannelijk;Rechts;4;10;left;no;100;leftarrow;573;true;focus;yes;689447;Chrome;112.0;Windows;10;undefined;undefined;1920 x 1080;2560 x 1440
H027;32;Mannelijk;Rechts;4;11;left;no;100;leftarrow;388;true;focus;yes;690591;Chrome;112.0;Windows;10;undefined;undefined;1920 x 1080;2560 x 1440
H027;32;Mannelijk;Rechts;4;12;right;yes;100;rightarrow;262;false;focus;yes;691607;Chrome;112.0;Windows;10;undefined;undefined;1920 x 1080;2560 x 1440
H027;32;Mannelijk;Rechts;4;13;left;yes;50;undefined;null;true;focus;yes;693612;Chrome;112.0;Windows;10;undefined;undefined;1920 x 1080;2560 x 1440
H027;32;Mannelijk;Rechts;4;14;right;no;100;rightarrow;329;true;focus;yes;694695;Chrome;112.0;Windows;10;undefined;undefined;1920 x 1080;2560 x 1440
H027;32;Mannelijk;Rechts;4;15;left;no;100;leftarrow;261;true;focus;yes;695711;Chrome;112.0;Windows;10;undefined;undefined;1920 x 1080;2560 x 1440
H027;32;Mannelijk;Rechts;4;16;right;no;100;rightarrow;290;true;focus;yes;696759;Chrome;112.0;Windows;10;undefined;undefined;1920 x 1080;2560 x 1440
H027;32;Mannelijk;Rechts;4;17;left;no;100;leftarrow;253;true;focus;yes;697767;Chrome;112.0;Windows;10;undefined;undefined;1920 x 1080;2560 x 1440
H027;32;Mannelijk;Rechts;4;18;left;yes;100;undefined;null;true;focus;yes;699774;Chrome;112.0;Windows;10;undefined;undefined;1920 x 1080;2560 x 1440
H027;32;Mannelijk;Rechts;4;19;right;no;150;rightarrow;335;true;focus;yes;700863;Chrome;112.0;Windows;10;undefined;undefined;1920 x 1080;2560 x 1440
H027;32;Mannelijk;Rechts;4;20;right;no;150;rightarrow;372;true;focus;yes;701999;Chrome;112.0;Windows;10;undefined;undefined;1920 x 1080;2560 x 1440
H027;32;Mannelijk;Rechts;4;21;right;no;150;rightarrow;414;true;focus;yes;703167;Chrome;112.0;Windows;10;undefined;undefined;1920 x 1080;2560 x 1440
H027;32;Mannelijk;Rechts;4;22;right;yes;150;undefined;null;true;focus;yes;705173;Chrome;112.0;Windows;10;undefined;undefined;1920 x 1080;2560 x 1440
H027;32;Mannelijk;Rechts;4;23;left;no;200;leftarrow;311;true;focus;yes;706239;Chrome;112.0;Windows;10;undefined;undefined;1920 x 1080;2560 x 1440
H027;32;Mannelijk;Rechts;4;24;left;no;200;leftarrow;436;true;focus;yes;707431;Chrome;112.0;Windows;10;undefined;undefined;1920 x 1080;2560 x 1440
H027;32;Mannelijk;Rechts;4;25;left;yes;200;undefined;null;true;focus;yes;709438;Chrome;112.0;Windows;10;undefined;undefined;1920 x 1080;2560 x 1440
H027;32;Mannelijk;Rechts;4;26;right;no;250;rightarrow;310;true;focus;yes;710503;Chrome;112.0;Windows;10;undefined;undefined;1920 x 1080;2560 x 1440
H027;32;Mannelijk;Rechts;4;27;left;no;250;leftarrow;411;true;focus;yes;711678;Chrome;112.0;Windows;10;undefined;undefined;1920 x 1080;2560 x 1440
H027;32;Mannelijk;Rechts;4;28;right;no;250;rightarrow;348;true;focus;yes;712782;Chrome;112.0;Windows;10;undefined;undefined;1920 x 1080;2560 x 1440
H027;32;Mannelijk;Rechts;4;29;left;no;250;leftarrow;372;true;focus;yes;713910;Chrome;112.0;Windows;10;undefined;undefined;1920 x 1080;2560 x 1440
H027;32;Mannelijk;Rechts;4;30;right;yes;250;rightarrow;327;false;focus;yes;714998;Chrome;112.0;Windows;10;undefined;undefined;1920 x 1080;2560 x 1440
H027;32;Mannelijk;Rechts;4;31;left;no;200;leftarrow;637;true;focus;yes;716390;Chrome;112.0;Windows;10;undefined;undefined;1920 x 1080;2560 x 1440
H027;32;Mannelijk;Rechts;4;32;right;no;200;rightarrow;325;true;focus;yes;717471;Chrome;112.0;Windows;10;undefined;undefined;1920 x 1080;2560 x 1440
H027;32;Mannelijk;Rechts;4;33;right;yes;200;rightarrow;396;false;focus;yes;718622;Chrome;112.0;Windows;10;undefined;undefined;1920 x 1080;2560 x 1440
H027;32;Mannelijk;Rechts;4;34;left;no;150;leftarrow;399;true;focus;yes;719790;Chrome;112.0;Windows;10;undefined;undefined;1920 x 1080;2560 x 1440
H027;32;Mannelijk;Rechts;4;35;right;no;150;rightarrow;724;true;focus;yes;721270;Chrome;112.0;Windows;10;undefined;undefined;1920 x 1080;2560 x 1440
H027;32;Mannelijk;Rechts;4;36;left;yes;150;undefined;null;true;focus;yes;723275;Chrome;112.0;Windows;10;undefined;undefined;1920 x 1080;2560 x 1440
H027;32;Mannelijk;Rechts;4;37;left;no;200;leftarrow;423;true;focus;yes;724454;Chrome;112.0;Windows;10;undefined;undefined;1920 x 1080;2560 x 1440
H027;32;Mannelijk;Rechts;4;38;right;no;200;rightarrow;357;true;focus;yes;725566;Chrome;112.0;Windows;10;undefined;undefined;1920 x 1080;2560 x 1440
H027;32;Mannelijk;Rechts;4;39;right;no;200;rightarrow;429;true;focus;yes;726750;Chrome;112.0;Windows;10;undefined;undefined;1920 x 1080;2560 x 1440
H027;32;Mannelijk;Rechts;4;40;left;no;200;leftarrow;365;true;focus;yes;727870;Chrome;112.0;Windows;10;undefined;undefined;1920 x 1080;2560 x 1440
H027;32;Mannelijk;Rechts;4;41;left;no;200;leftarrow;460;true;focus;yes;729086;Chrome;112.0;Windows;10;undefined;undefined;1920 x 1080;2560 x 1440
H027;32;Mannelijk;Rechts;4;42;left;yes;200;leftarrow;332;false;focus;yes;730174;Chrome;112.0;Windows;10;undefined;undefined;1920 x 1080;2560 x 1440
H027;32;Mannelijk;Rechts;4;43;left;no;150;leftarrow;460;true;focus;yes;731390;Chrome;112.0;Windows;10;undefined;undefined;1920 x 1080;2560 x 1440
H027;32;Mannelijk;Rechts;4;44;right;yes;150;rightarrow;300;false;focus;yes;732446;Chrome;112.0;Windows;10;undefined;undefined;1920 x 1080;2560 x 1440
H027;32;Mannelijk;Rechts;4;45;left;no;100;leftarrow;444;true;focus;yes;733646;Chrome;112.0;Windows;10;undefined;undefined;1920 x 1080;2560 x 1440
H027;32;Mannelijk;Rechts;4;46;right;no;100;rightarrow;332;true;focus;yes;734734;Chrome;112.0;Windows;10;undefined;undefined;1920 x 1080;2560 x 1440
H027;32;Mannelijk;Rechts;4;47;right;no;100;rightarrow;292;true;focus;yes;735782;Chrome;112.0;Windows;10;undefined;undefined;1920 x 1080;2560 x 1440
H027;32;Mannelijk;Rechts;4;48;right;no;100;rightarrow;374;true;focus;yes;736918;Chrome;112.0;Windows;10;undefined;undefined;1920 x 1080;2560 x 1440
H027;32;Mannelijk;Rechts;4;49;left;no;100;leftarrow;372;true;focus;yes;738046;Chrome;112.0;Windows;10;undefined;undefined;1920 x 1080;2560 x 1440
H027;32;Mannelijk;Rechts;4;50;right;no;100;rightarrow;492;true;focus;yes;739294;Chrome;112.0;Windows;10;undefined;undefined;1920 x 1080;2560 x 1440
H027;32;Mannelijk;Rechts;4;51;left;no;100;leftarrow;316;true;focus;yes;740366;Chrome;112.0;Windows;10;undefined;undefined;1920 x 1080;2560 x 1440
H027;32;Mannelijk;Rechts;4;52;right;no;100;rightarrow;380;true;focus;yes;741502;Chrome;112.0;Windows;10;undefined;undefined;1920 x 1080;2560 x 1440
H027;32;Mannelijk;Rechts;4;53;right;no;100;rightarrow;397;true;focus;yes;742662;Chrome;112.0;Windows;10;undefined;undefined;1920 x 1080;2560 x 1440
H027;32;Mannelijk;Rechts;4;54;left;no;100;leftarrow;305;true;focus;yes;743726;Chrome;112.0;Windows;10;undefined;undefined;1920 x 1080;2560 x 1440
H027;32;Mannelijk;Rechts;4;55;left;yes;100;undefined;null;true;focus;yes;745733;Chrome;112.0;Windows;10;undefined;undefined;1920 x 1080;2560 x 1440
H027;32;Mannelijk;Rechts;4;56;right;yes;150;rightarrow;318;false;focus;yes;746806;Chrome;112.0;Windows;10;undefined;undefined;1920 x 1080;2560 x 1440
H027;32;Mannelijk;Rechts;4;57;right;yes;100;undefined;null;true;focus;yes;748813;Chrome;112.0;Windows;10;undefined;undefined;1920 x 1080;2560 x 1440
H027;32;Mannelijk;Rechts;4;58;right;no;150;rightarrow;311;true;focus;yes;749879;Chrome;112.0;Windows;10;undefined;undefined;1920 x 1080;2560 x 1440
H027;32;Mannelijk;Rechts;4;59;right;no;150;rightarrow;309;true;focus;yes;750942;Chrome;112.0;Windows;10;undefined;undefined;1920 x 1080;2560 x 1440
H027;32;Mannelijk;Rechts;4;60;left;yes;150;undefined;null;true;focus;yes;752948;Chrome;112.0;Windows;10;undefined;undefined;1920 x 1080;2560 x 1440
H027;32;Mannelijk;Rechts;4;61;left;no;200;leftarrow;376;true;focus;yes;754078;Chrome;112.0;Windows;10;undefined;undefined;1920 x 1080;2560 x 1440
H027;32;Mannelijk;Rechts;4;62;left;no;200;leftarrow;291;true;focus;yes;755134;Chrome;112.0;Windows;10;undefined;undefined;1920 x 1080;2560 x 1440
H027;32;Mannelijk;Rechts;4;63;right;no;200;rightarrow;654;true;focus;yes;756542;Chrome;112.0;Windows;10;undefined;undefined;1920 x 1080;2560 x 1440
H027;32;Mannelijk;Rechts;4;64;left;no;200;leftarrow;324;true;focus;yes;757622;Chrome;112.0;Windows;10;undefined;undefined;1920 x 1080;2560 x 1440
H027;32;Mannelijk;Rechts;4;65;right;no;200;rightarrow;741;true;focus;yes;759118;Chrome;112.0;Windows;10;undefined;undefined;1920 x 1080;2560 x 1440
H027;32;Mannelijk;Rechts;4;66;right;no;200;rightarrow;620;true;focus;yes;760494;Chrome;112.0;Windows;10;undefined;undefined;1920 x 1080;2560 x 1440
H027;32;Mannelijk;Rechts;4;67;right;no;200;rightarrow;262;true;focus;yes;761526;Chrome;112.0;Windows;10;undefined;undefined;1920 x 1080;2560 x 1440
H027;32;Mannelijk;Rechts;4;68;right;yes;200;rightarrow;301;false;focus;yes;762582;Chrome;112.0;Windows;10;undefined;undefined;1920 x 1080;2560 x 1440
H027;32;Mannelijk;Rechts;4;69;left;no;150;leftarrow;407;true;focus;yes;763750;Chrome;112.0;Windows;10;undefined;undefined;1920 x 1080;2560 x 1440
H027;32;Mannelijk;Rechts;4;70;left;no;150;leftarrow;342;true;focus;yes;764846;Chrome;112.0;Windows;10;undefined;undefined;1920 x 1080;2560 x 1440
H027;32;Mannelijk;Rechts;4;71;left;no;150;leftarrow;301;true;focus;yes;765902;Chrome;112.0;Windows;10;undefined;undefined;1920 x 1080;2560 x 1440
H027;32;Mannelijk;Rechts;4;72;left;yes;150;leftarrow;308;false;focus;yes;766966;Chrome;112.0;Windows;10;undefined;undefined;1920 x 1080;2560 x 1440
H027;32;Mannelijk;Rechts;4;73;left;yes;100;leftarrow;357;false;focus;yes;768078;Chrome;112.0;Windows;10;undefined;undefined;1920 x 1080;2560 x 1440
H027;32;Mannelijk;Rechts;4;74;right;no;50;rightarrow;372;true;focus;yes;769206;Chrome;112.0;Windows;10;undefined;undefined;1920 x 1080;2560 x 1440
H027;32;Mannelijk;Rechts;4;75;left;no;50;leftarrow;316;true;focus;yes;770278;Chrome;112.0;Windows;10;undefined;undefined;1920 x 1080;2560 x 1440
H027;32;Mannelijk;Rechts;4;76;left;no;50;leftarrow;349;true;focus;yes;771382;Chrome;112.0;Windows;10;undefined;undefined;1920 x 1080;2560 x 1440
H027;32;Mannelijk;Rechts;4;77;left;no;50;leftarrow;272;true;focus;yes;772414;Chrome;112.0;Windows;10;undefined;undefined;1920 x 1080;2560 x 1440
H027;32;Mannelijk;Rechts;4;78;right;no;50;rightarrow;395;true;focus;yes;773566;Chrome;112.0;Windows;10;undefined;undefined;1920 x 1080;2560 x 1440
H027;32;Mannelijk;Rechts;4;79;right;yes;50;undefined;null;true;focus;yes;775577;Chrome;112.0;Windows;10;undefined;undefined;1920 x 1080;2560 x 1440
H027;32;Mannelijk;Rechts;4;80;right;no;100;rightarrow;265;true;focus;yes;776598;Chrome;112.0;Windows;10;undefined;undefined;1920 x 1080;2560 x 1440
H027;32;Mannelijk;Rechts;4;81;left;yes;100;leftarrow;349;false;focus;yes;777702;Chrome;112.0;Windows;10;undefined;undefined;1920 x 1080;2560 x 1440
H027;32;Mannelijk;Rechts;4;82;left;no;50;leftarrow;339;true;focus;yes;778806;Chrome;112.0;Windows;10;undefined;undefined;1920 x 1080;2560 x 1440
H027;32;Mannelijk;Rechts;4;83;right;yes;50;undefined;null;true;focus;yes;780812;Chrome;112.0;Windows;10;undefined;undefined;1920 x 1080;2560 x 1440
H027;32;Mannelijk;Rechts;4;84;left;no;100;leftarrow;359;true;focus;yes;781926;Chrome;112.0;Windows;10;undefined;undefined;1920 x 1080;2560 x 1440
H027;32;Mannelijk;Rechts;4;85;left;no;100;leftarrow;364;true;focus;yes;783046;Chrome;112.0;Windows;10;undefined;undefined;1920 x 1080;2560 x 1440
H027;32;Mannelijk;Rechts;4;86;right;no;100;rightarrow;429;true;focus;yes;784230;Chrome;112.0;Windows;10;undefined;undefined;1920 x 1080;2560 x 1440
H027;32;Mannelijk;Rechts;4;87;right;no;100;rightarrow;349;true;focus;yes;785334;Chrome;112.0;Windows;10;undefined;undefined;1920 x 1080;2560 x 1440
H027;32;Mannelijk;Rechts;4;88;right;no;100;rightarrow;301;true;focus;yes;786390;Chrome;112.0;Windows;10;undefined;undefined;1920 x 1080;2560 x 1440
H027;32;Mannelijk;Rechts;4;89;right;no;100;rightarrow;308;true;focus;yes;787454;Chrome;112.0;Windows;10;undefined;undefined;1920 x 1080;2560 x 1440
H027;32;Mannelijk;Rechts;4;90;left;no;100;rightarrow;520;false;focus;yes;788742;Chrome;112.0;Windows;10;undefined;undefined;1920 x 1080;2560 x 1440
H027;32;Mannelijk;Rechts;4;91;right;yes;100;undefined;null;true;focus;yes;790754;Chrome;112.0;Windows;10;undefined;undefined;1920 x 1080;2560 x 1440
H027;32;Mannelijk;Rechts;4;92;left;no;150;leftarrow;305;true;focus;yes;791814;Chrome;112.0;Windows;10;undefined;undefined;1920 x 1080;2560 x 1440
H027;32;Mannelijk;Rechts;4;93;right;no;150;rightarrow;349;true;focus;yes;792918;Chrome;112.0;Windows;10;undefined;undefined;1920 x 1080;2560 x 1440
H027;32;Mannelijk;Rechts;4;94;left;yes;150;undefined;null;true;focus;yes;794925;Chrome;112.0;Windows;10;undefined;undefined;1920 x 1080;2560 x 1440
H027;32;Mannelijk;Rechts;4;95;left;no;200;leftarrow;319;true;focus;yes;795998;Chrome;112.0;Windows;10;undefined;undefined;1920 x 1080;2560 x 1440
H027;32;Mannelijk;Rechts;4;96;right;no;200;rightarrow;340;true;focus;yes;797094;Chrome;112.0;Windows;10;undefined;undefined;1920 x 1080;2560 x 1440
H027;32;Mannelijk;Rechts;4;97;left;no;200;leftarrow;349;true;focus;yes;798198;Chrome;112.0;Windows;10;undefined;undefined;1920 x 1080;2560 x 1440
H027;32;Mannelijk;Rechts;4;98;right;no;200;rightarrow;500;true;focus;yes;799454;Chrome;112.0;Windows;10;undefined;undefined;1920 x 1080;2560 x 1440
H027;32;Mannelijk;Rechts;4;99;left;no;200;leftarrow;388;true;focus;yes;800598;Chrome;112.0;Windows;10;undefined;undefined;1920 x 1080;2560 x 1440
H027;32;Mannelijk;Rechts;4;100;right;no;200;rightarrow;293;true;focus;yes;801646;Chrome;112.0;Windows;10;undefined;undefined;1920 x 1080;2560 x 1440
H027;32;Mannelijk;Rechts;4;101;right;yes;200;rightarrow;436;false;focus;yes;802838;Chrome;112.0;Windows;10;undefined;undefined;1920 x 1080;2560 x 1440
H027;32;Mannelijk;Rechts;4;102;left;yes;150;leftarrow;293;false;focus;yes;803886;Chrome;112.0;Windows;10;undefined;undefined;1920 x 1080;2560 x 1440
H027;32;Mannelijk;Rechts;4;103;left;no;100;leftarrow;346;true;focus;yes;804990;Chrome;112.0;Windows;10;undefined;undefined;1920 x 1080;2560 x 1440
H027;32;Mannelijk;Rechts;4;104;right;no;100;rightarrow;308;true;focus;yes;806054;Chrome;112.0;Windows;10;undefined;undefined;1920 x 1080;2560 x 1440
H027;32;Mannelijk;Rechts;4;105;right;no;100;rightarrow;308;true;focus;yes;807118;Chrome;112.0;Windows;10;undefined;undefined;1920 x 1080;2560 x 1440
H027;32;Mannelijk;Rechts;4;106;right;yes;100;rightarrow;341;false;focus;yes;808214;Chrome;112.0;Windows;10;undefined;undefined;1920 x 1080;2560 x 1440
H027;32;Mannelijk;Rechts;4;107;left;no;50;leftarrow;373;true;focus;yes;809342;Chrome;112.0;Windows;10;undefined;undefined;1920 x 1080;2560 x 1440
H027;32;Mannelijk;Rechts;4;109;left;no;100;rightarrow;207;false;focus;yes;812310;Chrome;112.0;Windows;10;undefined;undefined;1920 x 1080;2560 x 1440
H027;32;Mannelijk;Rechts;4;108;left;yes;50;undefined;null;true;focus;yes;811348;Chrome;112.0;Windows;10;undefined;undefined;1920 x 1080;2560 x 1440
H027;32;Mannelijk;Rechts;4;110;right;no;100;rightarrow;333;true;focus;yes;813398;Chrome;112.0;Windows;10;undefined;undefined;1920 x 1080;2560 x 1440
H027;32;Mannelijk;Rechts;4;111;left;no;100;leftarrow;397;true;focus;yes;814550;Chrome;112.0;Windows;10;undefined;undefined;1920 x 1080;2560 x 1440
H027;32;Mannelijk;Rechts;4;112;right;no;100;rightarrow;317;true;focus;yes;815622;Chrome;112.0;Windows;10;undefined;undefined;1920 x 1080;2560 x 1440
H027;32;Mannelijk;Rechts;4;113;right;no;100;rightarrow;316;true;focus;yes;816694;Chrome;112.0;Windows;10;undefined;undefined;1920 x 1080;2560 x 1440
H027;32;Mannelijk;Rechts;4;114;left;yes;100;leftarrow;292;false;focus;yes;817742;Chrome;112.0;Windows;10;undefined;undefined;1920 x 1080;2560 x 1440
H027;32;Mannelijk;Rechts;4;115;right;no;50;rightarrow;498;true;focus;yes;818998;Chrome;112.0;Windows;10;undefined;undefined;1920 x 1080;2560 x 1440
H027;32;Mannelijk;Rechts;4;116;left;no;50;leftarrow;333;true;focus;yes;820086;Chrome;112.0;Windows;10;undefined;undefined;1920 x 1080;2560 x 1440
H027;32;Mannelijk;Rechts;4;117;left;no;50;leftarrow;381;true;focus;yes;821222;Chrome;112.0;Windows;10;undefined;undefined;1920 x 1080;2560 x 1440
H027;32;Mannelijk;Rechts;4;118;left;no;50;leftarrow;372;true;focus;yes;822350;Chrome;112.0;Windows;10;undefined;undefined;1920 x 1080;2560 x 1440
H027;32;Mannelijk;Rechts;4;119;right;yes;50;undefined;null;true;focus;yes;824356;Chrome;112.0;Windows;10;undefined;undefined;1920 x 1080;2560 x 1440
H027;32;Mannelijk;Rechts;4;120;right;no;100;rightarrow;343;true;focus;yes;825454;Chrome;112.0;Windows;10;undefined;undefined;1920 x 1080;2560 x 1440
H027;32;Mannelijk;Rechts;4;121;left;no;100;leftarrow;412;true;focus;yes;826622;Chrome;112.0;Windows;10;undefined;undefined;1920 x 1080;2560 x 1440
H027;32;Mannelijk;Rechts;4;122;right;yes;100;undefined;null;true;focus;yes;828629;Chrome;112.0;Windows;10;undefined;undefined;1920 x 1080;2560 x 1440
H027;32;Mannelijk;Rechts;4;123;left;no;150;leftarrow;334;true;focus;yes;829718;Chrome;112.0;Windows;10;undefined;undefined;1920 x 1080;2560 x 1440
H027;32;Mannelijk;Rechts;4;124;left;yes;150;leftarrow;348;false;focus;yes;830822;Chrome;112.0;Windows;10;undefined;undefined;1920 x 1080;2560 x 1440
H027;32;Mannelijk;Rechts;4;125;right;no;100;rightarrow;411;true;focus;yes;831990;Chrome;112.0;Windows;10;undefined;undefined;1920 x 1080;2560 x 1440
H027;32;Mannelijk;Rechts;4;126;right;no;100;rightarrow;404;true;focus;yes;833150;Chrome;112.0;Windows;10;undefined;undefined;1920 x 1080;2560 x 1440
H027;32;Mannelijk;Rechts;4;127;left;no;100;leftarrow;316;true;focus;yes;834222;Chrome;112.0;Windows;10;undefined;undefined;1920 x 1080;2560 x 1440
H027;32;Mannelijk;Rechts;4;128;right;no;100;rightarrow;307;true;focus;yes;835294;Chrome;112.0;Windows;10;undefined;undefined;1920 x 1080;2560 x 1440
H027;32;Mannelijk;Rechts;5;1;right;no;100;rightarrow;507;true;focus;yes;855038;Chrome;112.0;Windows;10;undefined;undefined;1920 x 1080;2560 x 1440
H027;32;Mannelijk;Rechts;5;2;right;yes;100;rightarrow;276;false;focus;yes;856070;Chrome;112.0;Windows;10;undefined;undefined;1920 x 1080;2560 x 1440
H027;32;Mannelijk;Rechts;5;3;left;no;50;leftarrow;300;true;focus;yes;857126;Chrome;112.0;Windows;10;undefined;undefined;1920 x 1080;2560 x 1440
H027;32;Mannelijk;Rechts;5;4;left;no;50;leftarrow;288;true;focus;yes;858182;Chrome;112.0;Windows;10;undefined;undefined;1920 x 1080;2560 x 1440
H027;32;Mannelijk;Rechts;5;5;right;no;50;rightarrow;452;true;focus;yes;859390;Chrome;112.0;Windows;10;undefined;undefined;1920 x 1080;2560 x 1440
H027;32;Mannelijk;Rechts;5;6;left;yes;50;undefined;null;true;focus;yes;861397;Chrome;112.0;Windows;10;undefined;undefined;1920 x 1080;2560 x 1440
H027;32;Mannelijk;Rechts;5;7;right;no;100;rightarrow;423;true;focus;yes;862575;Chrome;112.0;Windows;10;undefined;undefined;1920 x 1080;2560 x 1440
H027;32;Mannelijk;Rechts;5;8;left;no;100;leftarrow;364;true;focus;yes;863694;Chrome;112.0;Windows;10;undefined;undefined;1920 x 1080;2560 x 1440
H027;32;Mannelijk;Rechts;5;9;right;no;100;rightarrow;404;true;focus;yes;864854;Chrome;112.0;Windows;10;undefined;undefined;1920 x 1080;2560 x 1440
H027;32;Mannelijk;Rechts;5;10;left;no;100;leftarrow;317;true;focus;yes;865926;Chrome;112.0;Windows;10;undefined;undefined;1920 x 1080;2560 x 1440
H027;32;Mannelijk;Rechts;5;11;left;no;100;leftarrow;309;true;focus;yes;866990;Chrome;112.0;Windows;10;undefined;undefined;1920 x 1080;2560 x 1440
H027;32;Mannelijk;Rechts;5;12;right;no;100;rightarrow;309;true;focus;yes;868054;Chrome;112.0;Windows;10;undefined;undefined;1920 x 1080;2560 x 1440
H027;32;Mannelijk;Rechts;5;13;left;no;100;leftarrow;301;true;focus;yes;869111;Chrome;112.0;Windows;10;undefined;undefined;1920 x 1080;2560 x 1440
H027;32;Mannelijk;Rechts;5;14;left;yes;100;undefined;null;true;focus;yes;871117;Chrome;112.0;Windows;10;undefined;undefined;1920 x 1080;2560 x 1440
H027;32;Mannelijk;Rechts;5;15;right;no;150;rightarrow;239;true;focus;yes;872110;Chrome;112.0;Windows;10;undefined;undefined;1920 x 1080;2560 x 1440
H027;32;Mannelijk;Rechts;5;16;right;yes;150;rightarrow;380;false;focus;yes;873247;Chrome;112.0;Windows;10;undefined;undefined;1920 x 1080;2560 x 1440
H027;32;Mannelijk;Rechts;5;17;left;no;100;leftarrow;348;true;focus;yes;874350;Chrome;112.0;Windows;10;undefined;undefined;1920 x 1080;2560 x 1440
H027;32;Mannelijk;Rechts;5;18;right;no;100;rightarrow;612;true;focus;yes;875718;Chrome;112.0;Windows;10;undefined;undefined;1920 x 1080;2560 x 1440
H027;32;Mannelijk;Rechts;5;19;left;yes;100;undefined;null;true;focus;yes;877725;Chrome;112.0;Windows;10;undefined;undefined;1920 x 1080;2560 x 1440
H027;32;Mannelijk;Rechts;5;20;left;no;150;leftarrow;525;true;focus;yes;879007;Chrome;112.0;Windows;10;undefined;undefined;1920 x 1080;2560 x 1440
H027;32;Mannelijk;Rechts;5;21;right;yes;150;undefined;null;true;focus;yes;881013;Chrome;112.0;Windows;10;undefined;undefined;1920 x 1080;2560 x 1440
H027;32;Mannelijk;Rechts;5;22;left;no;200;leftarrow;366;true;focus;yes;882134;Chrome;112.0;Windows;10;undefined;undefined;1920 x 1080;2560 x 1440
H027;32;Mannelijk;Rechts;5;23;right;no;200;rightarrow;308;true;focus;yes;883198;Chrome;112.0;Windows;10;undefined;undefined;1920 x 1080;2560 x 1440
H027;32;Mannelijk;Rechts;5;24;right;no;200;rightarrow;372;true;focus;yes;884327;Chrome;112.0;Windows;10;undefined;undefined;1920 x 1080;2560 x 1440
H027;32;Mannelijk;Rechts;5;25;left;yes;200;leftarrow;324;false;focus;yes;885406;Chrome;112.0;Windows;10;undefined;undefined;1920 x 1080;2560 x 1440
H027;32;Mannelijk;Rechts;5;26;left;no;150;leftarrow;452;true;focus;yes;886614;Chrome;112.0;Windows;10;undefined;undefined;1920 x 1080;2560 x 1440
H027;32;Mannelijk;Rechts;5;27;left;no;150;leftarrow;468;true;focus;yes;887838;Chrome;112.0;Windows;10;undefined;undefined;1920 x 1080;2560 x 1440
H027;32;Mannelijk;Rechts;5;28;right;no;150;rightarrow;372;true;focus;yes;888966;Chrome;112.0;Windows;10;undefined;undefined;1920 x 1080;2560 x 1440
H027;32;Mannelijk;Rechts;5;29;right;yes;150;undefined;null;true;focus;yes;890973;Chrome;112.0;Windows;10;undefined;undefined;1920 x 1080;2560 x 1440
H027;32;Mannelijk;Rechts;5;30;left;no;200;leftarrow;334;true;focus;yes;892062;Chrome;112.0;Windows;10;undefined;undefined;1920 x 1080;2560 x 1440
H027;32;Mannelijk;Rechts;5;31;right;no;200;rightarrow;286;true;focus;yes;893110;Chrome;112.0;Windows;10;undefined;undefined;1920 x 1080;2560 x 1440
H027;32;Mannelijk;Rechts;5;32;right;no;200;rightarrow;396;true;focus;yes;894262;Chrome;112.0;Windows;10;undefined;undefined;1920 x 1080;2560 x 1440
H027;32;Mannelijk;Rechts;5;33;right;yes;200;rightarrow;300;false;focus;yes;895319;Chrome;112.0;Windows;10;undefined;undefined;1920 x 1080;2560 x 1440
H027;32;Mannelijk;Rechts;5;34;left;no;150;leftarrow;420;true;focus;yes;896494;Chrome;112.0;Windows;10;undefined;undefined;1920 x 1080;2560 x 1440
H027;32;Mannelijk;Rechts;5;35;left;no;150;leftarrow;428;true;focus;yes;897678;Chrome;112.0;Windows;10;undefined;undefined;1920 x 1080;2560 x 1440
H027;32;Mannelijk;Rechts;5;36;left;no;150;leftarrow;374;true;focus;yes;898807;Chrome;112.0;Windows;10;undefined;undefined;1920 x 1080;2560 x 1440
H027;32;Mannelijk;Rechts;5;37;right;no;150;rightarrow;444;true;focus;yes;900006;Chrome;112.0;Windows;10;undefined;undefined;1920 x 1080;2560 x 1440
H027;32;Mannelijk;Rechts;5;38;left;yes;150;undefined;null;true;focus;yes;902012;Chrome;112.0;Windows;10;undefined;undefined;1920 x 1080;2560 x 1440
H027;32;Mannelijk;Rechts;5;39;right;no;200;rightarrow;399;true;focus;yes;903166;Chrome;112.0;Windows;10;undefined;undefined;1920 x 1080;2560 x 1440
H027;32;Mannelijk;Rechts;5;40;right;no;200;rightarrow;309;true;focus;yes;904230;Chrome;112.0;Windows;10;undefined;undefined;1920 x 1080;2560 x 1440
H027;32;Mannelijk;Rechts;5;41;left;no;200;leftarrow;493;true;focus;yes;905479;Chrome;112.0;Windows;10;undefined;undefined;1920 x 1080;2560 x 1440
H027;32;Mannelijk;Rechts;5;42;right;no;200;rightarrow;484;true;focus;yes;906718;Chrome;112.0;Windows;10;undefined;undefined;1920 x 1080;2560 x 1440
H027;32;Mannelijk;Rechts;5;43;right;no;200;rightarrow;452;true;focus;yes;907926;Chrome;112.0;Windows;10;undefined;undefined;1920 x 1080;2560 x 1440
H027;32;Mannelijk;Rechts;5;44;left;no;200;leftarrow;436;true;focus;yes;909118;Chrome;112.0;Windows;10;undefined;undefined;1920 x 1080;2560 x 1440
H027;32;Mannelijk;Rechts;5;45;left;no;200;leftarrow;421;true;focus;yes;910294;Chrome;112.0;Windows;10;undefined;undefined;1920 x 1080;2560 x 1440
H027;32;Mannelijk;Rechts;5;46;right;no;200;rightarrow;404;true;focus;yes;911454;Chrome;112.0;Windows;10;undefined;undefined;1920 x 1080;2560 x 1440
H027;32;Mannelijk;Rechts;5;47;right;yes;200;undefined;null;true;focus;yes;913460;Chrome;112.0;Windows;10;undefined;undefined;1920 x 1080;2560 x 1440
H027;32;Mannelijk;Rechts;5;48;left;yes;250;leftarrow;391;false;focus;yes;914606;Chrome;112.0;Windows;10;undefined;undefined;1920 x 1080;2560 x 1440
H027;32;Mannelijk;Rechts;5;49;right;yes;200;undefined;null;true;focus;yes;916611;Chrome;112.0;Windows;10;undefined;undefined;1920 x 1080;2560 x 1440
H027;32;Mannelijk;Rechts;5;50;left;yes;250;undefined;null;true;focus;yes;918616;Chrome;112.0;Windows;10;undefined;undefined;1920 x 1080;2560 x 1440
H027;32;Mannelijk;Rechts;5;51;right;no;300;rightarrow;563;true;focus;yes;919935;Chrome;112.0;Windows;10;undefined;undefined;1920 x 1080;2560 x 1440
H027;32;Mannelijk;Rechts;5;52;left;no;300;leftarrow;388;true;focus;yes;921078;Chrome;112.0;Windows;10;undefined;undefined;1920 x 1080;2560 x 1440
H027;32;Mannelijk;Rechts;5;53;left;no;300;leftarrow;412;true;focus;yes;922246;Chrome;112.0;Windows;10;undefined;undefined;1920 x 1080;2560 x 1440
H027;32;Mannelijk;Rechts;5;54;left;no;300;leftarrow;364;true;focus;yes;923366;Chrome;112.0;Windows;10;undefined;undefined;1920 x 1080;2560 x 1440
H027;32;Mannelijk;Rechts;5;55;right;no;300;rightarrow;444;true;focus;yes;924566;Chrome;112.0;Windows;10;undefined;undefined;1920 x 1080;2560 x 1440
H027;32;Mannelijk;Rechts;5;56;right;no;300;rightarrow;372;true;focus;yes;925694;Chrome;112.0;Windows;10;undefined;undefined;1920 x 1080;2560 x 1440
H027;32;Mannelijk;Rechts;5;57;left;no;300;leftarrow;404;true;focus;yes;926854;Chrome;112.0;Windows;10;undefined;undefined;1920 x 1080;2560 x 1440
H027;32;Mannelijk;Rechts;5;58;right;no;300;rightarrow;325;true;focus;yes;927934;Chrome;112.0;Windows;10;undefined;undefined;1920 x 1080;2560 x 1440
H027;32;Mannelijk;Rechts;5;59;left;no;300;leftarrow;340;true;focus;yes;929030;Chrome;112.0;Windows;10;undefined;undefined;1920 x 1080;2560 x 1440
H027;32;Mannelijk;Rechts;5;60;right;no;300;rightarrow;299;true;focus;yes;930087;Chrome;112.0;Windows;10;undefined;undefined;1920 x 1080;2560 x 1440
H027;32;Mannelijk;Rechts;5;61;left;no;300;leftarrow;300;true;focus;yes;931142;Chrome;112.0;Windows;10;undefined;undefined;1920 x 1080;2560 x 1440
H027;32;Mannelijk;Rechts;5;62;right;no;300;rightarrow;300;true;focus;yes;932198;Chrome;112.0;Windows;10;undefined;undefined;1920 x 1080;2560 x 1440
H027;32;Mannelijk;Rechts;5;63;left;yes;300;leftarrow;388;false;focus;yes;933342;Chrome;112.0;Windows;10;undefined;undefined;1920 x 1080;2560 x 1440
H027;32;Mannelijk;Rechts;5;64;right;yes;250;undefined;null;true;focus;yes;935359;Chrome;112.0;Windows;10;undefined;undefined;1920 x 1080;2560 x 1440
H027;32;Mannelijk;Rechts;5;65;right;no;300;rightarrow;355;true;focus;yes;936470;Chrome;112.0;Windows;10;undefined;undefined;1920 x 1080;2560 x 1440
H027;32;Mannelijk;Rechts;5;66;right;no;300;rightarrow;580;true;focus;yes;937806;Chrome;112.0;Windows;10;undefined;undefined;1920 x 1080;2560 x 1440
H027;32;Mannelijk;Rechts;5;67;left;no;300;leftarrow;412;true;focus;yes;938974;Chrome;112.0;Windows;10;undefined;undefined;1920 x 1080;2560 x 1440
H027;32;Mannelijk;Rechts;5;68;right;yes;300;undefined;null;true;focus;yes;940981;Chrome;112.0;Windows;10;undefined;undefined;1920 x 1080;2560 x 1440
H027;32;Mannelijk;Rechts;5;69;left;no;350;leftarrow;342;true;focus;yes;942079;Chrome;112.0;Windows;10;undefined;undefined;1920 x 1080;2560 x 1440
H027;32;Mannelijk;Rechts;5;70;right;no;350;rightarrow;348;true;focus;yes;943182;Chrome;112.0;Windows;10;undefined;undefined;1920 x 1080;2560 x 1440
H027;32;Mannelijk;Rechts;5;71;left;yes;350;undefined;null;true;focus;yes;945188;Chrome;112.0;Windows;10;undefined;undefined;1920 x 1080;2560 x 1440
H027;32;Mannelijk;Rechts;5;72;left;no;400;leftarrow;368;true;focus;yes;946310;Chrome;112.0;Windows;10;undefined;undefined;1920 x 1080;2560 x 1440
H027;32;Mannelijk;Rechts;5;73;right;yes;400;rightarrow;405;false;focus;yes;947470;Chrome;112.0;Windows;10;undefined;undefined;1920 x 1080;2560 x 1440
H027;32;Mannelijk;Rechts;5;74;left;no;350;leftarrow;866;true;focus;yes;949102;Chrome;112.0;Windows;10;undefined;undefined;1920 x 1080;2560 x 1440
H027;32;Mannelijk;Rechts;5;75;right;no;350;rightarrow;348;true;focus;yes;950206;Chrome;112.0;Windows;10;undefined;undefined;1920 x 1080;2560 x 1440
H027;32;Mannelijk;Rechts;5;76;right;no;350;rightarrow;436;true;focus;yes;951398;Chrome;112.0;Windows;10;undefined;undefined;1920 x 1080;2560 x 1440
H027;32;Mannelijk;Rechts;5;77;right;no;350;rightarrow;1021;true;focus;yes;953175;Chrome;112.0;Windows;10;undefined;undefined;1920 x 1080;2560 x 1440
H027;32;Mannelijk;Rechts;5;78;left;yes;350;undefined;null;true;focus;yes;955182;Chrome;112.0;Windows;10;undefined;undefined;1920 x 1080;2560 x 1440
H027;32;Mannelijk;Rechts;5;79;left;no;400;leftarrow;431;true;focus;yes;956367;Chrome;112.0;Windows;10;undefined;undefined;1920 x 1080;2560 x 1440
H027;32;Mannelijk;Rechts;5;80;left;no;400;leftarrow;412;true;focus;yes;957535;Chrome;112.0;Windows;10;undefined;undefined;1920 x 1080;2560 x 1440
H027;32;Mannelijk;Rechts;5;81;right;no;400;rightarrow;581;true;focus;yes;958871;Chrome;112.0;Windows;10;undefined;undefined;1920 x 1080;2560 x 1440
H027;32;Mannelijk;Rechts;5;82;left;yes;400;leftarrow;485;false;focus;yes;960111;Chrome;112.0;Windows;10;undefined;undefined;1920 x 1080;2560 x 1440
H027;32;Mannelijk;Rechts;5;83;right;no;350;rightarrow;1157;true;focus;yes;962023;Chrome;112.0;Windows;10;undefined;undefined;1920 x 1080;2560 x 1440
H027;32;Mannelijk;Rechts;5;84;right;yes;350;undefined;null;true;focus;yes;964031;Chrome;112.0;Windows;10;undefined;undefined;1920 x 1080;2560 x 1440
H027;32;Mannelijk;Rechts;5;85;right;no;400;rightarrow;437;true;focus;yes;965223;Chrome;112.0;Windows;10;undefined;undefined;1920 x 1080;2560 x 1440
H027;32;Mannelijk;Rechts;5;86;left;no;400;leftarrow;397;true;focus;yes;966375;Chrome;112.0;Windows;10;undefined;undefined;1920 x 1080;2560 x 1440
H027;32;Mannelijk;Rechts;5;87;left;no;400;leftarrow;685;true;focus;yes;967815;Chrome;112.0;Windows;10;undefined;undefined;1920 x 1080;2560 x 1440
H027;32;Mannelijk;Rechts;5;88;left;no;400;leftarrow;565;true;focus;yes;969135;Chrome;112.0;Windows;10;undefined;undefined;1920 x 1080;2560 x 1440
H027;32;Mannelijk;Rechts;5;89;right;no;400;rightarrow;628;true;focus;yes;970519;Chrome;112.0;Windows;10;undefined;undefined;1920 x 1080;2560 x 1440
H027;32;Mannelijk;Rechts;5;90;left;no;400;leftarrow;605;true;focus;yes;971879;Chrome;112.0;Windows;10;undefined;undefined;1920 x 1080;2560 x 1440
H027;32;Mannelijk;Rechts;5;91;right;yes;400;undefined;null;true;focus;yes;973886;Chrome;112.0;Windows;10;undefined;undefined;1920 x 1080;2560 x 1440
H027;32;Mannelijk;Rechts;5;92;left;no;450;leftarrow;391;true;focus;yes;975031;Chrome;112.0;Windows;10;undefined;undefined;1920 x 1080;2560 x 1440
H027;32;Mannelijk;Rechts;5;93;right;no;450;rightarrow;669;true;focus;yes;976455;Chrome;112.0;Windows;10;undefined;undefined;1920 x 1080;2560 x 1440
H027;32;Mannelijk;Rechts;5;94;right;no;450;rightarrow;829;true;focus;yes;978039;Chrome;112.0;Windows;10;undefined;undefined;1920 x 1080;2560 x 1440
H027;32;Mannelijk;Rechts;5;95;left;no;450;leftarrow;757;true;focus;yes;979551;Chrome;112.0;Windows;10;undefined;undefined;1920 x 1080;2560 x 1440
H027;32;Mannelijk;Rechts;5;96;left;yes;450;leftarrow;629;false;focus;yes;980935;Chrome;112.0;Windows;10;undefined;undefined;1920 x 1080;2560 x 1440
H027;32;Mannelijk;Rechts;5;97;right;no;400;rightarrow;509;true;focus;yes;982199;Chrome;112.0;Windows;10;undefined;undefined;1920 x 1080;2560 x 1440
H027;32;Mannelijk;Rechts;5;98;right;yes;400;undefined;null;true;focus;yes;984206;Chrome;112.0;Windows;10;undefined;undefined;1920 x 1080;2560 x 1440
H027;32;Mannelijk;Rechts;5;99;left;yes;450;leftarrow;310;false;focus;yes;985271;Chrome;112.0;Windows;10;undefined;undefined;1920 x 1080;2560 x 1440
H027;32;Mannelijk;Rechts;5;100;right;no;400;rightarrow;556;true;focus;yes;986583;Chrome;112.0;Windows;10;undefined;undefined;1920 x 1080;2560 x 1440
H027;32;Mannelijk;Rechts;5;101;left;no;400;leftarrow;796;true;focus;yes;988135;Chrome;112.0;Windows;10;undefined;undefined;1920 x 1080;2560 x 1440
H027;32;Mannelijk;Rechts;5;102;left;no;400;leftarrow;620;true;focus;yes;989511;Chrome;112.0;Windows;10;undefined;undefined;1920 x 1080;2560 x 1440
H027;32;Mannelijk;Rechts;5;103;right;no;400;rightarrow;548;true;focus;yes;990815;Chrome;112.0;Windows;10;undefined;undefined;1920 x 1080;2560 x 1440
H027;32;Mannelijk;Rechts;5;104;left;no;400;leftarrow;548;true;focus;yes;992119;Chrome;112.0;Windows;10;undefined;undefined;1920 x 1080;2560 x 1440
H027;32;Mannelijk;Rechts;5;105;right;no;400;rightarrow;453;true;focus;yes;993327;Chrome;112.0;Windows;10;undefined;undefined;1920 x 1080;2560 x 1440
H027;32;Mannelijk;Rechts;5;106;left;yes;400;leftarrow;701;false;focus;yes;994783;Chrome;112.0;Windows;10;undefined;undefined;1920 x 1080;2560 x 1440
H027;32;Mannelijk;Rechts;5;107;left;no;350;leftarrow;849;true;focus;yes;996399;Chrome;112.0;Windows;10;undefined;undefined;1920 x 1080;2560 x 1440
H027;32;Mannelijk;Rechts;5;108;left;no;350;leftarrow;684;true;focus;yes;997839;Chrome;112.0;Windows;10;undefined;undefined;1920 x 1080;2560 x 1440
H027;32;Mannelijk;Rechts;5;109;right;yes;350;rightarrow;541;false;focus;yes;999135;Chrome;112.0;Windows;10;undefined;undefined;1920 x 1080;2560 x 1440
H027;32;Mannelijk;Rechts;5;110;right;no;300;rightarrow;1141;true;focus;yes;1001031;Chrome;112.0;Windows;10;undefined;undefined;1920 x 1080;2560 x 1440
H027;32;Mannelijk;Rechts;5;111;right;no;300;rightarrow;948;true;focus;yes;1002735;Chrome;112.0;Windows;10;undefined;undefined;1920 x 1080;2560 x 1440
H027;32;Mannelijk;Rechts;5;112;left;no;300;leftarrow;925;true;focus;yes;1004415;Chrome;112.0;Windows;10;undefined;undefined;1920 x 1080;2560 x 1440
H027;32;Mannelijk;Rechts;5;113;left;no;300;undefined;null;false;focus;yes;1006422;Chrome;112.0;Windows;10;undefined;undefined;1920 x 1080;2560 x 1440
H027;32;Mannelijk;Rechts;5;114;left;no;300;leftarrow;647;true;focus;yes;1007823;Chrome;112.0;Windows;10;undefined;undefined;1920 x 1080;2560 x 1440
H027;32;Mannelijk;Rechts;5;115;right;no;300;rightarrow;560;true;focus;yes;1009151;Chrome;112.0;Windows;10;undefined;undefined;1920 x 1080;2560 x 1440
H027;32;Mannelijk;Rechts;5;116;left;no;300;leftarrow;428;true;focus;yes;1010335;Chrome;112.0;Windows;10;undefined;undefined;1920 x 1080;2560 x 1440
H027;32;Mannelijk;Rechts;5;117;right;no;300;rightarrow;1020;true;focus;yes;1012111;Chrome;112.0;Windows;10;undefined;undefined;1920 x 1080;2560 x 1440
H027;32;Mannelijk;Rechts;5;118;left;yes;300;leftarrow;444;false;focus;yes;1013311;Chrome;112.0;Windows;10;undefined;undefined;1920 x 1080;2560 x 1440
H027;32;Mannelijk;Rechts;5;119;right;no;250;rightarrow;692;true;focus;yes;1014759;Chrome;112.0;Windows;10;undefined;undefined;1920 x 1080;2560 x 1440
H027;32;Mannelijk;Rechts;5;120;right;yes;250;undefined;null;true;focus;yes;1016770;Chrome;112.0;Windows;10;undefined;undefined;1920 x 1080;2560 x 1440
H027;32;Mannelijk;Rechts;5;121;left;no;300;leftarrow;322;true;focus;yes;1017847;Chrome;112.0;Windows;10;undefined;undefined;1920 x 1080;2560 x 1440
H027;32;Mannelijk;Rechts;5;122;right;no;300;rightarrow;734;true;focus;yes;1019335;Chrome;112.0;Windows;10;undefined;undefined;1920 x 1080;2560 x 1440
H027;32;Mannelijk;Rechts;5;123;right;no;300;rightarrow;517;true;focus;yes;1020607;Chrome;112.0;Windows;10;undefined;undefined;1920 x 1080;2560 x 1440
H027;32;Mannelijk;Rechts;5;124;right;yes;300;undefined;null;true;focus;yes;1022613;Chrome;112.0;Windows;10;undefined;undefined;1920 x 1080;2560 x 1440
H027;32;Mannelijk;Rechts;5;125;left;no;350;leftarrow;278;true;focus;yes;1023647;Chrome;112.0;Windows;10;undefined;undefined;1920 x 1080;2560 x 1440
H027;32;Mannelijk;Rechts;5;126;left;no;350;leftarrow;437;true;focus;yes;1024839;Chrome;112.0;Windows;10;undefined;undefined;1920 x 1080;2560 x 1440
H027;32;Mannelijk;Rechts;5;127;left;yes;350;undefined;null;true;focus;yes;1026846;Chrome;112.0;Windows;10;undefined;undefined;1920 x 1080;2560 x 1440
H027;32;Mannelijk;Rechts;5;128;right;no;400;rightarrow;303;true;focus;yes;1027903;Chrome;112.0;Windows;10;undefined;undefined;1920 x 1080;2560 x 1440
H027;32;Mannelijk;Rechts;6;1;right;no;400;rightarrow;467;true;focus;yes;1046607;Chrome;112.0;Windows;10;undefined;undefined;1920 x 1080;2560 x 1440
H027;32;Mannelijk;Rechts;6;2;right;yes;400;rightarrow;380;false;focus;yes;1047743;Chrome;112.0;Windows;10;undefined;undefined;1920 x 1080;2560 x 1440
H027;32;Mannelijk;Rechts;6;3;left;no;350;leftarrow;637;true;focus;yes;1049135;Chrome;112.0;Windows;10;undefined;undefined;1920 x 1080;2560 x 1440
H027;32;Mannelijk;Rechts;6;4;left;no;350;leftarrow;772;true;focus;yes;1050663;Chrome;112.0;Windows;10;undefined;undefined;1920 x 1080;2560 x 1440
H027;32;Mannelijk;Rechts;6;5;right;no;350;rightarrow;384;true;focus;yes;1051807;Chrome;112.0;Windows;10;undefined;undefined;1920 x 1080;2560 x 1440
H027;32;Mannelijk;Rechts;6;6;left;yes;350;leftarrow;396;false;focus;yes;1052959;Chrome;112.0;Windows;10;undefined;undefined;1920 x 1080;2560 x 1440
H027;32;Mannelijk;Rechts;6;7;left;no;300;leftarrow;934;true;focus;yes;1054655;Chrome;112.0;Windows;10;undefined;undefined;1920 x 1080;2560 x 1440
H027;32;Mannelijk;Rechts;6;8;right;no;300;rightarrow;357;true;focus;yes;1055767;Chrome;112.0;Windows;10;undefined;undefined;1920 x 1080;2560 x 1440
H027;32;Mannelijk;Rechts;6;9;right;no;300;rightarrow;325;true;focus;yes;1056847;Chrome;112.0;Windows;10;undefined;undefined;1920 x 1080;2560 x 1440
H027;32;Mannelijk;Rechts;6;10;right;yes;300;rightarrow;325;false;focus;yes;1057927;Chrome;112.0;Windows;10;undefined;undefined;1920 x 1080;2560 x 1440
H027;32;Mannelijk;Rechts;6;11;left;no;250;leftarrow;517;true;focus;yes;1059199;Chrome;112.0;Windows;10;undefined;undefined;1920 x 1080;2560 x 1440
H027;32;Mannelijk;Rechts;6;12;right;no;250;rightarrow;477;true;focus;yes;1060431;Chrome;112.0;Windows;10;undefined;undefined;1920 x 1080;2560 x 1440
H027;32;Mannelijk;Rechts;6;13;right;no;250;rightarrow;356;true;focus;yes;1061543;Chrome;112.0;Windows;10;undefined;undefined;1920 x 1080;2560 x 1440
H027;32;Mannelijk;Rechts;6;14;left;no;250;leftarrow;455;true;focus;yes;1062767;Chrome;112.0;Windows;10;undefined;undefined;1920 x 1080;2560 x 1440
H027;32;Mannelijk;Rechts;6;15;left;yes;250;leftarrow;365;false;focus;yes;1063887;Chrome;112.0;Windows;10;undefined;undefined;1920 x 1080;2560 x 1440
H027;32;Mannelijk;Rechts;6;16;left;no;200;leftarrow;621;true;focus;yes;1065263;Chrome;112.0;Windows;10;undefined;undefined;1920 x 1080;2560 x 1440
H027;32;Mannelijk;Rechts;6;17;right;yes;200;undefined;null;true;focus;yes;1067270;Chrome;112.0;Windows;10;undefined;undefined;1920 x 1080;2560 x 1440
H027;32;Mannelijk;Rechts;6;18;right;no;250;rightarrow;374;true;focus;yes;1068399;Chrome;112.0;Windows;10;undefined;undefined;1920 x 1080;2560 x 1440
H027;32;Mannelijk;Rechts;6;19;left;no;250;leftarrow;365;true;focus;yes;1069519;Chrome;112.0;Windows;10;undefined;undefined;1920 x 1080;2560 x 1440
H027;32;Mannelijk;Rechts;6;20;left;no;250;leftarrow;429;true;focus;yes;1070703;Chrome;112.0;Windows;10;undefined;undefined;1920 x 1080;2560 x 1440
H027;32;Mannelijk;Rechts;6;21;left;yes;250;leftarrow;373;false;focus;yes;1071831;Chrome;112.0;Windows;10;undefined;undefined;1920 x 1080;2560 x 1440
H027;32;Mannelijk;Rechts;6;22;right;no;200;rightarrow;629;true;focus;yes;1073215;Chrome;112.0;Windows;10;undefined;undefined;1920 x 1080;2560 x 1440
H027;32;Mannelijk;Rechts;6;23;left;no;200;leftarrow;580;true;focus;yes;1074551;Chrome;112.0;Windows;10;undefined;undefined;1920 x 1080;2560 x 1440
H027;32;Mannelijk;Rechts;6;24;right;no;200;rightarrow;797;true;focus;yes;1076103;Chrome;112.0;Windows;10;undefined;undefined;1920 x 1080;2560 x 1440
