participantID;age;gender;handedness;block_i;trial_i;stim;signal;SSD;response;rt;correct;focus;Fullscreen;time_elapsed;browser_name;browser_version;os_name;os_version;tablet;mobile;screen_resolution;window_resolution
H020;22;Mannelijk;Rechts;0;1;right;no;200;rightarrow;443;true;focus;yes;81661;Chrome;112.0;Windows;10;undefined;undefined;2048 x 1152;2048 x 1152
H020;22;Mannelijk;Rechts;0;2;left;no;200;leftarrow;358;true;focus;yes;83556;Chrome;112.0;Windows;10;undefined;undefined;2048 x 1152;2048 x 1152
H020;22;Mannelijk;Rechts;0;3;right;yes;200;rightarrow;286;false;focus;yes;85379;Chrome;112.0;Windows;10;undefined;undefined;2048 x 1152;2048 x 1152
H020;22;Mannelijk;Rechts;0;4;left;no;150;leftarrow;193;true;focus;yes;87105;Chrome;112.0;Windows;10;undefined;undefined;2048 x 1152;2048 x 1152
H020;22;Mannelijk;Rechts;0;5;left;no;150;rightarrow;204;false;focus;yes;88840;Chrome;112.0;Windows;10;undefined;undefined;2048 x 1152;2048 x 1152
H020;22;Mannelijk;Rechts;0;6;left;yes;150;leftarrow;324;false;focus;yes;90692;Chrome;112.0;Windows;10;undefined;undefined;2048 x 1152;2048 x 1152
H020;22;Mannelijk;Rechts;0;7;right;no;100;rightarrow;300;true;focus;yes;92530;Chrome;112.0;Windows;10;undefined;undefined;2048 x 1152;2048 x 1152
H020;22;Mannelijk;Rechts;0;8;right;no;100;leftarrow;347;false;focus;yes;94404;Chrome;112.0;Windows;10;undefined;undefined;2048 x 1152;2048 x 1152
H020;22;Mannelijk;Rechts;1;1;right;no;100;rightarrow;202;true;focus;yes;115010;Chrome;112.0;Windows;10;undefined;undefined;2048 x 1152;2048 x 1152
H020;22;Mannelijk;Rechts;1;2;left;no;100;leftarrow;288;true;focus;yes;116073;Chrome;112.0;Windows;10;undefined;undefined;2048 x 1152;2048 x 1152
H020;22;Mannelijk;Rechts;1;3;left;no;100;rightarrow;205;false;focus;yes;117046;Chrome;112.0;Windows;10;undefined;undefined;2048 x 1152;2048 x 1152
H020;22;Mannelijk;Rechts;1;4;left;no;100;leftarrow;247;true;focus;yes;118067;Chrome;112.0;Windows;10;undefined;undefined;2048 x 1152;2048 x 1152
H020;22;Mannelijk;Rechts;1;5;right;yes;100;rightarrow;231;false;focus;yes;119074;Chrome;112.0;Windows;10;undefined;undefined;2048 x 1152;2048 x 1152
H020;22;Mannelijk;Rechts;1;6;right;no;50;leftarrow;222;false;focus;yes;120073;Chrome;112.0;Windows;10;undefined;undefined;2048 x 1152;2048 x 1152
H020;22;Mannelijk;Rechts;1;7;left;yes;50;leftarrow;315;false;focus;yes;121158;Chrome;112.0;Windows;10;undefined;undefined;2048 x 1152;2048 x 1152
H020;22;Mannelijk;Rechts;1;8;right;no;50;rightarrow;241;true;focus;yes;122170;Chrome;112.0;Windows;10;undefined;undefined;2048 x 1152;2048 x 1152
H020;22;Mannelijk;Rechts;1;9;left;no;50;leftarrow;216;true;focus;yes;123160;Chrome;112.0;Windows;10;undefined;undefined;2048 x 1152;2048 x 1152
H020;22;Mannelijk;Rechts;1;10;right;no;50;undefined;null;false;focus;yes;125179;Chrome;112.0;Windows;10;undefined;undefined;2048 x 1152;2048 x 1152
H020;22;Mannelijk;Rechts;1;11;left;no;50;leftarrow;289;true;focus;yes;126231;Chrome;112.0;Windows;10;undefined;undefined;2048 x 1152;2048 x 1152
H020;22;Mannelijk;Rechts;1;12;right;no;50;rightarrow;223;true;focus;yes;127225;Chrome;112.0;Windows;10;undefined;undefined;2048 x 1152;2048 x 1152
H020;22;Mannelijk;Rechts;1;13;right;yes;50;rightarrow;329;false;focus;yes;128317;Chrome;112.0;Windows;10;undefined;undefined;2048 x 1152;2048 x 1152
H020;22;Mannelijk;Rechts;1;14;left;no;50;leftarrow;319;true;focus;yes;129398;Chrome;112.0;Windows;10;undefined;undefined;2048 x 1152;2048 x 1152
H020;22;Mannelijk;Rechts;1;15;right;no;50;rightarrow;190;true;focus;yes;130359;Chrome;112.0;Windows;10;undefined;undefined;2048 x 1152;2048 x 1152
H020;22;Mannelijk;Rechts;1;16;left;yes;50;leftarrow;223;false;focus;yes;131357;Chrome;112.0;Windows;10;undefined;undefined;2048 x 1152;2048 x 1152
H020;22;Mannelijk;Rechts;1;17;left;no;50;rightarrow;211;false;focus;yes;132340;Chrome;112.0;Windows;10;undefined;undefined;2048 x 1152;2048 x 1152
H020;22;Mannelijk;Rechts;1;18;left;yes;50;leftarrow;298;false;focus;yes;133414;Chrome;112.0;Windows;10;undefined;undefined;2048 x 1152;2048 x 1152
H020;22;Mannelijk;Rechts;1;19;right;no;50;rightarrow;257;true;focus;yes;134442;Chrome;112.0;Windows;10;undefined;undefined;2048 x 1152;2048 x 1152
H020;22;Mannelijk;Rechts;1;20;right;yes;50;rightarrow;291;false;focus;yes;135506;Chrome;112.0;Windows;10;undefined;undefined;2048 x 1152;2048 x 1152
H020;22;Mannelijk;Rechts;1;21;right;no;50;leftarrow;245;false;focus;yes;136523;Chrome;112.0;Windows;10;undefined;undefined;2048 x 1152;2048 x 1152
H020;22;Mannelijk;Rechts;1;22;left;no;50;leftarrow;305;true;focus;yes;137605;Chrome;112.0;Windows;10;undefined;undefined;2048 x 1152;2048 x 1152
H020;22;Mannelijk;Rechts;1;23;right;no;50;rightarrow;291;true;focus;yes;138649;Chrome;112.0;Windows;10;undefined;undefined;2048 x 1152;2048 x 1152
H020;22;Mannelijk;Rechts;1;24;left;no;50;leftarrow;221;true;focus;yes;139624;Chrome;112.0;Windows;10;undefined;undefined;2048 x 1152;2048 x 1152
H020;22;Mannelijk;Rechts;1;25;right;no;50;rightarrow;164;true;focus;yes;140557;Chrome;112.0;Windows;10;undefined;undefined;2048 x 1152;2048 x 1152
H020;22;Mannelijk;Rechts;1;26;left;no;50;rightarrow;211;false;focus;yes;141547;Chrome;112.0;Windows;10;undefined;undefined;2048 x 1152;2048 x 1152
H020;22;Mannelijk;Rechts;1;27;left;yes;50;leftarrow;332;false;focus;yes;142648;Chrome;112.0;Windows;10;undefined;undefined;2048 x 1152;2048 x 1152
H020;22;Mannelijk;Rechts;1;28;right;no;50;rightarrow;231;true;focus;yes;143652;Chrome;112.0;Windows;10;undefined;undefined;2048 x 1152;2048 x 1152
H020;22;Mannelijk;Rechts;1;29;left;no;50;leftarrow;237;true;focus;yes;144664;Chrome;112.0;Windows;10;undefined;undefined;2048 x 1152;2048 x 1152
H020;22;Mannelijk;Rechts;1;30;right;no;50;rightarrow;208;true;focus;yes;145648;Chrome;112.0;Windows;10;undefined;undefined;2048 x 1152;2048 x 1152
H020;22;Mannelijk;Rechts;1;31;right;yes;50;leftarrow;225;false;focus;yes;146650;Chrome;112.0;Windows;10;undefined;undefined;2048 x 1152;2048 x 1152
H020;22;Mannelijk;Rechts;1;32;left;no;50;rightarrow;237;false;focus;yes;147653;Chrome;112.0;Windows;10;undefined;undefined;2048 x 1152;2048 x 1152
H020;22;Mannelijk;Rechts;1;33;left;no;50;leftarrow;306;true;focus;yes;148727;Chrome;112.0;Windows;10;undefined;undefined;2048 x 1152;2048 x 1152
H020;22;Mannelijk;Rechts;1;34;right;no;50;rightarrow;314;true;focus;yes;149809;Chrome;112.0;Windows;10;undefined;undefined;2048 x 1152;2048 x 1152
H020;22;Mannelijk;Rechts;1;35;right;no;50;leftarrow;297;false;focus;yes;150871;Chrome;112.0;Windows;10;undefined;undefined;2048 x 1152;2048 x 1152
H020;22;Mannelijk;Rechts;1;36;left;yes;50;leftarrow;321;false;focus;yes;151960;Chrome;112.0;Windows;10;undefined;undefined;2048 x 1152;2048 x 1152
H020;22;Mannelijk;Rechts;1;37;right;yes;50;rightarrow;266;false;focus;yes;152995;Chrome;112.0;Windows;10;undefined;undefined;2048 x 1152;2048 x 1152
H020;22;Mannelijk;Rechts;1;38;left;no;50;leftarrow;269;true;focus;yes;154034;Chrome;112.0;Windows;10;undefined;undefined;2048 x 1152;2048 x 1152
H020;22;Mannelijk;Rechts;1;39;left;no;50;leftarrow;355;true;focus;yes;155154;Chrome;112.0;Windows;10;undefined;undefined;2048 x 1152;2048 x 1152
H020;22;Mannelijk;Rechts;1;40;right;no;50;rightarrow;291;true;focus;yes;156211;Chrome;112.0;Windows;10;undefined;undefined;2048 x 1152;2048 x 1152
H020;22;Mannelijk;Rechts;1;41;left;no;50;leftarrow;235;true;focus;yes;157220;Chrome;112.0;Windows;10;undefined;undefined;2048 x 1152;2048 x 1152
H020;22;Mannelijk;Rechts;1;42;right;no;50;rightarrow;232;true;focus;yes;158226;Chrome;112.0;Windows;10;undefined;undefined;2048 x 1152;2048 x 1152
H020;22;Mannelijk;Rechts;1;43;right;yes;50;leftarrow;235;false;focus;yes;159239;Chrome;112.0;Windows;10;undefined;undefined;2048 x 1152;2048 x 1152
H020;22;Mannelijk;Rechts;1;44;left;no;50;leftarrow;308;true;focus;yes;160314;Chrome;112.0;Windows;10;undefined;undefined;2048 x 1152;2048 x 1152
H020;22;Mannelijk;Rechts;1;45;left;yes;50;leftarrow;424;false;focus;yes;161501;Chrome;112.0;Windows;10;undefined;undefined;2048 x 1152;2048 x 1152
H020;22;Mannelijk;Rechts;1;46;right;no;50;rightarrow;265;true;focus;yes;162525;Chrome;112.0;Windows;10;undefined;undefined;2048 x 1152;2048 x 1152
H020;22;Mannelijk;Rechts;1;47;right;no;50;leftarrow;237;false;focus;yes;163526;Chrome;112.0;Windows;10;undefined;undefined;2048 x 1152;2048 x 1152
H020;22;Mannelijk;Rechts;1;48;left;no;50;leftarrow;330;true;focus;yes;164620;Chrome;112.0;Windows;10;undefined;undefined;2048 x 1152;2048 x 1152
H020;22;Mannelijk;Rechts;1;49;right;yes;50;rightarrow;228;false;focus;yes;165625;Chrome;112.0;Windows;10;undefined;undefined;2048 x 1152;2048 x 1152
H020;22;Mannelijk;Rechts;1;50;left;no;50;leftarrow;296;true;focus;yes;166693;Chrome;112.0;Windows;10;undefined;undefined;2048 x 1152;2048 x 1152
H020;22;Mannelijk;Rechts;1;51;right;no;50;rightarrow;242;true;focus;yes;167708;Chrome;112.0;Windows;10;undefined;undefined;2048 x 1152;2048 x 1152
H020;22;Mannelijk;Rechts;1;52;left;no;50;leftarrow;321;true;focus;yes;168794;Chrome;112.0;Windows;10;undefined;undefined;2048 x 1152;2048 x 1152
H020;22;Mannelijk;Rechts;1;53;left;no;50;rightarrow;281;false;focus;yes;169840;Chrome;112.0;Windows;10;undefined;undefined;2048 x 1152;2048 x 1152
H020;22;Mannelijk;Rechts;1;54;right;no;50;rightarrow;329;true;focus;yes;170934;Chrome;112.0;Windows;10;undefined;undefined;2048 x 1152;2048 x 1152
H020;22;Mannelijk;Rechts;1;55;left;yes;50;leftarrow;368;false;focus;yes;172063;Chrome;112.0;Windows;10;undefined;undefined;2048 x 1152;2048 x 1152
H020;22;Mannelijk;Rechts;1;56;right;no;50;rightarrow;256;true;focus;yes;173096;Chrome;112.0;Windows;10;undefined;undefined;2048 x 1152;2048 x 1152
H020;22;Mannelijk;Rechts;1;57;right;no;50;rightarrow;290;true;focus;yes;174155;Chrome;112.0;Windows;10;undefined;undefined;2048 x 1152;2048 x 1152
H020;22;Mannelijk;Rechts;1;58;left;no;50;leftarrow;296;true;focus;yes;175219;Chrome;112.0;Windows;10;undefined;undefined;2048 x 1152;2048 x 1152
H020;22;Mannelijk;Rechts;1;59;right;yes;50;rightarrow;226;false;focus;yes;176221;Chrome;112.0;Windows;10;undefined;undefined;2048 x 1152;2048 x 1152
H020;22;Mannelijk;Rechts;1;60;right;no;50;rightarrow;296;true;focus;yes;177297;Chrome;112.0;Windows;10;undefined;undefined;2048 x 1152;2048 x 1152
H020;22;Mannelijk;Rechts;1;61;right;no;50;rightarrow;280;true;focus;yes;178340;Chrome;112.0;Windows;10;undefined;undefined;2048 x 1152;2048 x 1152
H020;22;Mannelijk;Rechts;1;62;left;no;50;leftarrow;331;true;focus;yes;179436;Chrome;112.0;Windows;10;undefined;undefined;2048 x 1152;2048 x 1152
H020;22;Mannelijk;Rechts;1;63;left;yes;50;rightarrow;217;false;focus;yes;180424;Chrome;112.0;Windows;10;undefined;undefined;2048 x 1152;2048 x 1152
H020;22;Mannelijk;Rechts;1;64;left;no;50;leftarrow;338;true;focus;yes;181535;Chrome;112.0;Windows;10;undefined;undefined;2048 x 1152;2048 x 1152
H020;22;Mannelijk;Rechts;1;65;right;yes;50;rightarrow;307;false;focus;yes;182609;Chrome;112.0;Windows;10;undefined;undefined;2048 x 1152;2048 x 1152
H020;22;Mannelijk;Rechts;1;66;left;no;50;leftarrow;242;true;focus;yes;183620;Chrome;112.0;Windows;10;undefined;undefined;2048 x 1152;2048 x 1152
H020;22;Mannelijk;Rechts;1;67;left;yes;50;leftarrow;323;false;focus;yes;184706;Chrome;112.0;Windows;10;undefined;undefined;2048 x 1152;2048 x 1152
H020;22;Mannelijk;Rechts;1;68;left;no;50;rightarrow;255;false;focus;yes;185737;Chrome;112.0;Windows;10;undefined;undefined;2048 x 1152;2048 x 1152
H020;22;Mannelijk;Rechts;1;69;right;no;50;rightarrow;347;true;focus;yes;186857;Chrome;112.0;Windows;10;undefined;undefined;2048 x 1152;2048 x 1152
H020;22;Mannelijk;Rechts;1;70;left;no;50;leftarrow;299;true;focus;yes;187927;Chrome;112.0;Windows;10;undefined;undefined;2048 x 1152;2048 x 1152
H020;22;Mannelijk;Rechts;1;71;right;no;50;rightarrow;323;true;focus;yes;189029;Chrome;112.0;Windows;10;undefined;undefined;2048 x 1152;2048 x 1152
H020;22;Mannelijk;Rechts;1;72;right;no;50;rightarrow;350;true;focus;yes;190157;Chrome;112.0;Windows;10;undefined;undefined;2048 x 1152;2048 x 1152
H020;22;Mannelijk;Rechts;1;73;left;no;50;leftarrow;316;true;focus;yes;191232;Chrome;112.0;Windows;10;undefined;undefined;2048 x 1152;2048 x 1152
H020;22;Mannelijk;Rechts;1;74;right;no;50;rightarrow;236;true;focus;yes;192239;Chrome;112.0;Windows;10;undefined;undefined;2048 x 1152;2048 x 1152
H020;22;Mannelijk;Rechts;1;75;left;no;50;leftarrow;318;true;focus;yes;193317;Chrome;112.0;Windows;10;undefined;undefined;2048 x 1152;2048 x 1152
H020;22;Mannelijk;Rechts;1;76;right;no;50;rightarrow;290;true;focus;yes;194385;Chrome;112.0;Windows;10;undefined;undefined;2048 x 1152;2048 x 1152
H020;22;Mannelijk;Rechts;1;77;right;no;50;rightarrow;316;true;focus;yes;195470;Chrome;112.0;Windows;10;undefined;undefined;2048 x 1152;2048 x 1152
H020;22;Mannelijk;Rechts;1;78;right;yes;50;rightarrow;333;false;focus;yes;196558;Chrome;112.0;Windows;10;undefined;undefined;2048 x 1152;2048 x 1152
H020;22;Mannelijk;Rechts;1;79;left;yes;50;rightarrow;242;false;focus;yes;197579;Chrome;112.0;Windows;10;undefined;undefined;2048 x 1152;2048 x 1152
H020;22;Mannelijk;Rechts;1;80;left;no;50;leftarrow;349;true;focus;yes;198691;Chrome;112.0;Windows;10;undefined;undefined;2048 x 1152;2048 x 1152
H020;22;Mannelijk;Rechts;1;81;right;no;50;rightarrow;352;true;focus;yes;199808;Chrome;112.0;Windows;10;undefined;undefined;2048 x 1152;2048 x 1152
H020;22;Mannelijk;Rechts;1;82;right;no;50;rightarrow;276;true;focus;yes;200860;Chrome;112.0;Windows;10;undefined;undefined;2048 x 1152;2048 x 1152
H020;22;Mannelijk;Rechts;1;83;left;yes;50;leftarrow;588;false;focus;yes;202224;Chrome;112.0;Windows;10;undefined;undefined;2048 x 1152;2048 x 1152
H020;22;Mannelijk;Rechts;1;84;left;no;50;rightarrow;232;false;focus;yes;203224;Chrome;112.0;Windows;10;undefined;undefined;2048 x 1152;2048 x 1152
H020;22;Mannelijk;Rechts;1;85;left;no;50;leftarrow;261;true;focus;yes;204258;Chrome;112.0;Windows;10;undefined;undefined;2048 x 1152;2048 x 1152
H020;22;Mannelijk;Rechts;1;86;right;no;50;rightarrow;219;true;focus;yes;205252;Chrome;112.0;Windows;10;undefined;undefined;2048 x 1152;2048 x 1152
H020;22;Mannelijk;Rechts;1;87;right;yes;50;rightarrow;264;false;focus;yes;206288;Chrome;112.0;Windows;10;undefined;undefined;2048 x 1152;2048 x 1152
H020;22;Mannelijk;Rechts;1;88;left;no;50;leftarrow;340;true;focus;yes;207403;Chrome;112.0;Windows;10;undefined;undefined;2048 x 1152;2048 x 1152
H020;22;Mannelijk;Rechts;1;89;right;yes;50;rightarrow;299;false;focus;yes;208467;Chrome;112.0;Windows;10;undefined;undefined;2048 x 1152;2048 x 1152
H020;22;Mannelijk;Rechts;1;90;right;no;50;leftarrow;243;false;focus;yes;209476;Chrome;112.0;Windows;10;undefined;undefined;2048 x 1152;2048 x 1152
H020;22;Mannelijk;Rechts;1;91;left;no;50;leftarrow;377;true;focus;yes;210627;Chrome;112.0;Windows;10;undefined;undefined;2048 x 1152;2048 x 1152
H020;22;Mannelijk;Rechts;1;92;left;no;50;leftarrow;308;true;focus;yes;211706;Chrome;112.0;Windows;10;undefined;undefined;2048 x 1152;2048 x 1152
H020;22;Mannelijk;Rechts;1;93;left;no;50;rightarrow;268;false;focus;yes;212740;Chrome;112.0;Windows;10;undefined;undefined;2048 x 1152;2048 x 1152
H020;22;Mannelijk;Rechts;1;94;right;no;50;rightarrow;439;true;focus;yes;213951;Chrome;112.0;Windows;10;undefined;undefined;2048 x 1152;2048 x 1152
H020;22;Mannelijk;Rechts;1;95;left;yes;50;leftarrow;337;false;focus;yes;215055;Chrome;112.0;Windows;10;undefined;undefined;2048 x 1152;2048 x 1152
H020;22;Mannelijk;Rechts;1;96;right;no;50;rightarrow;314;true;focus;yes;216136;Chrome;112.0;Windows;10;undefined;undefined;2048 x 1152;2048 x 1152
H020;22;Mannelijk;Rechts;1;97;right;no;50;rightarrow;346;true;focus;yes;217242;Chrome;112.0;Windows;10;undefined;undefined;2048 x 1152;2048 x 1152
H020;22;Mannelijk;Rechts;1;98;left;no;50;leftarrow;333;true;focus;yes;218330;Chrome;112.0;Windows;10;undefined;undefined;2048 x 1152;2048 x 1152
H020;22;Mannelijk;Rechts;1;99;left;no;50;leftarrow;318;true;focus;yes;219411;Chrome;112.0;Windows;10;undefined;undefined;2048 x 1152;2048 x 1152
H020;22;Mannelijk;Rechts;1;100;right;no;50;leftarrow;291;false;focus;yes;220469;Chrome;112.0;Windows;10;undefined;undefined;2048 x 1152;2048 x 1152
H020;22;Mannelijk;Rechts;1;101;right;yes;50;rightarrow;310;false;focus;yes;221557;Chrome;112.0;Windows;10;undefined;undefined;2048 x 1152;2048 x 1152
H020;22;Mannelijk;Rechts;1;102;left;yes;50;leftarrow;298;false;focus;yes;222625;Chrome;112.0;Windows;10;undefined;undefined;2048 x 1152;2048 x 1152
H020;22;Mannelijk;Rechts;1;103;left;no;50;leftarrow;344;true;focus;yes;223748;Chrome;112.0;Windows;10;undefined;undefined;2048 x 1152;2048 x 1152
H020;22;Mannelijk;Rechts;1;104;right;no;50;rightarrow;344;true;focus;yes;224857;Chrome;112.0;Windows;10;undefined;undefined;2048 x 1152;2048 x 1152
H020;22;Mannelijk;Rechts;1;105;left;yes;50;leftarrow;332;false;focus;yes;225955;Chrome;112.0;Windows;10;undefined;undefined;2048 x 1152;2048 x 1152
H020;22;Mannelijk;Rechts;1;106;right;yes;50;rightarrow;238;false;focus;yes;226956;Chrome;112.0;Windows;10;undefined;undefined;2048 x 1152;2048 x 1152
H020;22;Mannelijk;Rechts;1;107;left;no;50;leftarrow;320;true;focus;yes;228052;Chrome;112.0;Windows;10;undefined;undefined;2048 x 1152;2048 x 1152
H020;22;Mannelijk;Rechts;1;108;left;no;50;leftarrow;574;true;focus;yes;229401;Chrome;112.0;Windows;10;undefined;undefined;2048 x 1152;2048 x 1152
H020;22;Mannelijk;Rechts;1;109;right;no;50;rightarrow;285;true;focus;yes;230462;Chrome;112.0;Windows;10;undefined;undefined;2048 x 1152;2048 x 1152
H020;22;Mannelijk;Rechts;1;110;right;no;50;rightarrow;400;true;focus;yes;231627;Chrome;112.0;Windows;10;undefined;undefined;2048 x 1152;2048 x 1152
H020;22;Mannelijk;Rechts;1;111;right;no;50;rightarrow;629;true;focus;yes;233026;Chrome;112.0;Windows;10;undefined;undefined;2048 x 1152;2048 x 1152
H020;22;Mannelijk;Rechts;1;112;left;no;50;leftarrow;546;true;focus;yes;234343;Chrome;112.0;Windows;10;undefined;undefined;2048 x 1152;2048 x 1152
H020;22;Mannelijk;Rechts;1;113;right;no;50;rightarrow;233;true;focus;yes;235353;Chrome;112.0;Windows;10;undefined;undefined;2048 x 1152;2048 x 1152
H020;22;Mannelijk;Rechts;1;114;left;no;50;leftarrow;339;true;focus;yes;236464;Chrome;112.0;Windows;10;undefined;undefined;2048 x 1152;2048 x 1152
H020;22;Mannelijk;Rechts;1;115;right;no;50;rightarrow;279;true;focus;yes;237513;Chrome;112.0;Windows;10;undefined;undefined;2048 x 1152;2048 x 1152
H020;22;Mannelijk;Rechts;1;116;right;no;50;rightarrow;313;true;focus;yes;238600;Chrome;112.0;Windows;10;undefined;undefined;2048 x 1152;2048 x 1152
H020;22;Mannelijk;Rechts;1;117;left;no;50;leftarrow;335;true;focus;yes;239710;Chrome;112.0;Windows;10;undefined;undefined;2048 x 1152;2048 x 1152
H020;22;Mannelijk;Rechts;1;118;right;yes;50;rightarrow;286;false;focus;yes;240768;Chrome;112.0;Windows;10;undefined;undefined;2048 x 1152;2048 x 1152
H020;22;Mannelijk;Rechts;1;119;left;no;50;leftarrow;285;true;focus;yes;241824;Chrome;112.0;Windows;10;undefined;undefined;2048 x 1152;2048 x 1152
H020;22;Mannelijk;Rechts;1;120;left;yes;50;leftarrow;519;false;focus;yes;243104;Chrome;112.0;Windows;10;undefined;undefined;2048 x 1152;2048 x 1152
H020;22;Mannelijk;Rechts;1;121;left;yes;50;leftarrow;369;false;focus;yes;244228;Chrome;112.0;Windows;10;undefined;undefined;2048 x 1152;2048 x 1152
H020;22;Mannelijk;Rechts;1;122;right;yes;50;rightarrow;319;false;focus;yes;245321;Chrome;112.0;Windows;10;undefined;undefined;2048 x 1152;2048 x 1152
H020;22;Mannelijk;Rechts;1;123;right;no;50;undefined;null;false;focus;yes;247350;Chrome;112.0;Windows;10;undefined;undefined;2048 x 1152;2048 x 1152
H020;22;Mannelijk;Rechts;1;124;right;no;50;undefined;null;false;focus;yes;249384;Chrome;112.0;Windows;10;undefined;undefined;2048 x 1152;2048 x 1152
H020;22;Mannelijk;Rechts;1;125;left;no;50;leftarrow;482;true;focus;yes;250630;Chrome;112.0;Windows;10;undefined;undefined;2048 x 1152;2048 x 1152
H020;22;Mannelijk;Rechts;1;126;right;no;50;rightarrow;338;true;focus;yes;251727;Chrome;112.0;Windows;10;undefined;undefined;2048 x 1152;2048 x 1152
H020;22;Mannelijk;Rechts;1;127;left;no;50;leftarrow;291;true;focus;yes;252791;Chrome;112.0;Windows;10;undefined;undefined;2048 x 1152;2048 x 1152
H020;22;Mannelijk;Rechts;1;128;left;no;50;leftarrow;419;true;focus;yes;253984;Chrome;112.0;Windows;10;undefined;undefined;2048 x 1152;2048 x 1152
H020;22;Mannelijk;Rechts;2;1;left;no;50;leftarrow;314;true;focus;yes;280281;Chrome;112.0;Windows;10;undefined;undefined;2048 x 1152;2048 x 1152
H020;22;Mannelijk;Rechts;2;2;left;no;50;leftarrow;351;true;focus;yes;281403;Chrome;112.0;Windows;10;undefined;undefined;2048 x 1152;2048 x 1152
H020;22;Mannelijk;Rechts;2;3;right;no;50;rightarrow;235;true;focus;yes;282409;Chrome;112.0;Windows;10;undefined;undefined;2048 x 1152;2048 x 1152
H020;22;Mannelijk;Rechts;2;4;right;no;50;rightarrow;270;true;focus;yes;283447;Chrome;112.0;Windows;10;undefined;undefined;2048 x 1152;2048 x 1152
H020;22;Mannelijk;Rechts;2;5;right;yes;50;leftarrow;250;false;focus;yes;284476;Chrome;112.0;Windows;10;undefined;undefined;2048 x 1152;2048 x 1152
H020;22;Mannelijk;Rechts;2;6;right;no;50;rightarrow;300;true;focus;yes;285547;Chrome;112.0;Windows;10;undefined;undefined;2048 x 1152;2048 x 1152
H020;22;Mannelijk;Rechts;2;7;left;yes;50;leftarrow;332;false;focus;yes;286658;Chrome;112.0;Windows;10;undefined;undefined;2048 x 1152;2048 x 1152
H020;22;Mannelijk;Rechts;2;8;left;no;50;leftarrow;341;true;focus;yes;287779;Chrome;112.0;Windows;10;undefined;undefined;2048 x 1152;2048 x 1152
H020;22;Mannelijk;Rechts;2;9;right;no;50;rightarrow;333;true;focus;yes;288889;Chrome;112.0;Windows;10;undefined;undefined;2048 x 1152;2048 x 1152
H020;22;Mannelijk;Rechts;2;10;left;no;50;leftarrow;304;true;focus;yes;289971;Chrome;112.0;Windows;10;undefined;undefined;2048 x 1152;2048 x 1152
H020;22;Mannelijk;Rechts;2;11;left;no;50;leftarrow;354;true;focus;yes;291094;Chrome;112.0;Windows;10;undefined;undefined;2048 x 1152;2048 x 1152
H020;22;Mannelijk;Rechts;2;12;right;no;50;leftarrow;289;false;focus;yes;292157;Chrome;112.0;Windows;10;undefined;undefined;2048 x 1152;2048 x 1152
H020;22;Mannelijk;Rechts;2;13;left;no;50;leftarrow;357;true;focus;yes;293279;Chrome;112.0;Windows;10;undefined;undefined;2048 x 1152;2048 x 1152
H020;22;Mannelijk;Rechts;2;14;right;no;50;rightarrow;285;true;focus;yes;294341;Chrome;112.0;Windows;10;undefined;undefined;2048 x 1152;2048 x 1152
H020;22;Mannelijk;Rechts;2;15;left;yes;50;leftarrow;326;false;focus;yes;295437;Chrome;112.0;Windows;10;undefined;undefined;2048 x 1152;2048 x 1152
H020;22;Mannelijk;Rechts;2;16;right;yes;50;rightarrow;314;false;focus;yes;296521;Chrome;112.0;Windows;10;undefined;undefined;2048 x 1152;2048 x 1152
H020;22;Mannelijk;Rechts;2;17;right;no;50;leftarrow;261;false;focus;yes;297552;Chrome;112.0;Windows;10;undefined;undefined;2048 x 1152;2048 x 1152
H020;22;Mannelijk;Rechts;2;18;right;yes;50;rightarrow;278;false;focus;yes;298594;Chrome;112.0;Windows;10;undefined;undefined;2048 x 1152;2048 x 1152
H020;22;Mannelijk;Rechts;2;19;right;no;50;rightarrow;276;true;focus;yes;299632;Chrome;112.0;Windows;10;undefined;undefined;2048 x 1152;2048 x 1152
H020;22;Mannelijk;Rechts;2;20;left;no;50;leftarrow;342;true;focus;yes;300741;Chrome;112.0;Windows;10;undefined;undefined;2048 x 1152;2048 x 1152
H020;22;Mannelijk;Rechts;2;21;left;no;50;rightarrow;207;false;focus;yes;301722;Chrome;112.0;Windows;10;undefined;undefined;2048 x 1152;2048 x 1152
H020;22;Mannelijk;Rechts;2;22;left;no;50;leftarrow;269;true;focus;yes;302758;Chrome;112.0;Windows;10;undefined;undefined;2048 x 1152;2048 x 1152
H020;22;Mannelijk;Rechts;2;23;right;no;50;rightarrow;275;true;focus;yes;303788;Chrome;112.0;Windows;10;undefined;undefined;2048 x 1152;2048 x 1152
H020;22;Mannelijk;Rechts;2;24;left;yes;50;leftarrow;345;false;focus;yes;304901;Chrome;112.0;Windows;10;undefined;undefined;2048 x 1152;2048 x 1152
H020;22;Mannelijk;Rechts;2;25;right;no;50;rightarrow;290;true;focus;yes;305949;Chrome;112.0;Windows;10;undefined;undefined;2048 x 1152;2048 x 1152
H020;22;Mannelijk;Rechts;2;26;right;no;50;leftarrow;103;false;focus;yes;306812;Chrome;112.0;Windows;10;undefined;undefined;2048 x 1152;2048 x 1152
H020;22;Mannelijk;Rechts;2;27;right;yes;50;rightarrow;257;false;focus;yes;307839;Chrome;112.0;Windows;10;undefined;undefined;2048 x 1152;2048 x 1152
H020;22;Mannelijk;Rechts;2;28;left;no;50;leftarrow;440;true;focus;yes;309042;Chrome;112.0;Windows;10;undefined;undefined;2048 x 1152;2048 x 1152
H020;22;Mannelijk;Rechts;2;29;left;no;50;leftarrow;339;true;focus;yes;310147;Chrome;112.0;Windows;10;undefined;undefined;2048 x 1152;2048 x 1152
H020;22;Mannelijk;Rechts;2;30;left;yes;50;leftarrow;299;false;focus;yes;311219;Chrome;112.0;Windows;10;undefined;undefined;2048 x 1152;2048 x 1152
H020;22;Mannelijk;Rechts;2;31;right;no;50;rightarrow;330;true;focus;yes;312325;Chrome;112.0;Windows;10;undefined;undefined;2048 x 1152;2048 x 1152
H020;22;Mannelijk;Rechts;2;32;left;no;50;leftarrow;391;true;focus;yes;313491;Chrome;112.0;Windows;10;undefined;undefined;2048 x 1152;2048 x 1152
H020;22;Mannelijk;Rechts;2;33;right;no;50;rightarrow;392;true;focus;yes;314664;Chrome;112.0;Windows;10;undefined;undefined;2048 x 1152;2048 x 1152
H020;22;Mannelijk;Rechts;2;34;left;yes;50;leftarrow;320;false;focus;yes;315760;Chrome;112.0;Windows;10;undefined;undefined;2048 x 1152;2048 x 1152
H020;22;Mannelijk;Rechts;2;35;left;no;50;rightarrow;230;false;focus;yes;316763;Chrome;112.0;Windows;10;undefined;undefined;2048 x 1152;2048 x 1152
H020;22;Mannelijk;Rechts;2;36;right;yes;50;rightarrow;389;false;focus;yes;317916;Chrome;112.0;Windows;10;undefined;undefined;2048 x 1152;2048 x 1152
H020;22;Mannelijk;Rechts;2;37;right;no;50;rightarrow;365;true;focus;yes;319057;Chrome;112.0;Windows;10;undefined;undefined;2048 x 1152;2048 x 1152
H020;22;Mannelijk;Rechts;2;38;left;no;50;leftarrow;294;true;focus;yes;320114;Chrome;112.0;Windows;10;undefined;undefined;2048 x 1152;2048 x 1152
H020;22;Mannelijk;Rechts;2;39;right;no;50;undefined;null;false;focus;yes;322136;Chrome;112.0;Windows;10;undefined;undefined;2048 x 1152;2048 x 1152
H020;22;Mannelijk;Rechts;2;40;left;no;50;undefined;null;false;focus;yes;324166;Chrome;112.0;Windows;10;undefined;undefined;2048 x 1152;2048 x 1152
H020;22;Mannelijk;Rechts;2;41;left;yes;50;leftarrow;496;false;focus;yes;325430;Chrome;112.0;Windows;10;undefined;undefined;2048 x 1152;2048 x 1152
H020;22;Mannelijk;Rechts;2;42;left;no;50;undefined;null;false;focus;yes;327456;Chrome;112.0;Windows;10;undefined;undefined;2048 x 1152;2048 x 1152
H020;22;Mannelijk;Rechts;2;43;right;yes;50;rightarrow;366;false;focus;yes;328601;Chrome;112.0;Windows;10;undefined;undefined;2048 x 1152;2048 x 1152
H020;22;Mannelijk;Rechts;2;44;right;no;50;undefined;null;false;focus;yes;330613;Chrome;112.0;Windows;10;undefined;undefined;2048 x 1152;2048 x 1152
H020;22;Mannelijk;Rechts;2;45;left;no;50;undefined;null;false;focus;yes;332633;Chrome;112.0;Windows;10;undefined;undefined;2048 x 1152;2048 x 1152
H020;22;Mannelijk;Rechts;2;46;right;no;50;undefined;null;false;focus;yes;334675;Chrome;112.0;Windows;10;undefined;undefined;2048 x 1152;2048 x 1152
H020;22;Mannelijk;Rechts;2;47;left;no;50;undefined;null;false;focus;yes;336706;Chrome;112.0;Windows;10;undefined;undefined;2048 x 1152;2048 x 1152
H020;22;Mannelijk;Rechts;2;48;right;no;50;rightarrow;329;true;focus;yes;337813;Chrome;112.0;Windows;10;undefined;undefined;2048 x 1152;2048 x 1152
H020;22;Mannelijk;Rechts;2;49;left;no;50;leftarrow;354;true;focus;yes;338936;Chrome;112.0;Windows;10;undefined;undefined;2048 x 1152;2048 x 1152
H020;22;Mannelijk;Rechts;2;50;right;yes;50;rightarrow;314;false;focus;yes;340028;Chrome;112.0;Windows;10;undefined;undefined;2048 x 1152;2048 x 1152
H020;22;Mannelijk;Rechts;2;51;right;no;50;rightarrow;363;true;focus;yes;341167;Chrome;112.0;Windows;10;undefined;undefined;2048 x 1152;2048 x 1152
H020;22;Mannelijk;Rechts;2;52;right;no;50;rightarrow;327;true;focus;yes;342268;Chrome;112.0;Windows;10;undefined;undefined;2048 x 1152;2048 x 1152
H020;22;Mannelijk;Rechts;2;53;left;no;50;leftarrow;375;true;focus;yes;343409;Chrome;112.0;Windows;10;undefined;undefined;2048 x 1152;2048 x 1152
H020;22;Mannelijk;Rechts;2;54;left;yes;50;leftarrow;400;false;focus;yes;344580;Chrome;112.0;Windows;10;undefined;undefined;2048 x 1152;2048 x 1152
H020;22;Mannelijk;Rechts;2;55;left;no;50;rightarrow;284;false;focus;yes;345635;Chrome;112.0;Windows;10;undefined;undefined;2048 x 1152;2048 x 1152
H020;22;Mannelijk;Rechts;2;56;right;no;50;rightarrow;354;true;focus;yes;346756;Chrome;112.0;Windows;10;undefined;undefined;2048 x 1152;2048 x 1152
H020;22;Mannelijk;Rechts;2;57;right;no;50;rightarrow;430;true;focus;yes;347960;Chrome;112.0;Windows;10;undefined;undefined;2048 x 1152;2048 x 1152
H020;22;Mannelijk;Rechts;2;58;left;yes;50;undefined;null;true;focus;yes;350000;Chrome;112.0;Windows;10;undefined;undefined;2048 x 1152;2048 x 1152
H020;22;Mannelijk;Rechts;2;59;left;no;100;leftarrow;417;true;focus;yes;351195;Chrome;112.0;Windows;10;undefined;undefined;2048 x 1152;2048 x 1152
H020;22;Mannelijk;Rechts;2;60;left;no;100;leftarrow;312;true;focus;yes;352280;Chrome;112.0;Windows;10;undefined;undefined;2048 x 1152;2048 x 1152
H020;22;Mannelijk;Rechts;2;61;left;no;100;rightarrow;179;false;focus;yes;353238;Chrome;112.0;Windows;10;undefined;undefined;2048 x 1152;2048 x 1152
H020;22;Mannelijk;Rechts;2;62;right;yes;100;rightarrow;511;false;focus;yes;354528;Chrome;112.0;Windows;10;undefined;undefined;2048 x 1152;2048 x 1152
H020;22;Mannelijk;Rechts;2;63;right;no;50;leftarrow;325;false;focus;yes;355625;Chrome;112.0;Windows;10;undefined;undefined;2048 x 1152;2048 x 1152
H020;22;Mannelijk;Rechts;2;64;right;no;50;rightarrow;303;true;focus;yes;356700;Chrome;112.0;Windows;10;undefined;undefined;2048 x 1152;2048 x 1152
H020;22;Mannelijk;Rechts;2;65;right;no;50;leftarrow;375;false;focus;yes;357851;Chrome;112.0;Windows;10;undefined;undefined;2048 x 1152;2048 x 1152
H020;22;Mannelijk;Rechts;2;66;right;yes;50;undefined;null;true;focus;yes;359892;Chrome;112.0;Windows;10;undefined;undefined;2048 x 1152;2048 x 1152
H020;22;Mannelijk;Rechts;2;67;left;no;100;leftarrow;338;true;focus;yes;360994;Chrome;112.0;Windows;10;undefined;undefined;2048 x 1152;2048 x 1152
H020;22;Mannelijk;Rechts;2;68;left;no;100;leftarrow;307;true;focus;yes;362077;Chrome;112.0;Windows;10;undefined;undefined;2048 x 1152;2048 x 1152
H020;22;Mannelijk;Rechts;2;69;left;yes;100;undefined;null;true;focus;yes;364096;Chrome;112.0;Windows;10;undefined;undefined;2048 x 1152;2048 x 1152
H020;22;Mannelijk;Rechts;2;70;right;no;150;rightarrow;301;true;focus;yes;365151;Chrome;112.0;Windows;10;undefined;undefined;2048 x 1152;2048 x 1152
H020;22;Mannelijk;Rechts;2;71;left;no;150;leftarrow;368;true;focus;yes;366288;Chrome;112.0;Windows;10;undefined;undefined;2048 x 1152;2048 x 1152
H020;22;Mannelijk;Rechts;2;72;right;no;150;rightarrow;301;true;focus;yes;367366;Chrome;112.0;Windows;10;undefined;undefined;2048 x 1152;2048 x 1152
H020;22;Mannelijk;Rechts;2;73;left;no;150;leftarrow;371;true;focus;yes;368506;Chrome;112.0;Windows;10;undefined;undefined;2048 x 1152;2048 x 1152
H020;22;Mannelijk;Rechts;2;74;left;no;150;leftarrow;384;true;focus;yes;369663;Chrome;112.0;Windows;10;undefined;undefined;2048 x 1152;2048 x 1152
H020;22;Mannelijk;Rechts;2;75;right;no;150;rightarrow;354;true;focus;yes;370791;Chrome;112.0;Windows;10;undefined;undefined;2048 x 1152;2048 x 1152
H020;22;Mannelijk;Rechts;2;76;right;yes;150;rightarrow;375;false;focus;yes;371942;Chrome;112.0;Windows;10;undefined;undefined;2048 x 1152;2048 x 1152
H020;22;Mannelijk;Rechts;2;77;left;no;100;leftarrow;285;true;focus;yes;372996;Chrome;112.0;Windows;10;undefined;undefined;2048 x 1152;2048 x 1152
H020;22;Mannelijk;Rechts;2;78;right;no;100;rightarrow;298;true;focus;yes;374068;Chrome;112.0;Windows;10;undefined;undefined;2048 x 1152;2048 x 1152
H020;22;Mannelijk;Rechts;2;79;left;yes;100;leftarrow;370;false;focus;yes;375209;Chrome;112.0;Windows;10;undefined;undefined;2048 x 1152;2048 x 1152
H020;22;Mannelijk;Rechts;2;80;right;no;50;rightarrow;516;true;focus;yes;376505;Chrome;112.0;Windows;10;undefined;undefined;2048 x 1152;2048 x 1152
H020;22;Mannelijk;Rechts;2;81;left;no;50;leftarrow;446;true;focus;yes;377718;Chrome;112.0;Windows;10;undefined;undefined;2048 x 1152;2048 x 1152
H020;22;Mannelijk;Rechts;2;82;right;no;50;rightarrow;390;true;focus;yes;378886;Chrome;112.0;Windows;10;undefined;undefined;2048 x 1152;2048 x 1152
H020;22;Mannelijk;Rechts;2;83;right;yes;50;undefined;null;true;focus;yes;380922;Chrome;112.0;Windows;10;undefined;undefined;2048 x 1152;2048 x 1152
H020;22;Mannelijk;Rechts;2;84;left;no;100;leftarrow;366;true;focus;yes;382059;Chrome;112.0;Windows;10;undefined;undefined;2048 x 1152;2048 x 1152
H020;22;Mannelijk;Rechts;2;85;left;no;100;leftarrow;352;true;focus;yes;383183;Chrome;112.0;Windows;10;undefined;undefined;2048 x 1152;2048 x 1152
H020;22;Mannelijk;Rechts;2;86;right;no;100;rightarrow;546;true;focus;yes;384495;Chrome;112.0;Windows;10;undefined;undefined;2048 x 1152;2048 x 1152
H020;22;Mannelijk;Rechts;2;87;left;yes;100;undefined;null;true;focus;yes;386506;Chrome;112.0;Windows;10;undefined;undefined;2048 x 1152;2048 x 1152
H020;22;Mannelijk;Rechts;2;88;right;no;150;rightarrow;337;true;focus;yes;387606;Chrome;112.0;Windows;10;undefined;undefined;2048 x 1152;2048 x 1152
H020;22;Mannelijk;Rechts;2;89;left;no;150;leftarrow;300;true;focus;yes;388666;Chrome;112.0;Windows;10;undefined;undefined;2048 x 1152;2048 x 1152
H020;22;Mannelijk;Rechts;2;90;right;yes;150;rightarrow;318;false;focus;yes;389747;Chrome;112.0;Windows;10;undefined;undefined;2048 x 1152;2048 x 1152
H020;22;Mannelijk;Rechts;2;91;left;yes;100;undefined;null;true;focus;yes;391792;Chrome;112.0;Windows;10;undefined;undefined;2048 x 1152;2048 x 1152
H020;22;Mannelijk;Rechts;2;92;right;no;150;rightarrow;276;true;focus;yes;392831;Chrome;112.0;Windows;10;undefined;undefined;2048 x 1152;2048 x 1152
H020;22;Mannelijk;Rechts;2;93;left;no;150;leftarrow;319;true;focus;yes;393922;Chrome;112.0;Windows;10;undefined;undefined;2048 x 1152;2048 x 1152
H020;22;Mannelijk;Rechts;2;94;left;no;150;leftarrow;580;true;focus;yes;395277;Chrome;112.0;Windows;10;undefined;undefined;2048 x 1152;2048 x 1152
H020;22;Mannelijk;Rechts;2;95;right;no;150;rightarrow;261;true;focus;yes;396309;Chrome;112.0;Windows;10;undefined;undefined;2048 x 1152;2048 x 1152
H020;22;Mannelijk;Rechts;2;96;right;no;150;rightarrow;477;true;focus;yes;397548;Chrome;112.0;Windows;10;undefined;undefined;2048 x 1152;2048 x 1152
H020;22;Mannelijk;Rechts;2;97;left;yes;150;leftarrow;375;false;focus;yes;398688;Chrome;112.0;Windows;10;undefined;undefined;2048 x 1152;2048 x 1152
H020;22;Mannelijk;Rechts;2;98;left;no;100;leftarrow;462;true;focus;yes;399921;Chrome;112.0;Windows;10;undefined;undefined;2048 x 1152;2048 x 1152
H020;22;Mannelijk;Rechts;2;99;left;no;100;leftarrow;576;true;focus;yes;401257;Chrome;112.0;Windows;10;undefined;undefined;2048 x 1152;2048 x 1152
H020;22;Mannelijk;Rechts;2;100;right;no;100;rightarrow;375;true;focus;yes;402405;Chrome;112.0;Windows;10;undefined;undefined;2048 x 1152;2048 x 1152
H020;22;Mannelijk;Rechts;2;101;right;yes;100;rightarrow;372;false;focus;yes;403541;Chrome;112.0;Windows;10;undefined;undefined;2048 x 1152;2048 x 1152
H020;22;Mannelijk;Rechts;2;102;right;no;50;rightarrow;398;true;focus;yes;404705;Chrome;112.0;Windows;10;undefined;undefined;2048 x 1152;2048 x 1152
H020;22;Mannelijk;Rechts;2;103;right;no;50;rightarrow;336;true;focus;yes;405804;Chrome;112.0;Windows;10;undefined;undefined;2048 x 1152;2048 x 1152
H020;22;Mannelijk;Rechts;2;104;left;no;50;leftarrow;403;true;focus;yes;406968;Chrome;112.0;Windows;10;undefined;undefined;2048 x 1152;2048 x 1152
H020;22;Mannelijk;Rechts;2;105;right;yes;50;undefined;null;true;focus;yes;408991;Chrome;112.0;Windows;10;undefined;undefined;2048 x 1152;2048 x 1152
H020;22;Mannelijk;Rechts;2;108;right;no;100;leftarrow;357;false;focus;yes;412305;Chrome;112.0;Windows;10;undefined;undefined;2048 x 1152;2048 x 1152
H020;22;Mannelijk;Rechts;2;106;left;no;100;leftarrow;403;true;focus;yes;410163;Chrome;112.0;Windows;10;undefined;undefined;2048 x 1152;2048 x 1152
H020;22;Mannelijk;Rechts;2;107;right;no;100;rightarrow;261;true;focus;yes;411186;Chrome;112.0;Windows;10;undefined;undefined;2048 x 1152;2048 x 1152
H020;22;Mannelijk;Rechts;2;112;left;no;50;leftarrow;345;true;focus;yes;416662;Chrome;112.0;Windows;10;undefined;undefined;2048 x 1152;2048 x 1152
H020;22;Mannelijk;Rechts;2;113;right;no;50;rightarrow;384;true;focus;yes;417827;Chrome;112.0;Windows;10;undefined;undefined;2048 x 1152;2048 x 1152
H020;22;Mannelijk;Rechts;2;114;left;yes;50;undefined;null;true;focus;yes;419847;Chrome;112.0;Windows;10;undefined;undefined;2048 x 1152;2048 x 1152
H020;22;Mannelijk;Rechts;2;115;left;no;100;leftarrow;279;true;focus;yes;420887;Chrome;112.0;Windows;10;undefined;undefined;2048 x 1152;2048 x 1152
H020;22;Mannelijk;Rechts;2;116;left;no;100;leftarrow;522;true;focus;yes;422181;Chrome;112.0;Windows;10;undefined;undefined;2048 x 1152;2048 x 1152
H020;22;Mannelijk;Rechts;2;117;right;no;100;rightarrow;284;true;focus;yes;423227;Chrome;112.0;Windows;10;undefined;undefined;2048 x 1152;2048 x 1152
H020;22;Mannelijk;Rechts;2;110;left;no;50;rightarrow;194;false;focus;yes;414441;Chrome;112.0;Windows;10;undefined;undefined;2048 x 1152;2048 x 1152
H020;22;Mannelijk;Rechts;2;109;left;yes;100;leftarrow;388;false;focus;yes;413476;Chrome;112.0;Windows;10;undefined;undefined;2048 x 1152;2048 x 1152
H020;22;Mannelijk;Rechts;2;111;right;no;50;rightarrow;334;true;focus;yes;415541;Chrome;112.0;Windows;10;undefined;undefined;2048 x 1152;2048 x 1152
H020;22;Mannelijk;Rechts;2;118;right;yes;100;undefined;null;true;focus;yes;425249;Chrome;112.0;Windows;10;undefined;undefined;2048 x 1152;2048 x 1152
H020;22;Mannelijk;Rechts;2;119;left;no;150;leftarrow;319;true;focus;yes;426339;Chrome;112.0;Windows;10;undefined;undefined;2048 x 1152;2048 x 1152
H020;22;Mannelijk;Rechts;2;120;right;no;150;rightarrow;290;true;focus;yes;427393;Chrome;112.0;Windows;10;undefined;undefined;2048 x 1152;2048 x 1152
H020;22;Mannelijk;Rechts;2;121;right;yes;150;undefined;null;true;focus;yes;429418;Chrome;112.0;Windows;10;undefined;undefined;2048 x 1152;2048 x 1152
H020;22;Mannelijk;Rechts;2;122;left;yes;200;leftarrow;309;false;focus;yes;430487;Chrome;112.0;Windows;10;undefined;undefined;2048 x 1152;2048 x 1152
H020;22;Mannelijk;Rechts;2;123;left;no;150;leftarrow;438;true;focus;yes;431687;Chrome;112.0;Windows;10;undefined;undefined;2048 x 1152;2048 x 1152
H020;22;Mannelijk;Rechts;2;124;right;no;150;rightarrow;342;true;focus;yes;432795;Chrome;112.0;Windows;10;undefined;undefined;2048 x 1152;2048 x 1152
H020;22;Mannelijk;Rechts;2;125;right;no;150;rightarrow;309;true;focus;yes;433865;Chrome;112.0;Windows;10;undefined;undefined;2048 x 1152;2048 x 1152
H020;22;Mannelijk;Rechts;2;126;right;no;150;rightarrow;312;true;focus;yes;434940;Chrome;112.0;Windows;10;undefined;undefined;2048 x 1152;2048 x 1152
H020;22;Mannelijk;Rechts;2;127;left;no;150;rightarrow;225;false;focus;yes;435934;Chrome;112.0;Windows;10;undefined;undefined;2048 x 1152;2048 x 1152
H020;22;Mannelijk;Rechts;2;128;left;no;150;leftarrow;397;true;focus;yes;437094;Chrome;112.0;Windows;10;undefined;undefined;2048 x 1152;2048 x 1152
H020;22;Mannelijk;Rechts;3;1;right;no;150;rightarrow;382;true;focus;yes;456560;Chrome;112.0;Windows;10;undefined;undefined;2048 x 1152;2048 x 1152
H020;22;Mannelijk;Rechts;3;2;left;no;150;rightarrow;207;false;focus;yes;457533;Chrome;112.0;Windows;10;undefined;undefined;2048 x 1152;2048 x 1152
H020;22;Mannelijk;Rechts;3;3;right;no;150;rightarrow;361;true;focus;yes;458660;Chrome;112.0;Windows;10;undefined;undefined;2048 x 1152;2048 x 1152
H020;22;Mannelijk;Rechts;3;4;left;no;150;leftarrow;244;true;focus;yes;459672;Chrome;112.0;Windows;10;undefined;undefined;2048 x 1152;2048 x 1152
H020;22;Mannelijk;Rechts;3;5;left;no;150;leftarrow;342;true;focus;yes;460777;Chrome;112.0;Windows;10;undefined;undefined;2048 x 1152;2048 x 1152
H020;22;Mannelijk;Rechts;3;6;right;no;150;rightarrow;279;true;focus;yes;461827;Chrome;112.0;Windows;10;undefined;undefined;2048 x 1152;2048 x 1152
H020;22;Mannelijk;Rechts;3;7;left;yes;150;leftarrow;336;false;focus;yes;462924;Chrome;112.0;Windows;10;undefined;undefined;2048 x 1152;2048 x 1152
H020;22;Mannelijk;Rechts;3;8;right;yes;100;rightarrow;293;false;focus;yes;463979;Chrome;112.0;Windows;10;undefined;undefined;2048 x 1152;2048 x 1152
H020;22;Mannelijk;Rechts;3;9;right;yes;50;undefined;null;true;focus;yes;465997;Chrome;112.0;Windows;10;undefined;undefined;2048 x 1152;2048 x 1152
H020;22;Mannelijk;Rechts;3;10;right;no;100;rightarrow;295;true;focus;yes;467072;Chrome;112.0;Windows;10;undefined;undefined;2048 x 1152;2048 x 1152
H020;22;Mannelijk;Rechts;3;11;left;yes;100;leftarrow;390;false;focus;yes;468223;Chrome;112.0;Windows;10;undefined;undefined;2048 x 1152;2048 x 1152
H020;22;Mannelijk;Rechts;3;12;right;no;50;rightarrow;286;true;focus;yes;469275;Chrome;112.0;Windows;10;undefined;undefined;2048 x 1152;2048 x 1152
H020;22;Mannelijk;Rechts;3;13;left;no;50;leftarrow;315;true;focus;yes;470355;Chrome;112.0;Windows;10;undefined;undefined;2048 x 1152;2048 x 1152
H020;22;Mannelijk;Rechts;3;14;left;no;50;leftarrow;303;true;focus;yes;471428;Chrome;112.0;Windows;10;undefined;undefined;2048 x 1152;2048 x 1152
H020;22;Mannelijk;Rechts;3;15;left;no;50;leftarrow;290;true;focus;yes;472488;Chrome;112.0;Windows;10;undefined;undefined;2048 x 1152;2048 x 1152
H020;22;Mannelijk;Rechts;3;16;right;no;50;rightarrow;363;true;focus;yes;473623;Chrome;112.0;Windows;10;undefined;undefined;2048 x 1152;2048 x 1152
H020;22;Mannelijk;Rechts;3;17;left;no;50;leftarrow;289;true;focus;yes;474694;Chrome;112.0;Windows;10;undefined;undefined;2048 x 1152;2048 x 1152
H020;22;Mannelijk;Rechts;3;18;right;no;50;rightarrow;268;true;focus;yes;475722;Chrome;112.0;Windows;10;undefined;undefined;2048 x 1152;2048 x 1152
H020;22;Mannelijk;Rechts;3;19;left;no;50;leftarrow;350;true;focus;yes;476839;Chrome;112.0;Windows;10;undefined;undefined;2048 x 1152;2048 x 1152
H020;22;Mannelijk;Rechts;3;20;right;no;50;rightarrow;302;true;focus;yes;477922;Chrome;112.0;Windows;10;undefined;undefined;2048 x 1152;2048 x 1152
H020;22;Mannelijk;Rechts;3;21;right;no;50;rightarrow;370;true;focus;yes;479060;Chrome;112.0;Windows;10;undefined;undefined;2048 x 1152;2048 x 1152
H020;22;Mannelijk;Rechts;3;22;left;yes;50;leftarrow;273;false;focus;yes;480092;Chrome;112.0;Windows;10;undefined;undefined;2048 x 1152;2048 x 1152
H020;22;Mannelijk;Rechts;3;23;left;no;50;leftarrow;342;true;focus;yes;481207;Chrome;112.0;Windows;10;undefined;undefined;2048 x 1152;2048 x 1152
H020;22;Mannelijk;Rechts;3;24;right;yes;50;rightarrow;292;false;focus;yes;482268;Chrome;112.0;Windows;10;undefined;undefined;2048 x 1152;2048 x 1152
H020;22;Mannelijk;Rechts;3;25;right;yes;50;leftarrow;206;false;focus;yes;483253;Chrome;112.0;Windows;10;undefined;undefined;2048 x 1152;2048 x 1152
H020;22;Mannelijk;Rechts;3;26;right;no;50;rightarrow;340;true;focus;yes;484357;Chrome;112.0;Windows;10;undefined;undefined;2048 x 1152;2048 x 1152
H020;22;Mannelijk;Rechts;3;27;left;no;50;leftarrow;340;true;focus;yes;485469;Chrome;112.0;Windows;10;undefined;undefined;2048 x 1152;2048 x 1152
H020;22;Mannelijk;Rechts;3;28;left;yes;50;undefined;null;true;focus;yes;487496;Chrome;112.0;Windows;10;undefined;undefined;2048 x 1152;2048 x 1152
H020;22;Mannelijk;Rechts;3;29;right;no;100;rightarrow;358;true;focus;yes;488620;Chrome;112.0;Windows;10;undefined;undefined;2048 x 1152;2048 x 1152
H020;22;Mannelijk;Rechts;3;30;left;no;100;leftarrow;350;true;focus;yes;489750;Chrome;112.0;Windows;10;undefined;undefined;2048 x 1152;2048 x 1152
H020;22;Mannelijk;Rechts;3;31;left;no;100;leftarrow;387;true;focus;yes;490898;Chrome;112.0;Windows;10;undefined;undefined;2048 x 1152;2048 x 1152
H020;22;Mannelijk;Rechts;3;32;right;no;100;rightarrow;322;true;focus;yes;491994;Chrome;112.0;Windows;10;undefined;undefined;2048 x 1152;2048 x 1152
H020;22;Mannelijk;Rechts;3;33;left;no;100;leftarrow;364;true;focus;yes;493120;Chrome;112.0;Windows;10;undefined;undefined;2048 x 1152;2048 x 1152
H020;22;Mannelijk;Rechts;3;34;left;no;100;leftarrow;327;true;focus;yes;494228;Chrome;112.0;Windows;10;undefined;undefined;2048 x 1152;2048 x 1152
H020;22;Mannelijk;Rechts;3;35;right;no;100;rightarrow;331;true;focus;yes;495330;Chrome;112.0;Windows;10;undefined;undefined;2048 x 1152;2048 x 1152
H020;22;Mannelijk;Rechts;3;36;right;no;100;rightarrow;337;true;focus;yes;496433;Chrome;112.0;Windows;10;undefined;undefined;2048 x 1152;2048 x 1152
H020;22;Mannelijk;Rechts;3;37;right;yes;100;undefined;null;true;focus;yes;498478;Chrome;112.0;Windows;10;undefined;undefined;2048 x 1152;2048 x 1152
H020;22;Mannelijk;Rechts;3;38;right;no;150;rightarrow;319;true;focus;yes;499568;Chrome;112.0;Windows;10;undefined;undefined;2048 x 1152;2048 x 1152
H020;22;Mannelijk;Rechts;3;39;left;no;150;leftarrow;299;true;focus;yes;500645;Chrome;112.0;Windows;10;undefined;undefined;2048 x 1152;2048 x 1152
H020;22;Mannelijk;Rechts;3;40;left;yes;150;rightarrow;302;false;focus;yes;501718;Chrome;112.0;Windows;10;undefined;undefined;2048 x 1152;2048 x 1152
H020;22;Mannelijk;Rechts;3;41;left;yes;100;leftarrow;354;false;focus;yes;502854;Chrome;112.0;Windows;10;undefined;undefined;2048 x 1152;2048 x 1152
H020;22;Mannelijk;Rechts;3;42;left;no;50;leftarrow;342;true;focus;yes;503959;Chrome;112.0;Windows;10;undefined;undefined;2048 x 1152;2048 x 1152
H020;22;Mannelijk;Rechts;3;43;left;no;50;leftarrow;414;true;focus;yes;505137;Chrome;112.0;Windows;10;undefined;undefined;2048 x 1152;2048 x 1152
H020;22;Mannelijk;Rechts;3;44;left;no;50;leftarrow;295;true;focus;yes;506205;Chrome;112.0;Windows;10;undefined;undefined;2048 x 1152;2048 x 1152
H020;22;Mannelijk;Rechts;3;45;right;no;50;rightarrow;312;true;focus;yes;507277;Chrome;112.0;Windows;10;undefined;undefined;2048 x 1152;2048 x 1152
H020;22;Mannelijk;Rechts;3;46;right;no;50;rightarrow;261;true;focus;yes;508304;Chrome;112.0;Windows;10;undefined;undefined;2048 x 1152;2048 x 1152
H020;22;Mannelijk;Rechts;3;47;right;no;50;rightarrow;314;true;focus;yes;509399;Chrome;112.0;Windows;10;undefined;undefined;2048 x 1152;2048 x 1152
H020;22;Mannelijk;Rechts;3;48;right;yes;50;undefined;null;true;focus;yes;511439;Chrome;112.0;Windows;10;undefined;undefined;2048 x 1152;2048 x 1152
H020;22;Mannelijk;Rechts;3;49;left;no;100;leftarrow;361;true;focus;yes;512565;Chrome;112.0;Windows;10;undefined;undefined;2048 x 1152;2048 x 1152
H020;22;Mannelijk;Rechts;3;50;left;yes;100;leftarrow;372;false;focus;yes;513699;Chrome;112.0;Windows;10;undefined;undefined;2048 x 1152;2048 x 1152
H020;22;Mannelijk;Rechts;3;51;left;no;50;leftarrow;631;true;focus;yes;515113;Chrome;112.0;Windows;10;undefined;undefined;2048 x 1152;2048 x 1152
H020;22;Mannelijk;Rechts;3;52;right;yes;50;rightarrow;315;false;focus;yes;516192;Chrome;112.0;Windows;10;undefined;undefined;2048 x 1152;2048 x 1152
H020;22;Mannelijk;Rechts;3;53;right;no;50;rightarrow;427;true;focus;yes;517380;Chrome;112.0;Windows;10;undefined;undefined;2048 x 1152;2048 x 1152
H020;22;Mannelijk;Rechts;3;54;right;no;50;leftarrow;254;false;focus;yes;518396;Chrome;112.0;Windows;10;undefined;undefined;2048 x 1152;2048 x 1152
H020;22;Mannelijk;Rechts;3;55;right;no;50;rightarrow;294;true;focus;yes;519458;Chrome;112.0;Windows;10;undefined;undefined;2048 x 1152;2048 x 1152
H020;22;Mannelijk;Rechts;3;56;left;no;50;leftarrow;395;true;focus;yes;520628;Chrome;112.0;Windows;10;undefined;undefined;2048 x 1152;2048 x 1152
H020;22;Mannelijk;Rechts;3;57;right;yes;50;undefined;null;true;focus;yes;522654;Chrome;112.0;Windows;10;undefined;undefined;2048 x 1152;2048 x 1152
H020;22;Mannelijk;Rechts;3;58;right;no;100;rightarrow;343;true;focus;yes;523777;Chrome;112.0;Windows;10;undefined;undefined;2048 x 1152;2048 x 1152
H020;22;Mannelijk;Rechts;3;59;left;yes;100;leftarrow;360;false;focus;yes;524898;Chrome;112.0;Windows;10;undefined;undefined;2048 x 1152;2048 x 1152
H020;22;Mannelijk;Rechts;3;60;left;no;50;leftarrow;502;true;focus;yes;526171;Chrome;112.0;Windows;10;undefined;undefined;2048 x 1152;2048 x 1152
H020;22;Mannelijk;Rechts;3;61;right;no;50;rightarrow;319;true;focus;yes;527267;Chrome;112.0;Windows;10;undefined;undefined;2048 x 1152;2048 x 1152
H020;22;Mannelijk;Rechts;3;62;left;no;50;leftarrow;334;true;focus;yes;528366;Chrome;112.0;Windows;10;undefined;undefined;2048 x 1152;2048 x 1152
H020;22;Mannelijk;Rechts;3;63;left;no;50;rightarrow;276;false;focus;yes;529413;Chrome;112.0;Windows;10;undefined;undefined;2048 x 1152;2048 x 1152
H020;22;Mannelijk;Rechts;3;64;right;no;50;rightarrow;324;true;focus;yes;530510;Chrome;112.0;Windows;10;undefined;undefined;2048 x 1152;2048 x 1152
H020;22;Mannelijk;Rechts;3;65;left;no;50;leftarrow;620;true;focus;yes;531909;Chrome;112.0;Windows;10;undefined;undefined;2048 x 1152;2048 x 1152
H020;22;Mannelijk;Rechts;3;66;right;no;50;rightarrow;251;true;focus;yes;532922;Chrome;112.0;Windows;10;undefined;undefined;2048 x 1152;2048 x 1152
H020;22;Mannelijk;Rechts;3;67;right;yes;50;undefined;null;true;focus;yes;534941;Chrome;112.0;Windows;10;undefined;undefined;2048 x 1152;2048 x 1152
H020;22;Mannelijk;Rechts;3;68;left;no;100;leftarrow;300;true;focus;yes;536014;Chrome;112.0;Windows;10;undefined;undefined;2048 x 1152;2048 x 1152
H020;22;Mannelijk;Rechts;3;69;right;no;100;rightarrow;267;true;focus;yes;537044;Chrome;112.0;Windows;10;undefined;undefined;2048 x 1152;2048 x 1152
H020;22;Mannelijk;Rechts;3;70;left;no;100;leftarrow;258;true;focus;yes;538069;Chrome;112.0;Windows;10;undefined;undefined;2048 x 1152;2048 x 1152
H020;22;Mannelijk;Rechts;3;71;left;yes;100;rightarrow;236;false;focus;yes;539069;Chrome;112.0;Windows;10;undefined;undefined;2048 x 1152;2048 x 1152
H020;22;Mannelijk;Rechts;3;72;right;no;50;rightarrow;276;true;focus;yes;540124;Chrome;112.0;Windows;10;undefined;undefined;2048 x 1152;2048 x 1152
H020;22;Mannelijk;Rechts;3;73;right;no;50;rightarrow;250;true;focus;yes;541139;Chrome;112.0;Windows;10;undefined;undefined;2048 x 1152;2048 x 1152
H020;22;Mannelijk;Rechts;3;74;right;yes;50;undefined;null;true;focus;yes;543168;Chrome;112.0;Windows;10;undefined;undefined;2048 x 1152;2048 x 1152
H020;22;Mannelijk;Rechts;3;75;right;no;100;rightarrow;331;true;focus;yes;544264;Chrome;112.0;Windows;10;undefined;undefined;2048 x 1152;2048 x 1152
H020;22;Mannelijk;Rechts;3;76;left;no;100;leftarrow;354;true;focus;yes;545389;Chrome;112.0;Windows;10;undefined;undefined;2048 x 1152;2048 x 1152
H020;22;Mannelijk;Rechts;3;77;left;no;100;leftarrow;454;true;focus;yes;546606;Chrome;112.0;Windows;10;undefined;undefined;2048 x 1152;2048 x 1152
H020;22;Mannelijk;Rechts;3;78;right;no;100;rightarrow;572;true;focus;yes;547940;Chrome;112.0;Windows;10;undefined;undefined;2048 x 1152;2048 x 1152
H020;22;Mannelijk;Rechts;3;79;left;no;100;leftarrow;583;true;focus;yes;549286;Chrome;112.0;Windows;10;undefined;undefined;2048 x 1152;2048 x 1152
H020;22;Mannelijk;Rechts;3;80;left;yes;100;undefined;null;true;focus;yes;551329;Chrome;112.0;Windows;10;undefined;undefined;2048 x 1152;2048 x 1152
H020;22;Mannelijk;Rechts;3;81;right;no;150;rightarrow;305;true;focus;yes;552411;Chrome;112.0;Windows;10;undefined;undefined;2048 x 1152;2048 x 1152
H020;22;Mannelijk;Rechts;3;82;left;no;150;rightarrow;236;false;focus;yes;553412;Chrome;112.0;Windows;10;undefined;undefined;2048 x 1152;2048 x 1152
H020;22;Mannelijk;Rechts;3;83;right;yes;150;rightarrow;306;false;focus;yes;554483;Chrome;112.0;Windows;10;undefined;undefined;2048 x 1152;2048 x 1152
H020;22;Mannelijk;Rechts;3;84;left;no;100;leftarrow;288;true;focus;yes;555541;Chrome;112.0;Windows;10;undefined;undefined;2048 x 1152;2048 x 1152
H020;22;Mannelijk;Rechts;3;85;left;no;100;rightarrow;238;false;focus;yes;556554;Chrome;112.0;Windows;10;undefined;undefined;2048 x 1152;2048 x 1152
H020;22;Mannelijk;Rechts;3;86;left;yes;100;leftarrow;246;false;focus;yes;557582;Chrome;112.0;Windows;10;undefined;undefined;2048 x 1152;2048 x 1152
H020;22;Mannelijk;Rechts;3;87;right;no;50;rightarrow;281;true;focus;yes;558623;Chrome;112.0;Windows;10;undefined;undefined;2048 x 1152;2048 x 1152
H020;22;Mannelijk;Rechts;3;88;right;no;50;rightarrow;341;true;focus;yes;559741;Chrome;112.0;Windows;10;undefined;undefined;2048 x 1152;2048 x 1152
H020;22;Mannelijk;Rechts;3;89;right;no;50;rightarrow;365;true;focus;yes;560882;Chrome;112.0;Windows;10;undefined;undefined;2048 x 1152;2048 x 1152
H020;22;Mannelijk;Rechts;3;90;right;no;50;rightarrow;273;true;focus;yes;561923;Chrome;112.0;Windows;10;undefined;undefined;2048 x 1152;2048 x 1152
H020;22;Mannelijk;Rechts;3;91;right;no;50;rightarrow;304;true;focus;yes;562988;Chrome;112.0;Windows;10;undefined;undefined;2048 x 1152;2048 x 1152
H020;22;Mannelijk;Rechts;3;92;left;yes;50;undefined;null;true;focus;yes;565017;Chrome;112.0;Windows;10;undefined;undefined;2048 x 1152;2048 x 1152
H020;22;Mannelijk;Rechts;3;93;left;no;100;leftarrow;330;true;focus;yes;566111;Chrome;112.0;Windows;10;undefined;undefined;2048 x 1152;2048 x 1152
H020;22;Mannelijk;Rechts;3;94;left;no;100;leftarrow;285;true;focus;yes;567158;Chrome;112.0;Windows;10;undefined;undefined;2048 x 1152;2048 x 1152
H020;22;Mannelijk;Rechts;3;95;right;yes;100;leftarrow;275;false;focus;yes;568203;Chrome;112.0;Windows;10;undefined;undefined;2048 x 1152;2048 x 1152
H020;22;Mannelijk;Rechts;3;96;left;no;50;leftarrow;384;true;focus;yes;569367;Chrome;112.0;Windows;10;undefined;undefined;2048 x 1152;2048 x 1152
H020;22;Mannelijk;Rechts;3;97;right;no;50;rightarrow;315;true;focus;yes;570453;Chrome;112.0;Windows;10;undefined;undefined;2048 x 1152;2048 x 1152
H020;22;Mannelijk;Rechts;3;98;right;yes;50;undefined;null;true;focus;yes;572493;Chrome;112.0;Windows;10;undefined;undefined;2048 x 1152;2048 x 1152
H020;22;Mannelijk;Rechts;3;99;left;no;100;leftarrow;336;true;focus;yes;573599;Chrome;112.0;Windows;10;undefined;undefined;2048 x 1152;2048 x 1152
H020;22;Mannelijk;Rechts;3;100;right;no;100;rightarrow;365;true;focus;yes;574743;Chrome;112.0;Windows;10;undefined;undefined;2048 x 1152;2048 x 1152
H020;22;Mannelijk;Rechts;3;101;right;no;100;rightarrow;368;true;focus;yes;575881;Chrome;112.0;Windows;10;undefined;undefined;2048 x 1152;2048 x 1152
H020;22;Mannelijk;Rechts;3;102;left;yes;100;leftarrow;366;false;focus;yes;577010;Chrome;112.0;Windows;10;undefined;undefined;2048 x 1152;2048 x 1152
H020;22;Mannelijk;Rechts;3;103;left;no;50;leftarrow;343;true;focus;yes;578134;Chrome;112.0;Windows;10;undefined;undefined;2048 x 1152;2048 x 1152
H020;22;Mannelijk;Rechts;3;104;left;no;50;leftarrow;354;true;focus;yes;579250;Chrome;112.0;Windows;10;undefined;undefined;2048 x 1152;2048 x 1152
H020;22;Mannelijk;Rechts;3;105;right;yes;50;undefined;null;true;focus;yes;581271;Chrome;112.0;Windows;10;undefined;undefined;2048 x 1152;2048 x 1152
H020;22;Mannelijk;Rechts;3;106;right;no;100;rightarrow;370;true;focus;yes;582405;Chrome;112.0;Windows;10;undefined;undefined;2048 x 1152;2048 x 1152
H020;22;Mannelijk;Rechts;3;107;left;no;100;leftarrow;313;true;focus;yes;583476;Chrome;112.0;Windows;10;undefined;undefined;2048 x 1152;2048 x 1152
H020;22;Mannelijk;Rechts;3;108;right;no;100;rightarrow;315;true;focus;yes;584559;Chrome;112.0;Windows;10;undefined;undefined;2048 x 1152;2048 x 1152
H020;22;Mannelijk;Rechts;3;109;left;yes;100;leftarrow;335;false;focus;yes;585656;Chrome;112.0;Windows;10;undefined;undefined;2048 x 1152;2048 x 1152
H020;22;Mannelijk;Rechts;3;110;right;no;50;rightarrow;309;true;focus;yes;586727;Chrome;112.0;Windows;10;undefined;undefined;2048 x 1152;2048 x 1152
H020;22;Mannelijk;Rechts;3;111;left;no;50;leftarrow;468;true;focus;yes;587958;Chrome;112.0;Windows;10;undefined;undefined;2048 x 1152;2048 x 1152
H020;22;Mannelijk;Rechts;3;112;left;no;50;leftarrow;401;true;focus;yes;589140;Chrome;112.0;Windows;10;undefined;undefined;2048 x 1152;2048 x 1152
H020;22;Mannelijk;Rechts;3;113;left;no;50;leftarrow;348;true;focus;yes;590259;Chrome;112.0;Windows;10;undefined;undefined;2048 x 1152;2048 x 1152
H020;22;Mannelijk;Rechts;3;114;right;yes;50;undefined;null;true;focus;yes;592287;Chrome;112.0;Windows;10;undefined;undefined;2048 x 1152;2048 x 1152
H020;22;Mannelijk;Rechts;3;115;right;no;100;rightarrow;316;true;focus;yes;593368;Chrome;112.0;Windows;10;undefined;undefined;2048 x 1152;2048 x 1152
H020;22;Mannelijk;Rechts;3;116;left;no;100;leftarrow;308;true;focus;yes;594457;Chrome;112.0;Windows;10;undefined;undefined;2048 x 1152;2048 x 1152
H020;22;Mannelijk;Rechts;3;117;right;no;100;rightarrow;301;true;focus;yes;595517;Chrome;112.0;Windows;10;undefined;undefined;2048 x 1152;2048 x 1152
H020;22;Mannelijk;Rechts;3;118;left;yes;100;leftarrow;251;false;focus;yes;596532;Chrome;112.0;Windows;10;undefined;undefined;2048 x 1152;2048 x 1152
H020;22;Mannelijk;Rechts;3;119;right;no;50;rightarrow;66;true;focus;yes;597359;Chrome;112.0;Windows;10;undefined;undefined;2048 x 1152;2048 x 1152
H020;22;Mannelijk;Rechts;3;120;left;no;50;leftarrow;301;true;focus;yes;598430;Chrome;112.0;Windows;10;undefined;undefined;2048 x 1152;2048 x 1152
H020;22;Mannelijk;Rechts;3;121;right;no;50;rightarrow;319;true;focus;yes;599518;Chrome;112.0;Windows;10;undefined;undefined;2048 x 1152;2048 x 1152
H020;22;Mannelijk;Rechts;3;122;left;no;50;leftarrow;271;true;focus;yes;600568;Chrome;112.0;Windows;10;undefined;undefined;2048 x 1152;2048 x 1152
H020;22;Mannelijk;Rechts;3;123;right;yes;50;rightarrow;297;false;focus;yes;601620;Chrome;112.0;Windows;10;undefined;undefined;2048 x 1152;2048 x 1152
H020;22;Mannelijk;Rechts;3;124;left;no;50;leftarrow;213;true;focus;yes;602613;Chrome;112.0;Windows;10;undefined;undefined;2048 x 1152;2048 x 1152
H020;22;Mannelijk;Rechts;3;125;left;yes;50;leftarrow;312;false;focus;yes;603706;Chrome;112.0;Windows;10;undefined;undefined;2048 x 1152;2048 x 1152
H020;22;Mannelijk;Rechts;3;126;right;no;50;rightarrow;336;true;focus;yes;604807;Chrome;112.0;Windows;10;undefined;undefined;2048 x 1152;2048 x 1152
H020;22;Mannelijk;Rechts;3;127;right;no;50;rightarrow;367;true;focus;yes;605957;Chrome;112.0;Windows;10;undefined;undefined;2048 x 1152;2048 x 1152
H020;22;Mannelijk;Rechts;3;128;left;no;50;leftarrow;368;true;focus;yes;607089;Chrome;112.0;Windows;10;undefined;undefined;2048 x 1152;2048 x 1152
H020;22;Mannelijk;Rechts;4;1;right;no;50;rightarrow;440;true;focus;yes;691201;Chrome;112.0;Windows;10;undefined;undefined;2048 x 1152;2048 x 1152
H020;22;Mannelijk;Rechts;4;2;right;no;50;rightarrow;426;true;focus;yes;692398;Chrome;112.0;Windows;10;undefined;undefined;2048 x 1152;2048 x 1152
H020;22;Mannelijk;Rechts;4;3;left;yes;50;rightarrow;238;false;focus;yes;693413;Chrome;112.0;Windows;10;undefined;undefined;2048 x 1152;2048 x 1152
H020;22;Mannelijk;Rechts;4;4;left;no;50;leftarrow;384;true;focus;yes;694580;Chrome;112.0;Windows;10;undefined;undefined;2048 x 1152;2048 x 1152
H020;22;Mannelijk;Rechts;4;5;right;yes;50;rightarrow;251;false;focus;yes;695605;Chrome;112.0;Windows;10;undefined;undefined;2048 x 1152;2048 x 1152
H020;22;Mannelijk;Rechts;4;6;right;no;50;rightarrow;292;true;focus;yes;696654;Chrome;112.0;Windows;10;undefined;undefined;2048 x 1152;2048 x 1152
H020;22;Mannelijk;Rechts;4;7;left;no;50;leftarrow;284;true;focus;yes;697718;Chrome;112.0;Windows;10;undefined;undefined;2048 x 1152;2048 x 1152
H020;22;Mannelijk;Rechts;4;8;left;no;50;rightarrow;150;false;focus;yes;698632;Chrome;112.0;Windows;10;undefined;undefined;2048 x 1152;2048 x 1152
H020;22;Mannelijk;Rechts;4;9;left;no;50;leftarrow;291;true;focus;yes;699682;Chrome;112.0;Windows;10;undefined;undefined;2048 x 1152;2048 x 1152
H020;22;Mannelijk;Rechts;4;10;right;no;50;rightarrow;228;true;focus;yes;700669;Chrome;112.0;Windows;10;undefined;undefined;2048 x 1152;2048 x 1152
H020;22;Mannelijk;Rechts;4;11;right;no;50;rightarrow;295;true;focus;yes;701728;Chrome;112.0;Windows;10;undefined;undefined;2048 x 1152;2048 x 1152
H020;22;Mannelijk;Rechts;4;12;left;no;50;leftarrow;274;true;focus;yes;702775;Chrome;112.0;Windows;10;undefined;undefined;2048 x 1152;2048 x 1152
H020;22;Mannelijk;Rechts;4;13;left;no;50;leftarrow;294;true;focus;yes;703839;Chrome;112.0;Windows;10;undefined;undefined;2048 x 1152;2048 x 1152
H020;22;Mannelijk;Rechts;4;14;left;yes;50;undefined;null;true;focus;yes;705876;Chrome;112.0;Windows;10;undefined;undefined;2048 x 1152;2048 x 1152
H020;22;Mannelijk;Rechts;4;15;right;yes;100;rightarrow;289;false;focus;yes;706923;Chrome;112.0;Windows;10;undefined;undefined;2048 x 1152;2048 x 1152
H020;22;Mannelijk;Rechts;4;16;right;no;50;undefined;null;false;focus;yes;708960;Chrome;112.0;Windows;10;undefined;undefined;2048 x 1152;2048 x 1152
H020;22;Mannelijk;Rechts;4;17;left;no;50;leftarrow;300;true;focus;yes;710041;Chrome;112.0;Windows;10;undefined;undefined;2048 x 1152;2048 x 1152
H020;22;Mannelijk;Rechts;4;18;left;no;50;undefined;null;false;focus;yes;712061;Chrome;112.0;Windows;10;undefined;undefined;2048 x 1152;2048 x 1152
H020;22;Mannelijk;Rechts;4;19;right;yes;50;rightarrow;390;false;focus;yes;713222;Chrome;112.0;Windows;10;undefined;undefined;2048 x 1152;2048 x 1152
H020;22;Mannelijk;Rechts;4;20;right;no;50;rightarrow;387;true;focus;yes;714378;Chrome;112.0;Windows;10;undefined;undefined;2048 x 1152;2048 x 1152
H020;22;Mannelijk;Rechts;4;21;left;no;50;leftarrow;360;true;focus;yes;715497;Chrome;112.0;Windows;10;undefined;undefined;2048 x 1152;2048 x 1152
H020;22;Mannelijk;Rechts;4;22;left;yes;50;leftarrow;490;false;focus;yes;716759;Chrome;112.0;Windows;10;undefined;undefined;2048 x 1152;2048 x 1152
H020;22;Mannelijk;Rechts;4;23;right;no;50;rightarrow;316;true;focus;yes;717844;Chrome;112.0;Windows;10;undefined;undefined;2048 x 1152;2048 x 1152
H020;22;Mannelijk;Rechts;4;24;right;no;50;rightarrow;240;true;focus;yes;718844;Chrome;112.0;Windows;10;undefined;undefined;2048 x 1152;2048 x 1152
H020;22;Mannelijk;Rechts;4;25;right;no;50;rightarrow;290;true;focus;yes;719908;Chrome;112.0;Windows;10;undefined;undefined;2048 x 1152;2048 x 1152
H020;22;Mannelijk;Rechts;4;26;left;no;50;leftarrow;348;true;focus;yes;721021;Chrome;112.0;Windows;10;undefined;undefined;2048 x 1152;2048 x 1152
H020;22;Mannelijk;Rechts;4;27;right;no;50;rightarrow;220;true;focus;yes;722012;Chrome;112.0;Windows;10;undefined;undefined;2048 x 1152;2048 x 1152
H020;22;Mannelijk;Rechts;4;28;right;yes;50;rightarrow;548;false;focus;yes;723334;Chrome;112.0;Windows;10;undefined;undefined;2048 x 1152;2048 x 1152
H020;22;Mannelijk;Rechts;4;29;left;yes;50;leftarrow;350;false;focus;yes;724447;Chrome;112.0;Windows;10;undefined;undefined;2048 x 1152;2048 x 1152
H020;22;Mannelijk;Rechts;4;30;left;no;50;rightarrow;221;false;focus;yes;725431;Chrome;112.0;Windows;10;undefined;undefined;2048 x 1152;2048 x 1152
H020;22;Mannelijk;Rechts;4;31;left;no;50;leftarrow;273;true;focus;yes;726460;Chrome;112.0;Windows;10;undefined;undefined;2048 x 1152;2048 x 1152
H020;22;Mannelijk;Rechts;4;32;right;no;50;rightarrow;239;true;focus;yes;727462;Chrome;112.0;Windows;10;undefined;undefined;2048 x 1152;2048 x 1152
H020;22;Mannelijk;Rechts;4;33;right;no;50;rightarrow;330;true;focus;yes;728565;Chrome;112.0;Windows;10;undefined;undefined;2048 x 1152;2048 x 1152
H020;22;Mannelijk;Rechts;4;34;right;yes;50;rightarrow;422;false;focus;yes;729751;Chrome;112.0;Windows;10;undefined;undefined;2048 x 1152;2048 x 1152
H020;22;Mannelijk;Rechts;4;35;right;no;50;rightarrow;306;true;focus;yes;730827;Chrome;112.0;Windows;10;undefined;undefined;2048 x 1152;2048 x 1152
H020;22;Mannelijk;Rechts;4;36;left;no;50;leftarrow;252;true;focus;yes;731857;Chrome;112.0;Windows;10;undefined;undefined;2048 x 1152;2048 x 1152
H020;22;Mannelijk;Rechts;4;37;right;no;50;rightarrow;280;true;focus;yes;732894;Chrome;112.0;Windows;10;undefined;undefined;2048 x 1152;2048 x 1152
H020;22;Mannelijk;Rechts;4;38;left;no;50;leftarrow;319;true;focus;yes;733974;Chrome;112.0;Windows;10;undefined;undefined;2048 x 1152;2048 x 1152
H020;22;Mannelijk;Rechts;4;39;left;yes;50;leftarrow;319;false;focus;yes;735058;Chrome;112.0;Windows;10;undefined;undefined;2048 x 1152;2048 x 1152
H020;22;Mannelijk;Rechts;4;40;left;no;50;leftarrow;285;true;focus;yes;736123;Chrome;112.0;Windows;10;undefined;undefined;2048 x 1152;2048 x 1152
H020;22;Mannelijk;Rechts;4;41;left;no;50;rightarrow;261;false;focus;yes;737151;Chrome;112.0;Windows;10;undefined;undefined;2048 x 1152;2048 x 1152
H020;22;Mannelijk;Rechts;4;42;right;no;50;rightarrow;306;true;focus;yes;738225;Chrome;112.0;Windows;10;undefined;undefined;2048 x 1152;2048 x 1152
H020;22;Mannelijk;Rechts;4;43;right;yes;50;rightarrow;446;false;focus;yes;739441;Chrome;112.0;Windows;10;undefined;undefined;2048 x 1152;2048 x 1152
H020;22;Mannelijk;Rechts;4;44;left;no;50;leftarrow;541;true;focus;yes;740753;Chrome;112.0;Windows;10;undefined;undefined;2048 x 1152;2048 x 1152
H020;22;Mannelijk;Rechts;4;45;right;no;50;rightarrow;316;true;focus;yes;741842;Chrome;112.0;Windows;10;undefined;undefined;2048 x 1152;2048 x 1152
H020;22;Mannelijk;Rechts;4;46;left;yes;50;leftarrow;299;false;focus;yes;742922;Chrome;112.0;Windows;10;undefined;undefined;2048 x 1152;2048 x 1152
H020;22;Mannelijk;Rechts;4;47;left;no;50;leftarrow;376;true;focus;yes;744062;Chrome;112.0;Windows;10;undefined;undefined;2048 x 1152;2048 x 1152
H020;22;Mannelijk;Rechts;4;48;right;no;50;rightarrow;302;true;focus;yes;745141;Chrome;112.0;Windows;10;undefined;undefined;2048 x 1152;2048 x 1152
H020;22;Mannelijk;Rechts;4;49;right;no;50;rightarrow;356;true;focus;yes;746258;Chrome;112.0;Windows;10;undefined;undefined;2048 x 1152;2048 x 1152
H020;22;Mannelijk;Rechts;4;50;left;no;50;leftarrow;230;true;focus;yes;747250;Chrome;112.0;Windows;10;undefined;undefined;2048 x 1152;2048 x 1152
H020;22;Mannelijk;Rechts;4;51;right;no;50;rightarrow;283;true;focus;yes;748306;Chrome;112.0;Windows;10;undefined;undefined;2048 x 1152;2048 x 1152
H020;22;Mannelijk;Rechts;4;52;right;yes;50;leftarrow;237;false;focus;yes;749314;Chrome;112.0;Windows;10;undefined;undefined;2048 x 1152;2048 x 1152
H020;22;Mannelijk;Rechts;4;53;left;yes;50;leftarrow;389;false;focus;yes;750478;Chrome;112.0;Windows;10;undefined;undefined;2048 x 1152;2048 x 1152
H020;22;Mannelijk;Rechts;4;54;left;no;50;leftarrow;315;true;focus;yes;751551;Chrome;112.0;Windows;10;undefined;undefined;2048 x 1152;2048 x 1152
H020;22;Mannelijk;Rechts;4;55;right;no;50;rightarrow;301;true;focus;yes;752615;Chrome;112.0;Windows;10;undefined;undefined;2048 x 1152;2048 x 1152
H020;22;Mannelijk;Rechts;4;56;left;no;50;leftarrow;316;true;focus;yes;753694;Chrome;112.0;Windows;10;undefined;undefined;2048 x 1152;2048 x 1152
H020;22;Mannelijk;Rechts;4;57;left;no;50;leftarrow;438;true;focus;yes;754886;Chrome;112.0;Windows;10;undefined;undefined;2048 x 1152;2048 x 1152
H020;22;Mannelijk;Rechts;4;58;right;no;50;rightarrow;460;true;focus;yes;756103;Chrome;112.0;Windows;10;undefined;undefined;2048 x 1152;2048 x 1152
H020;22;Mannelijk;Rechts;4;59;right;no;50;rightarrow;334;true;focus;yes;757207;Chrome;112.0;Windows;10;undefined;undefined;2048 x 1152;2048 x 1152
H020;22;Mannelijk;Rechts;4;60;left;no;50;leftarrow;395;true;focus;yes;758381;Chrome;112.0;Windows;10;undefined;undefined;2048 x 1152;2048 x 1152
H020;22;Mannelijk;Rechts;4;61;left;yes;50;leftarrow;583;false;focus;yes;759733;Chrome;112.0;Windows;10;undefined;undefined;2048 x 1152;2048 x 1152
H020;22;Mannelijk;Rechts;4;62;left;no;50;leftarrow;626;true;focus;yes;761122;Chrome;112.0;Windows;10;undefined;undefined;2048 x 1152;2048 x 1152
H020;22;Mannelijk;Rechts;4;63;right;no;50;rightarrow;245;true;focus;yes;762138;Chrome;112.0;Windows;10;undefined;undefined;2048 x 1152;2048 x 1152
H020;22;Mannelijk;Rechts;4;64;right;yes;50;rightarrow;378;false;focus;yes;763293;Chrome;112.0;Windows;10;undefined;undefined;2048 x 1152;2048 x 1152
H020;22;Mannelijk;Rechts;4;65;left;no;50;leftarrow;349;true;focus;yes;764403;Chrome;112.0;Windows;10;undefined;undefined;2048 x 1152;2048 x 1152
H020;22;Mannelijk;Rechts;4;66;right;no;50;rightarrow;246;true;focus;yes;765424;Chrome;112.0;Windows;10;undefined;undefined;2048 x 1152;2048 x 1152
H020;22;Mannelijk;Rechts;4;67;right;no;50;rightarrow;299;true;focus;yes;766493;Chrome;112.0;Windows;10;undefined;undefined;2048 x 1152;2048 x 1152
H020;22;Mannelijk;Rechts;4;68;right;yes;50;rightarrow;458;false;focus;yes;767718;Chrome;112.0;Windows;10;undefined;undefined;2048 x 1152;2048 x 1152
H020;22;Mannelijk;Rechts;4;69;left;no;50;leftarrow;366;true;focus;yes;768846;Chrome;112.0;Windows;10;undefined;undefined;2048 x 1152;2048 x 1152
H020;22;Mannelijk;Rechts;4;70;left;yes;50;leftarrow;274;false;focus;yes;769877;Chrome;112.0;Windows;10;undefined;undefined;2048 x 1152;2048 x 1152
H020;22;Mannelijk;Rechts;4;71;right;no;50;rightarrow;303;true;focus;yes;770957;Chrome;112.0;Windows;10;undefined;undefined;2048 x 1152;2048 x 1152
H020;22;Mannelijk;Rechts;4;72;left;no;50;leftarrow;245;true;focus;yes;771967;Chrome;112.0;Windows;10;undefined;undefined;2048 x 1152;2048 x 1152
H020;22;Mannelijk;Rechts;4;73;right;yes;50;rightarrow;251;false;focus;yes;772981;Chrome;112.0;Windows;10;undefined;undefined;2048 x 1152;2048 x 1152
H020;22;Mannelijk;Rechts;4;74;right;no;50;rightarrow;361;true;focus;yes;774110;Chrome;112.0;Windows;10;undefined;undefined;2048 x 1152;2048 x 1152
H020;22;Mannelijk;Rechts;4;75;right;no;50;rightarrow;320;true;focus;yes;775192;Chrome;112.0;Windows;10;undefined;undefined;2048 x 1152;2048 x 1152
H020;22;Mannelijk;Rechts;4;76;left;no;50;leftarrow;397;true;focus;yes;776362;Chrome;112.0;Windows;10;undefined;undefined;2048 x 1152;2048 x 1152
H020;22;Mannelijk;Rechts;4;77;left;no;50;rightarrow;211;false;focus;yes;777352;Chrome;112.0;Windows;10;undefined;undefined;2048 x 1152;2048 x 1152
H020;22;Mannelijk;Rechts;4;78;left;yes;50;leftarrow;328;false;focus;yes;778445;Chrome;112.0;Windows;10;undefined;undefined;2048 x 1152;2048 x 1152
H020;22;Mannelijk;Rechts;4;79;left;no;50;rightarrow;256;false;focus;yes;779466;Chrome;112.0;Windows;10;undefined;undefined;2048 x 1152;2048 x 1152
H020;22;Mannelijk;Rechts;4;80;right;no;50;rightarrow;411;true;focus;yes;780645;Chrome;112.0;Windows;10;undefined;undefined;2048 x 1152;2048 x 1152
H020;22;Mannelijk;Rechts;4;81;left;no;50;leftarrow;289;true;focus;yes;781708;Chrome;112.0;Windows;10;undefined;undefined;2048 x 1152;2048 x 1152
H020;22;Mannelijk;Rechts;4;82;right;no;50;rightarrow;231;true;focus;yes;782712;Chrome;112.0;Windows;10;undefined;undefined;2048 x 1152;2048 x 1152
H020;22;Mannelijk;Rechts;4;83;right;yes;50;rightarrow;381;false;focus;yes;783869;Chrome;112.0;Windows;10;undefined;undefined;2048 x 1152;2048 x 1152
H020;22;Mannelijk;Rechts;4;84;right;no;50;rightarrow;339;true;focus;yes;784966;Chrome;112.0;Windows;10;undefined;undefined;2048 x 1152;2048 x 1152
H020;22;Mannelijk;Rechts;4;85;right;no;50;rightarrow;292;true;focus;yes;786018;Chrome;112.0;Windows;10;undefined;undefined;2048 x 1152;2048 x 1152
H020;22;Mannelijk;Rechts;4;86;left;yes;50;leftarrow;366;false;focus;yes;787162;Chrome;112.0;Windows;10;undefined;undefined;2048 x 1152;2048 x 1152
H020;22;Mannelijk;Rechts;4;87;left;no;50;leftarrow;294;true;focus;yes;788211;Chrome;112.0;Windows;10;undefined;undefined;2048 x 1152;2048 x 1152
H020;22;Mannelijk;Rechts;4;88;left;no;50;rightarrow;197;false;focus;yes;789187;Chrome;112.0;Windows;10;undefined;undefined;2048 x 1152;2048 x 1152
H020;22;Mannelijk;Rechts;4;89;right;no;50;rightarrow;362;true;focus;yes;790316;Chrome;112.0;Windows;10;undefined;undefined;2048 x 1152;2048 x 1152
H020;22;Mannelijk;Rechts;4;90;left;no;50;leftarrow;248;true;focus;yes;791319;Chrome;112.0;Windows;10;undefined;undefined;2048 x 1152;2048 x 1152
H020;22;Mannelijk;Rechts;4;91;right;yes;50;rightarrow;259;false;focus;yes;792354;Chrome;112.0;Windows;10;undefined;undefined;2048 x 1152;2048 x 1152
H020;22;Mannelijk;Rechts;4;92;left;yes;50;leftarrow;238;false;focus;yes;793361;Chrome;112.0;Windows;10;undefined;undefined;2048 x 1152;2048 x 1152
H020;22;Mannelijk;Rechts;4;93;left;no;50;leftarrow;369;true;focus;yes;794505;Chrome;112.0;Windows;10;undefined;undefined;2048 x 1152;2048 x 1152
H020;22;Mannelijk;Rechts;4;94;left;no;50;rightarrow;279;false;focus;yes;795562;Chrome;112.0;Windows;10;undefined;undefined;2048 x 1152;2048 x 1152
H020;22;Mannelijk;Rechts;4;95;right;no;50;rightarrow;383;true;focus;yes;796721;Chrome;112.0;Windows;10;undefined;undefined;2048 x 1152;2048 x 1152
H020;22;Mannelijk;Rechts;4;96;right;no;50;rightarrow;294;true;focus;yes;797794;Chrome;112.0;Windows;10;undefined;undefined;2048 x 1152;2048 x 1152
H020;22;Mannelijk;Rechts;4;97;left;no;50;rightarrow;295;false;focus;yes;798848;Chrome;112.0;Windows;10;undefined;undefined;2048 x 1152;2048 x 1152
H020;22;Mannelijk;Rechts;4;98;right;yes;50;rightarrow;520;false;focus;yes;800130;Chrome;112.0;Windows;10;undefined;undefined;2048 x 1152;2048 x 1152
H020;22;Mannelijk;Rechts;4;99;right;no;50;rightarrow;319;true;focus;yes;801218;Chrome;112.0;Windows;10;undefined;undefined;2048 x 1152;2048 x 1152
H020;22;Mannelijk;Rechts;4;100;right;no;50;rightarrow;337;true;focus;yes;802313;Chrome;112.0;Windows;10;undefined;undefined;2048 x 1152;2048 x 1152
H020;22;Mannelijk;Rechts;4;101;left;no;50;leftarrow;359;true;focus;yes;803433;Chrome;112.0;Windows;10;undefined;undefined;2048 x 1152;2048 x 1152
H020;22;Mannelijk;Rechts;4;102;right;no;50;rightarrow;294;true;focus;yes;804500;Chrome;112.0;Windows;10;undefined;undefined;2048 x 1152;2048 x 1152
H020;22;Mannelijk;Rechts;4;103;left;no;50;leftarrow;335;true;focus;yes;805610;Chrome;112.0;Windows;10;undefined;undefined;2048 x 1152;2048 x 1152
H020;22;Mannelijk;Rechts;4;104;left;yes;50;leftarrow;357;false;focus;yes;806730;Chrome;112.0;Windows;10;undefined;undefined;2048 x 1152;2048 x 1152
H020;22;Mannelijk;Rechts;4;105;left;no;50;leftarrow;330;true;focus;yes;807827;Chrome;112.0;Windows;10;undefined;undefined;2048 x 1152;2048 x 1152
H020;22;Mannelijk;Rechts;4;106;right;no;50;rightarrow;316;true;focus;yes;808913;Chrome;112.0;Windows;10;undefined;undefined;2048 x 1152;2048 x 1152
H020;22;Mannelijk;Rechts;4;107;right;no;50;rightarrow;339;true;focus;yes;810026;Chrome;112.0;Windows;10;undefined;undefined;2048 x 1152;2048 x 1152
H020;22;Mannelijk;Rechts;4;108;left;no;50;leftarrow;265;true;focus;yes;811065;Chrome;112.0;Windows;10;undefined;undefined;2048 x 1152;2048 x 1152
H020;22;Mannelijk;Rechts;4;109;right;yes;50;rightarrow;266;false;focus;yes;812106;Chrome;112.0;Windows;10;undefined;undefined;2048 x 1152;2048 x 1152
H020;22;Mannelijk;Rechts;4;110;left;yes;50;leftarrow;291;false;focus;yes;813168;Chrome;112.0;Windows;10;undefined;undefined;2048 x 1152;2048 x 1152
H020;22;Mannelijk;Rechts;4;111;right;no;50;rightarrow;330;true;focus;yes;814269;Chrome;112.0;Windows;10;undefined;undefined;2048 x 1152;2048 x 1152
H020;22;Mannelijk;Rechts;4;112;left;no;50;leftarrow;307;true;focus;yes;815338;Chrome;112.0;Windows;10;undefined;undefined;2048 x 1152;2048 x 1152
H020;22;Mannelijk;Rechts;4;113;left;no;50;leftarrow;332;true;focus;yes;816438;Chrome;112.0;Windows;10;undefined;undefined;2048 x 1152;2048 x 1152
H020;22;Mannelijk;Rechts;4;114;right;no;50;rightarrow;361;true;focus;yes;817557;Chrome;112.0;Windows;10;undefined;undefined;2048 x 1152;2048 x 1152
H020;22;Mannelijk;Rechts;4;115;right;yes;50;rightarrow;300;false;focus;yes;818626;Chrome;112.0;Windows;10;undefined;undefined;2048 x 1152;2048 x 1152
H020;22;Mannelijk;Rechts;4;116;left;no;50;leftarrow;224;true;focus;yes;819607;Chrome;112.0;Windows;10;undefined;undefined;2048 x 1152;2048 x 1152
H020;22;Mannelijk;Rechts;4;117;left;no;50;leftarrow;286;true;focus;yes;820670;Chrome;112.0;Windows;10;undefined;undefined;2048 x 1152;2048 x 1152
H020;22;Mannelijk;Rechts;4;118;right;no;50;rightarrow;239;true;focus;yes;821685;Chrome;112.0;Windows;10;undefined;undefined;2048 x 1152;2048 x 1152
H020;22;Mannelijk;Rechts;4;119;left;yes;50;leftarrow;182;false;focus;yes;822630;Chrome;112.0;Windows;10;undefined;undefined;2048 x 1152;2048 x 1152
H020;22;Mannelijk;Rechts;4;120;right;no;50;rightarrow;183;true;focus;yes;823581;Chrome;112.0;Windows;10;undefined;undefined;2048 x 1152;2048 x 1152
H020;22;Mannelijk;Rechts;4;121;left;no;50;leftarrow;336;true;focus;yes;824679;Chrome;112.0;Windows;10;undefined;undefined;2048 x 1152;2048 x 1152
H020;22;Mannelijk;Rechts;4;122;right;yes;50;rightarrow;97;false;focus;yes;825538;Chrome;112.0;Windows;10;undefined;undefined;2048 x 1152;2048 x 1152
H020;22;Mannelijk;Rechts;4;123;left;yes;50;leftarrow;311;false;focus;yes;826627;Chrome;112.0;Windows;10;undefined;undefined;2048 x 1152;2048 x 1152
H020;22;Mannelijk;Rechts;4;124;right;no;50;rightarrow;159;true;focus;yes;827557;Chrome;112.0;Windows;10;undefined;undefined;2048 x 1152;2048 x 1152
H020;22;Mannelijk;Rechts;4;125;right;no;50;rightarrow;292;true;focus;yes;828624;Chrome;112.0;Windows;10;undefined;undefined;2048 x 1152;2048 x 1152
H020;22;Mannelijk;Rechts;4;126;left;no;50;leftarrow;203;true;focus;yes;829595;Chrome;112.0;Windows;10;undefined;undefined;2048 x 1152;2048 x 1152
H020;22;Mannelijk;Rechts;4;127;right;no;50;rightarrow;97;true;focus;yes;830454;Chrome;112.0;Windows;10;undefined;undefined;2048 x 1152;2048 x 1152
H020;22;Mannelijk;Rechts;4;128;left;no;50;leftarrow;213;true;focus;yes;831425;Chrome;112.0;Windows;10;undefined;undefined;2048 x 1152;2048 x 1152
H020;22;Mannelijk;Rechts;5;1;right;no;50;undefined;null;false;focus;yes;853118;Chrome;112.0;Windows;10;undefined;undefined;2048 x 1152;2048 x 1152
H020;22;Mannelijk;Rechts;5;2;left;no;50;undefined;null;false;focus;yes;855148;Chrome;112.0;Windows;10;undefined;undefined;2048 x 1152;2048 x 1152
H020;22;Mannelijk;Rechts;5;3;right;no;50;undefined;null;false;focus;yes;857175;Chrome;112.0;Windows;10;undefined;undefined;2048 x 1152;2048 x 1152
H020;22;Mannelijk;Rechts;5;4;left;yes;50;leftarrow;316;false;focus;yes;858250;Chrome;112.0;Windows;10;undefined;undefined;2048 x 1152;2048 x 1152
H020;22;Mannelijk;Rechts;5;5;left;no;50;undefined;null;false;focus;yes;860267;Chrome;112.0;Windows;10;undefined;undefined;2048 x 1152;2048 x 1152
H020;22;Mannelijk;Rechts;5;6;left;no;50;undefined;null;false;focus;yes;862283;Chrome;112.0;Windows;10;undefined;undefined;2048 x 1152;2048 x 1152
H020;22;Mannelijk;Rechts;5;7;right;yes;50;rightarrow;381;false;focus;yes;863441;Chrome;112.0;Windows;10;undefined;undefined;2048 x 1152;2048 x 1152
H020;22;Mannelijk;Rechts;5;8;right;no;50;undefined;null;false;focus;yes;865478;Chrome;112.0;Windows;10;undefined;undefined;2048 x 1152;2048 x 1152
H020;22;Mannelijk;Rechts;5;9;right;yes;50;rightarrow;365;false;focus;yes;866605;Chrome;112.0;Windows;10;undefined;undefined;2048 x 1152;2048 x 1152
H020;22;Mannelijk;Rechts;5;10;right;no;50;undefined;null;false;focus;yes;868616;Chrome;112.0;Windows;10;undefined;undefined;2048 x 1152;2048 x 1152
H020;22;Mannelijk;Rechts;5;11;left;no;50;undefined;null;false;focus;yes;870658;Chrome;112.0;Windows;10;undefined;undefined;2048 x 1152;2048 x 1152
H020;22;Mannelijk;Rechts;5;12;left;no;50;undefined;null;false;focus;yes;872680;Chrome;112.0;Windows;10;undefined;undefined;2048 x 1152;2048 x 1152
H020;22;Mannelijk;Rechts;5;13;right;no;50;undefined;null;false;focus;yes;874701;Chrome;112.0;Windows;10;undefined;undefined;2048 x 1152;2048 x 1152
H020;22;Mannelijk;Rechts;5;14;left;no;50;undefined;null;false;focus;yes;876733;Chrome;112.0;Windows;10;undefined;undefined;2048 x 1152;2048 x 1152
H020;22;Mannelijk;Rechts;5;15;left;yes;50;leftarrow;390;false;focus;yes;877881;Chrome;112.0;Windows;10;undefined;undefined;2048 x 1152;2048 x 1152
H020;22;Mannelijk;Rechts;5;16;right;no;50;undefined;null;false;focus;yes;879912;Chrome;112.0;Windows;10;undefined;undefined;2048 x 1152;2048 x 1152
H020;22;Mannelijk;Rechts;5;17;left;yes;50;leftarrow;379;false;focus;yes;881062;Chrome;112.0;Windows;10;undefined;undefined;2048 x 1152;2048 x 1152
H020;22;Mannelijk;Rechts;5;18;right;no;50;undefined;null;false;focus;yes;883094;Chrome;112.0;Windows;10;undefined;undefined;2048 x 1152;2048 x 1152
H020;22;Mannelijk;Rechts;5;19;left;no;50;undefined;null;false;focus;yes;885107;Chrome;112.0;Windows;10;undefined;undefined;2048 x 1152;2048 x 1152
H020;22;Mannelijk;Rechts;5;20;right;no;50;undefined;null;false;focus;yes;887140;Chrome;112.0;Windows;10;undefined;undefined;2048 x 1152;2048 x 1152
H020;22;Mannelijk;Rechts;5;21;right;no;50;undefined;null;false;focus;yes;889170;Chrome;112.0;Windows;10;undefined;undefined;2048 x 1152;2048 x 1152
H020;22;Mannelijk;Rechts;5;22;left;no;50;undefined;null;false;focus;yes;891205;Chrome;112.0;Windows;10;undefined;undefined;2048 x 1152;2048 x 1152
H020;22;Mannelijk;Rechts;5;23;right;yes;50;rightarrow;353;false;focus;yes;892335;Chrome;112.0;Windows;10;undefined;undefined;2048 x 1152;2048 x 1152
H020;22;Mannelijk;Rechts;5;24;left;no;50;undefined;null;false;focus;yes;894363;Chrome;112.0;Windows;10;undefined;undefined;2048 x 1152;2048 x 1152
H020;22;Mannelijk;Rechts;5;25;left;yes;50;leftarrow;398;false;focus;yes;895538;Chrome;112.0;Windows;10;undefined;undefined;2048 x 1152;2048 x 1152
H020;22;Mannelijk;Rechts;5;26;right;yes;50;rightarrow;358;false;focus;yes;896664;Chrome;112.0;Windows;10;undefined;undefined;2048 x 1152;2048 x 1152
H020;22;Mannelijk;Rechts;5;27;left;no;50;undefined;null;false;focus;yes;898690;Chrome;112.0;Windows;10;undefined;undefined;2048 x 1152;2048 x 1152
H020;22;Mannelijk;Rechts;5;28;left;no;50;undefined;null;false;focus;yes;900719;Chrome;112.0;Windows;10;undefined;undefined;2048 x 1152;2048 x 1152
H020;22;Mannelijk;Rechts;5;29;right;no;50;undefined;null;false;focus;yes;902740;Chrome;112.0;Windows;10;undefined;undefined;2048 x 1152;2048 x 1152
H020;22;Mannelijk;Rechts;5;30;left;no;50;undefined;null;false;focus;yes;904759;Chrome;112.0;Windows;10;undefined;undefined;2048 x 1152;2048 x 1152
H020;22;Mannelijk;Rechts;5;31;right;no;50;undefined;null;false;focus;yes;906791;Chrome;112.0;Windows;10;undefined;undefined;2048 x 1152;2048 x 1152
H020;22;Mannelijk;Rechts;5;32;right;no;50;undefined;null;false;focus;yes;908821;Chrome;112.0;Windows;10;undefined;undefined;2048 x 1152;2048 x 1152
H020;22;Mannelijk;Rechts;5;33;left;no;50;undefined;null;false;focus;yes;910849;Chrome;112.0;Windows;10;undefined;undefined;2048 x 1152;2048 x 1152
H020;22;Mannelijk;Rechts;5;34;left;no;50;undefined;null;false;focus;yes;912887;Chrome;112.0;Windows;10;undefined;undefined;2048 x 1152;2048 x 1152
H020;22;Mannelijk;Rechts;5;35;right;yes;50;rightarrow;356;false;focus;yes;914019;Chrome;112.0;Windows;10;undefined;undefined;2048 x 1152;2048 x 1152
H020;22;Mannelijk;Rechts;5;36;right;no;50;undefined;null;false;focus;yes;916033;Chrome;112.0;Windows;10;undefined;undefined;2048 x 1152;2048 x 1152
H020;22;Mannelijk;Rechts;5;37;left;yes;50;leftarrow;462;false;focus;yes;917261;Chrome;112.0;Windows;10;undefined;undefined;2048 x 1152;2048 x 1152
H020;22;Mannelijk;Rechts;5;38;left;no;50;undefined;null;false;focus;yes;919308;Chrome;112.0;Windows;10;undefined;undefined;2048 x 1152;2048 x 1152
H020;22;Mannelijk;Rechts;5;39;right;no;50;undefined;null;false;focus;yes;921347;Chrome;112.0;Windows;10;undefined;undefined;2048 x 1152;2048 x 1152
H020;22;Mannelijk;Rechts;5;40;right;no;50;undefined;null;false;focus;yes;923383;Chrome;112.0;Windows;10;undefined;undefined;2048 x 1152;2048 x 1152
H020;22;Mannelijk;Rechts;5;41;right;no;50;undefined;null;false;focus;yes;925417;Chrome;112.0;Windows;10;undefined;undefined;2048 x 1152;2048 x 1152
H020;22;Mannelijk;Rechts;5;42;right;no;50;undefined;null;false;focus;yes;927438;Chrome;112.0;Windows;10;undefined;undefined;2048 x 1152;2048 x 1152
H020;22;Mannelijk;Rechts;5;43;left;yes;50;leftarrow;375;false;focus;yes;928587;Chrome;112.0;Windows;10;undefined;undefined;2048 x 1152;2048 x 1152
H020;22;Mannelijk;Rechts;5;44;left;no;50;undefined;null;false;focus;yes;930621;Chrome;112.0;Windows;10;undefined;undefined;2048 x 1152;2048 x 1152
H020;22;Mannelijk;Rechts;5;45;right;no;50;undefined;null;false;focus;yes;932632;Chrome;112.0;Windows;10;undefined;undefined;2048 x 1152;2048 x 1152
H020;22;Mannelijk;Rechts;5;46;left;no;50;undefined;null;false;focus;yes;934662;Chrome;112.0;Windows;10;undefined;undefined;2048 x 1152;2048 x 1152
H020;22;Mannelijk;Rechts;5;47;right;yes;50;rightarrow;350;false;focus;yes;935783;Chrome;112.0;Windows;10;undefined;undefined;2048 x 1152;2048 x 1152
H020;22;Mannelijk;Rechts;5;48;left;no;50;undefined;null;false;focus;yes;937808;Chrome;112.0;Windows;10;undefined;undefined;2048 x 1152;2048 x 1152
H020;22;Mannelijk;Rechts;5;49;left;yes;50;leftarrow;391;false;focus;yes;938979;Chrome;112.0;Windows;10;undefined;undefined;2048 x 1152;2048 x 1152
H020;22;Mannelijk;Rechts;5;50;right;no;50;undefined;null;false;focus;yes;940997;Chrome;112.0;Windows;10;undefined;undefined;2048 x 1152;2048 x 1152
H020;22;Mannelijk;Rechts;5;51;right;no;50;undefined;null;false;focus;yes;943017;Chrome;112.0;Windows;10;undefined;undefined;2048 x 1152;2048 x 1152
H020;22;Mannelijk;Rechts;5;52;right;no;50;undefined;null;false;focus;yes;945033;Chrome;112.0;Windows;10;undefined;undefined;2048 x 1152;2048 x 1152
H020;22;Mannelijk;Rechts;5;53;left;no;50;undefined;null;false;focus;yes;947060;Chrome;112.0;Windows;10;undefined;undefined;2048 x 1152;2048 x 1152
H020;22;Mannelijk;Rechts;5;54;left;no;50;undefined;null;false;focus;yes;949082;Chrome;112.0;Windows;10;undefined;undefined;2048 x 1152;2048 x 1152
H020;22;Mannelijk;Rechts;5;55;right;yes;50;rightarrow;474;false;focus;yes;950326;Chrome;112.0;Windows;10;undefined;undefined;2048 x 1152;2048 x 1152
H020;22;Mannelijk;Rechts;5;56;left;no;50;undefined;null;false;focus;yes;952353;Chrome;112.0;Windows;10;undefined;undefined;2048 x 1152;2048 x 1152
H020;22;Mannelijk;Rechts;5;57;left;yes;50;leftarrow;429;false;focus;yes;953553;Chrome;112.0;Windows;10;undefined;undefined;2048 x 1152;2048 x 1152
H020;22;Mannelijk;Rechts;5;58;left;no;50;undefined;null;false;focus;yes;955591;Chrome;112.0;Windows;10;undefined;undefined;2048 x 1152;2048 x 1152
H020;22;Mannelijk;Rechts;5;59;right;yes;50;rightarrow;428;false;focus;yes;956796;Chrome;112.0;Windows;10;undefined;undefined;2048 x 1152;2048 x 1152
H020;22;Mannelijk;Rechts;5;60;right;no;50;undefined;null;false;focus;yes;958807;Chrome;112.0;Windows;10;undefined;undefined;2048 x 1152;2048 x 1152
H020;22;Mannelijk;Rechts;5;61;right;no;50;undefined;null;false;focus;yes;960837;Chrome;112.0;Windows;10;undefined;undefined;2048 x 1152;2048 x 1152
H020;22;Mannelijk;Rechts;5;62;right;no;50;undefined;null;false;focus;yes;962873;Chrome;112.0;Windows;10;undefined;undefined;2048 x 1152;2048 x 1152
H020;22;Mannelijk;Rechts;5;63;left;no;50;undefined;null;false;focus;yes;964912;Chrome;112.0;Windows;10;undefined;undefined;2048 x 1152;2048 x 1152
H020;22;Mannelijk;Rechts;5;64;left;no;50;undefined;null;false;focus;yes;966941;Chrome;112.0;Windows;10;undefined;undefined;2048 x 1152;2048 x 1152
H020;22;Mannelijk;Rechts;5;65;left;no;50;undefined;null;false;focus;yes;968982;Chrome;112.0;Windows;10;undefined;undefined;2048 x 1152;2048 x 1152
H020;22;Mannelijk;Rechts;5;66;right;yes;50;rightarrow;522;false;focus;yes;970281;Chrome;112.0;Windows;10;undefined;undefined;2048 x 1152;2048 x 1152
H020;22;Mannelijk;Rechts;5;67;left;yes;50;leftarrow;684;false;focus;yes;971726;Chrome;112.0;Windows;10;undefined;undefined;2048 x 1152;2048 x 1152
H020;22;Mannelijk;Rechts;5;68;left;no;50;undefined;null;false;focus;yes;973757;Chrome;112.0;Windows;10;undefined;undefined;2048 x 1152;2048 x 1152
H020;22;Mannelijk;Rechts;5;69;right;no;50;undefined;null;false;focus;yes;975792;Chrome;112.0;Windows;10;undefined;undefined;2048 x 1152;2048 x 1152
H020;22;Mannelijk;Rechts;5;70;right;no;50;undefined;null;false;focus;yes;977808;Chrome;112.0;Windows;10;undefined;undefined;2048 x 1152;2048 x 1152
H020;22;Mannelijk;Rechts;5;71;left;no;50;undefined;null;false;focus;yes;979827;Chrome;112.0;Windows;10;undefined;undefined;2048 x 1152;2048 x 1152
H020;22;Mannelijk;Rechts;5;72;right;no;50;undefined;null;false;focus;yes;981851;Chrome;112.0;Windows;10;undefined;undefined;2048 x 1152;2048 x 1152
H020;22;Mannelijk;Rechts;5;73;right;yes;50;rightarrow;475;false;focus;yes;983098;Chrome;112.0;Windows;10;undefined;undefined;2048 x 1152;2048 x 1152
H020;22;Mannelijk;Rechts;5;74;right;no;50;undefined;null;false;focus;yes;985122;Chrome;112.0;Windows;10;undefined;undefined;2048 x 1152;2048 x 1152
H020;22;Mannelijk;Rechts;5;75;left;no;50;undefined;null;false;focus;yes;987163;Chrome;112.0;Windows;10;undefined;undefined;2048 x 1152;2048 x 1152
H020;22;Mannelijk;Rechts;5;76;left;no;50;undefined;null;false;focus;yes;989183;Chrome;112.0;Windows;10;undefined;undefined;2048 x 1152;2048 x 1152
H020;22;Mannelijk;Rechts;5;77;left;no;50;undefined;null;false;focus;yes;991208;Chrome;112.0;Windows;10;undefined;undefined;2048 x 1152;2048 x 1152
H020;22;Mannelijk;Rechts;5;78;right;no;50;undefined;null;false;focus;yes;993251;Chrome;112.0;Windows;10;undefined;undefined;2048 x 1152;2048 x 1152
H020;22;Mannelijk;Rechts;5;79;left;yes;50;leftarrow;366;false;focus;yes;994393;Chrome;112.0;Windows;10;undefined;undefined;2048 x 1152;2048 x 1152
H020;22;Mannelijk;Rechts;5;80;right;no;50;undefined;null;false;focus;yes;996415;Chrome;112.0;Windows;10;undefined;undefined;2048 x 1152;2048 x 1152
H020;22;Mannelijk;Rechts;5;81;right;no;50;undefined;null;false;focus;yes;998449;Chrome;112.0;Windows;10;undefined;undefined;2048 x 1152;2048 x 1152
H020;22;Mannelijk;Rechts;5;82;right;yes;50;rightarrow;381;false;focus;yes;999589;Chrome;112.0;Windows;10;undefined;undefined;2048 x 1152;2048 x 1152
H020;22;Mannelijk;Rechts;5;83;right;no;50;undefined;null;false;focus;yes;1001610;Chrome;112.0;Windows;10;undefined;undefined;2048 x 1152;2048 x 1152
H020;22;Mannelijk;Rechts;5;84;left;no;50;undefined;null;false;focus;yes;1003642;Chrome;112.0;Windows;10;undefined;undefined;2048 x 1152;2048 x 1152
H020;22;Mannelijk;Rechts;5;85;right;no;50;undefined;null;false;focus;yes;1005671;Chrome;112.0;Windows;10;undefined;undefined;2048 x 1152;2048 x 1152
H020;22;Mannelijk;Rechts;5;86;left;no;50;undefined;null;false;focus;yes;1007694;Chrome;112.0;Windows;10;undefined;undefined;2048 x 1152;2048 x 1152
H020;22;Mannelijk;Rechts;5;87;left;no;50;undefined;null;false;focus;yes;1009708;Chrome;112.0;Windows;10;undefined;undefined;2048 x 1152;2048 x 1152
H020;22;Mannelijk;Rechts;5;88;left;yes;50;leftarrow;392;false;focus;yes;1010874;Chrome;112.0;Windows;10;undefined;undefined;2048 x 1152;2048 x 1152
H020;22;Mannelijk;Rechts;5;89;right;yes;50;rightarrow;427;false;focus;yes;1012077;Chrome;112.0;Windows;10;undefined;undefined;2048 x 1152;2048 x 1152
H020;22;Mannelijk;Rechts;5;90;right;no;50;undefined;null;false;focus;yes;1014113;Chrome;112.0;Windows;10;undefined;undefined;2048 x 1152;2048 x 1152
H020;22;Mannelijk;Rechts;5;91;right;no;50;undefined;null;false;focus;yes;1016138;Chrome;112.0;Windows;10;undefined;undefined;2048 x 1152;2048 x 1152
H020;22;Mannelijk;Rechts;5;92;left;no;50;undefined;null;false;focus;yes;1018168;Chrome;112.0;Windows;10;undefined;undefined;2048 x 1152;2048 x 1152
H020;22;Mannelijk;Rechts;5;93;left;yes;50;leftarrow;496;false;focus;yes;1019438;Chrome;112.0;Windows;10;undefined;undefined;2048 x 1152;2048 x 1152
H020;22;Mannelijk;Rechts;5;94;left;no;50;undefined;null;false;focus;yes;1021472;Chrome;112.0;Windows;10;undefined;undefined;2048 x 1152;2048 x 1152
H020;22;Mannelijk;Rechts;5;95;left;no;50;undefined;null;false;focus;yes;1023503;Chrome;112.0;Windows;10;undefined;undefined;2048 x 1152;2048 x 1152
H020;22;Mannelijk;Rechts;5;96;right;no;50;undefined;null;false;focus;yes;1025543;Chrome;112.0;Windows;10;undefined;undefined;2048 x 1152;2048 x 1152
H020;22;Mannelijk;Rechts;5;97;left;no;50;undefined;null;false;focus;yes;1027569;Chrome;112.0;Windows;10;undefined;undefined;2048 x 1152;2048 x 1152
H020;22;Mannelijk;Rechts;5;98;right;no;50;undefined;null;false;focus;yes;1029591;Chrome;112.0;Windows;10;undefined;undefined;2048 x 1152;2048 x 1152
H020;22;Mannelijk;Rechts;5;99;left;yes;50;leftarrow;392;false;focus;yes;1030757;Chrome;112.0;Windows;10;undefined;undefined;2048 x 1152;2048 x 1152
H020;22;Mannelijk;Rechts;5;100;right;no;50;undefined;null;false;focus;yes;1032786;Chrome;112.0;Windows;10;undefined;undefined;2048 x 1152;2048 x 1152
H020;22;Mannelijk;Rechts;5;101;right;no;50;undefined;null;false;focus;yes;1034816;Chrome;112.0;Windows;10;undefined;undefined;2048 x 1152;2048 x 1152
H020;22;Mannelijk;Rechts;5;102;left;no;50;undefined;null;false;focus;yes;1036835;Chrome;112.0;Windows;10;undefined;undefined;2048 x 1152;2048 x 1152
H020;22;Mannelijk;Rechts;5;103;right;yes;50;rightarrow;352;false;focus;yes;1037950;Chrome;112.0;Windows;10;undefined;undefined;2048 x 1152;2048 x 1152
H020;22;Mannelijk;Rechts;5;104;left;no;50;undefined;null;false;focus;yes;1039988;Chrome;112.0;Windows;10;undefined;undefined;2048 x 1152;2048 x 1152
H020;22;Mannelijk;Rechts;5;105;right;yes;50;rightarrow;470;false;focus;yes;1041213;Chrome;112.0;Windows;10;undefined;undefined;2048 x 1152;2048 x 1152
H020;22;Mannelijk;Rechts;5;106;left;yes;50;leftarrow;398;false;focus;yes;1042387;Chrome;112.0;Windows;10;undefined;undefined;2048 x 1152;2048 x 1152
H020;22;Mannelijk;Rechts;5;107;left;no;50;undefined;null;false;focus;yes;1044403;Chrome;112.0;Windows;10;undefined;undefined;2048 x 1152;2048 x 1152
H020;22;Mannelijk;Rechts;5;108;right;no;50;undefined;null;false;focus;yes;1046422;Chrome;112.0;Windows;10;undefined;undefined;2048 x 1152;2048 x 1152
H020;22;Mannelijk;Rechts;5;109;left;no;50;undefined;null;false;focus;yes;1048448;Chrome;112.0;Windows;10;undefined;undefined;2048 x 1152;2048 x 1152
H020;22;Mannelijk;Rechts;5;110;left;no;50;undefined;null;false;focus;yes;1050482;Chrome;112.0;Windows;10;undefined;undefined;2048 x 1152;2048 x 1152
H020;22;Mannelijk;Rechts;5;111;right;no;50;undefined;null;false;focus;yes;1052507;Chrome;112.0;Windows;10;undefined;undefined;2048 x 1152;2048 x 1152
H020;22;Mannelijk;Rechts;5;112;right;no;50;undefined;null;false;focus;yes;1054544;Chrome;112.0;Windows;10;undefined;undefined;2048 x 1152;2048 x 1152
H020;22;Mannelijk;Rechts;5;113;right;no;50;undefined;null;false;focus;yes;1056573;Chrome;112.0;Windows;10;undefined;undefined;2048 x 1152;2048 x 1152
H020;22;Mannelijk;Rechts;5;114;left;yes;50;leftarrow;396;false;focus;yes;1057740;Chrome;112.0;Windows;10;undefined;undefined;2048 x 1152;2048 x 1152
H020;22;Mannelijk;Rechts;5;115;right;no;50;undefined;null;false;focus;yes;1059769;Chrome;112.0;Windows;10;undefined;undefined;2048 x 1152;2048 x 1152
H020;22;Mannelijk;Rechts;5;116;left;no;50;undefined;null;false;focus;yes;1061777;Chrome;112.0;Windows;10;undefined;undefined;2048 x 1152;2048 x 1152
H020;22;Mannelijk;Rechts;5;117;right;yes;50;rightarrow;449;false;focus;yes;1062981;Chrome;112.0;Windows;10;undefined;undefined;2048 x 1152;2048 x 1152
H020;22;Mannelijk;Rechts;5;118;left;no;50;undefined;null;false;focus;yes;1065012;Chrome;112.0;Windows;10;undefined;undefined;2048 x 1152;2048 x 1152
H020;22;Mannelijk;Rechts;5;119;right;no;50;undefined;null;false;focus;yes;1067032;Chrome;112.0;Windows;10;undefined;undefined;2048 x 1152;2048 x 1152
H020;22;Mannelijk;Rechts;5;120;left;no;50;undefined;null;false;focus;yes;1069055;Chrome;112.0;Windows;10;undefined;undefined;2048 x 1152;2048 x 1152
H020;22;Mannelijk;Rechts;5;121;right;no;50;undefined;null;false;focus;yes;1071063;Chrome;112.0;Windows;10;undefined;undefined;2048 x 1152;2048 x 1152
H020;22;Mannelijk;Rechts;5;122;left;no;50;undefined;null;false;focus;yes;1073094;Chrome;112.0;Windows;10;undefined;undefined;2048 x 1152;2048 x 1152
H020;22;Mannelijk;Rechts;5;123;right;no;50;undefined;null;false;focus;yes;1075132;Chrome;112.0;Windows;10;undefined;undefined;2048 x 1152;2048 x 1152
H020;22;Mannelijk;Rechts;5;124;left;yes;50;leftarrow;438;false;focus;yes;1076342;Chrome;112.0;Windows;10;undefined;undefined;2048 x 1152;2048 x 1152
H020;22;Mannelijk;Rechts;5;125;right;no;50;undefined;null;false;focus;yes;1078378;Chrome;112.0;Windows;10;undefined;undefined;2048 x 1152;2048 x 1152
H020;22;Mannelijk;Rechts;5;126;left;no;50;undefined;null;false;focus;yes;1080403;Chrome;112.0;Windows;10;undefined;undefined;2048 x 1152;2048 x 1152
H020;22;Mannelijk;Rechts;5;127;left;no;50;undefined;null;false;focus;yes;1082427;Chrome;112.0;Windows;10;undefined;undefined;2048 x 1152;2048 x 1152
H020;22;Mannelijk;Rechts;5;128;right;yes;50;rightarrow;387;false;focus;yes;1083579;Chrome;112.0;Windows;10;undefined;undefined;2048 x 1152;2048 x 1152
H020;22;Mannelijk;Rechts;6;1;left;no;50;leftarrow;276;true;focus;yes;1269579;Chrome;112.0;Windows;10;undefined;undefined;2048 x 1152;2048 x 1152
H020;22;Mannelijk;Rechts;6;2;right;no;50;rightarrow;216;true;focus;yes;1270571;Chrome;112.0;Windows;10;undefined;undefined;2048 x 1152;2048 x 1152
H020;22;Mannelijk;Rechts;6;3;left;no;50;rightarrow;237;false;focus;yes;1271586;Chrome;112.0;Windows;10;undefined;undefined;2048 x 1152;2048 x 1152
H020;22;Mannelijk;Rechts;6;4;left;yes;50;undefined;null;true;focus;yes;1273617;Chrome;112.0;Windows;10;undefined;undefined;2048 x 1152;2048 x 1152
H020;22;Mannelijk;Rechts;6;5;right;no;100;rightarrow;193;true;focus;yes;1274573;Chrome;112.0;Windows;10;undefined;undefined;2048 x 1152;2048 x 1152
H020;22;Mannelijk;Rechts;6;6;left;no;100;leftarrow;309;true;focus;yes;1275642;Chrome;112.0;Windows;10;undefined;undefined;2048 x 1152;2048 x 1152
H020;22;Mannelijk;Rechts;6;7;right;no;100;rightarrow;237;true;focus;yes;1276649;Chrome;112.0;Windows;10;undefined;undefined;2048 x 1152;2048 x 1152
H020;22;Mannelijk;Rechts;6;8;right;yes;100;leftarrow;270;false;focus;yes;1277695;Chrome;112.0;Windows;10;undefined;undefined;2048 x 1152;2048 x 1152
H020;22;Mannelijk;Rechts;6;9;right;no;50;rightarrow;268;true;focus;yes;1278729;Chrome;112.0;Windows;10;undefined;undefined;2048 x 1152;2048 x 1152
H020;22;Mannelijk;Rechts;6;10;left;no;50;leftarrow;252;true;focus;yes;1279742;Chrome;112.0;Windows;10;undefined;undefined;2048 x 1152;2048 x 1152
H020;22;Mannelijk;Rechts;6;11;left;no;50;rightarrow;167;false;focus;yes;1280685;Chrome;112.0;Windows;10;undefined;undefined;2048 x 1152;2048 x 1152
H020;22;Mannelijk;Rechts;6;12;left;no;50;leftarrow;314;true;focus;yes;1281766;Chrome;112.0;Windows;10;undefined;undefined;2048 x 1152;2048 x 1152
H020;22;Mannelijk;Rechts;6;13;right;yes;50;rightarrow;237;false;focus;yes;1282766;Chrome;112.0;Windows;10;undefined;undefined;2048 x 1152;2048 x 1152
H020;22;Mannelijk;Rechts;6;14;right;no;50;leftarrow;266;false;focus;yes;1283789;Chrome;112.0;Windows;10;undefined;undefined;2048 x 1152;2048 x 1152
H020;22;Mannelijk;Rechts;6;15;right;no;50;rightarrow;304;true;focus;yes;1284867;Chrome;112.0;Windows;10;undefined;undefined;2048 x 1152;2048 x 1152
H020;22;Mannelijk;Rechts;6;16;left;yes;50;undefined;null;true;focus;yes;1286884;Chrome;112.0;Windows;10;undefined;undefined;2048 x 1152;2048 x 1152
H020;22;Mannelijk;Rechts;6;17;left;no;100;rightarrow;206;false;focus;yes;1287870;Chrome;112.0;Windows;10;undefined;undefined;2048 x 1152;2048 x 1152
H020;22;Mannelijk;Rechts;6;18;right;no;100;rightarrow;360;true;focus;yes;1288987;Chrome;112.0;Windows;10;undefined;undefined;2048 x 1152;2048 x 1152
H020;22;Mannelijk;Rechts;6;19;left;no;100;leftarrow;268;true;focus;yes;1290023;Chrome;112.0;Windows;10;undefined;undefined;2048 x 1152;2048 x 1152
H020;22;Mannelijk;Rechts;6;20;right;no;100;rightarrow;350;true;focus;yes;1291151;Chrome;112.0;Windows;10;undefined;undefined;2048 x 1152;2048 x 1152
H020;22;Mannelijk;Rechts;6;21;left;yes;100;leftarrow;287;false;focus;yes;1292215;Chrome;112.0;Windows;10;undefined;undefined;2048 x 1152;2048 x 1152
H020;22;Mannelijk;Rechts;6;22;right;yes;50;rightarrow;232;false;focus;yes;1293221;Chrome;112.0;Windows;10;undefined;undefined;2048 x 1152;2048 x 1152
H020;22;Mannelijk;Rechts;6;23;right;no;50;rightarrow;398;true;focus;yes;1294383;Chrome;112.0;Windows;10;undefined;undefined;2048 x 1152;2048 x 1152
H020;22;Mannelijk;Rechts;6;24;left;no;50;leftarrow;253;true;focus;yes;1295413;Chrome;112.0;Windows;10;undefined;undefined;2048 x 1152;2048 x 1152
H020;22;Mannelijk;Rechts;6;25;right;no;50;rightarrow;273;true;focus;yes;1296461;Chrome;112.0;Windows;10;undefined;undefined;2048 x 1152;2048 x 1152
