participantID;age;gender;handedness;block_i;trial_i;stim;signal;SSD;response;rt;correct;focus;Fullscreen;time_elapsed;browser_name;browser_version;os_name;os_version;tablet;mobile;screen_resolution;window_resolution
H022;21;Vrouwelijk;Rechts;0;1;right;no;200;rightarrow;530;true;focus;yes;145212;Chrome;112.0;Windows;10;undefined;undefined;1536 x 864;1536 x 864
H022;21;Vrouwelijk;Rechts;0;2;left;yes;200;leftarrow;347;false;focus;yes;147096;Chrome;112.0;Windows;10;undefined;undefined;1536 x 864;1536 x 864
H022;21;Vrouwelijk;Rechts;0;3;left;no;150;leftarrow;402;true;focus;yes;149050;Chrome;112.0;Windows;10;undefined;undefined;1536 x 864;1536 x 864
H022;21;Vrouwelijk;Rechts;0;4;right;yes;150;undefined;null;true;focus;yes;151843;Chrome;112.0;Windows;10;undefined;undefined;1536 x 864;1536 x 864
H022;21;Vrouwelijk;Rechts;0;5;right;no;200;rightarrow;342;true;focus;yes;153730;Chrome;112.0;Windows;10;undefined;undefined;1536 x 864;1536 x 864
H022;21;Vrouwelijk;Rechts;0;6;right;no;200;leftarrow;340;false;focus;yes;155622;Chrome;112.0;Windows;10;undefined;undefined;1536 x 864;1536 x 864
H022;21;Vrouwelijk;Rechts;0;7;left;no;200;leftarrow;433;true;focus;yes;157602;Chrome;112.0;Windows;10;undefined;undefined;1536 x 864;1536 x 864
H022;21;Vrouwelijk;Rechts;0;8;left;no;200;leftarrow;371;true;focus;yes;159503;Chrome;112.0;Windows;10;undefined;undefined;1536 x 864;1536 x 864
H022;21;Vrouwelijk;Rechts;1;1;right;yes;200;rightarrow;329;false;focus;yes;180126;Chrome;112.0;Windows;10;undefined;undefined;1536 x 864;1536 x 864
H022;21;Vrouwelijk;Rechts;1;2;right;no;150;rightarrow;424;true;focus;yes;181330;Chrome;112.0;Windows;10;undefined;undefined;1536 x 864;1536 x 864
H022;21;Vrouwelijk;Rechts;1;3;left;yes;150;leftarrow;396;false;focus;yes;182501;Chrome;112.0;Windows;10;undefined;undefined;1536 x 864;1536 x 864
H022;21;Vrouwelijk;Rechts;1;4;left;no;100;leftarrow;488;true;focus;yes;183763;Chrome;112.0;Windows;10;undefined;undefined;1536 x 864;1536 x 864
H022;21;Vrouwelijk;Rechts;1;5;right;no;100;rightarrow;537;true;focus;yes;185086;Chrome;112.0;Windows;10;undefined;undefined;1536 x 864;1536 x 864
H022;21;Vrouwelijk;Rechts;1;6;right;no;100;rightarrow;377;true;focus;yes;186236;Chrome;112.0;Windows;10;undefined;undefined;1536 x 864;1536 x 864
H022;21;Vrouwelijk;Rechts;1;7;left;no;100;leftarrow;397;true;focus;yes;187410;Chrome;112.0;Windows;10;undefined;undefined;1536 x 864;1536 x 864
H022;21;Vrouwelijk;Rechts;1;8;left;no;100;leftarrow;464;true;focus;yes;188645;Chrome;112.0;Windows;10;undefined;undefined;1536 x 864;1536 x 864
H022;21;Vrouwelijk;Rechts;1;9;right;no;100;rightarrow;414;true;focus;yes;189845;Chrome;112.0;Windows;10;undefined;undefined;1536 x 864;1536 x 864
H022;21;Vrouwelijk;Rechts;1;10;left;no;100;leftarrow;464;true;focus;yes;191081;Chrome;112.0;Windows;10;undefined;undefined;1536 x 864;1536 x 864
H022;21;Vrouwelijk;Rechts;1;11;left;yes;100;undefined;null;true;focus;yes;193109;Chrome;112.0;Windows;10;undefined;undefined;1536 x 864;1536 x 864
H022;21;Vrouwelijk;Rechts;1;12;left;no;150;leftarrow;481;true;focus;yes;194358;Chrome;112.0;Windows;10;undefined;undefined;1536 x 864;1536 x 864
H022;21;Vrouwelijk;Rechts;1;13;right;yes;150;undefined;null;true;focus;yes;196399;Chrome;112.0;Windows;10;undefined;undefined;1536 x 864;1536 x 864
H022;21;Vrouwelijk;Rechts;1;14;right;no;200;rightarrow;479;true;focus;yes;197649;Chrome;112.0;Windows;10;undefined;undefined;1536 x 864;1536 x 864
H022;21;Vrouwelijk;Rechts;1;15;right;no;200;rightarrow;459;true;focus;yes;198893;Chrome;112.0;Windows;10;undefined;undefined;1536 x 864;1536 x 864
H022;21;Vrouwelijk;Rechts;1;16;left;no;200;leftarrow;381;true;focus;yes;200046;Chrome;112.0;Windows;10;undefined;undefined;1536 x 864;1536 x 864
H022;21;Vrouwelijk;Rechts;1;17;right;no;200;rightarrow;384;true;focus;yes;201199;Chrome;112.0;Windows;10;undefined;undefined;1536 x 864;1536 x 864
H022;21;Vrouwelijk;Rechts;1;18;right;yes;200;rightarrow;378;false;focus;yes;202358;Chrome;112.0;Windows;10;undefined;undefined;1536 x 864;1536 x 864
H022;21;Vrouwelijk;Rechts;1;19;right;no;150;rightarrow;523;true;focus;yes;203660;Chrome;112.0;Windows;10;undefined;undefined;1536 x 864;1536 x 864
H022;21;Vrouwelijk;Rechts;1;20;right;no;150;rightarrow;423;true;focus;yes;204853;Chrome;112.0;Windows;10;undefined;undefined;1536 x 864;1536 x 864
H022;21;Vrouwelijk;Rechts;1;21;left;no;150;leftarrow;419;true;focus;yes;206049;Chrome;112.0;Windows;10;undefined;undefined;1536 x 864;1536 x 864
H022;21;Vrouwelijk;Rechts;1;22;left;no;150;leftarrow;380;true;focus;yes;207211;Chrome;112.0;Windows;10;undefined;undefined;1536 x 864;1536 x 864
H022;21;Vrouwelijk;Rechts;1;23;left;no;150;leftarrow;523;true;focus;yes;208508;Chrome;112.0;Windows;10;undefined;undefined;1536 x 864;1536 x 864
H022;21;Vrouwelijk;Rechts;1;24;left;yes;150;undefined;null;true;focus;yes;210537;Chrome;112.0;Windows;10;undefined;undefined;1536 x 864;1536 x 864
H022;21;Vrouwelijk;Rechts;1;25;right;no;200;rightarrow;528;true;focus;yes;211848;Chrome;112.0;Windows;10;undefined;undefined;1536 x 864;1536 x 864
H022;21;Vrouwelijk;Rechts;1;26;left;no;200;leftarrow;349;true;focus;yes;212978;Chrome;112.0;Windows;10;undefined;undefined;1536 x 864;1536 x 864
H022;21;Vrouwelijk;Rechts;1;27;right;no;200;rightarrow;430;true;focus;yes;214187;Chrome;112.0;Windows;10;undefined;undefined;1536 x 864;1536 x 864
H022;21;Vrouwelijk;Rechts;1;28;right;yes;200;undefined;null;true;focus;yes;216221;Chrome;112.0;Windows;10;undefined;undefined;1536 x 864;1536 x 864
H022;21;Vrouwelijk;Rechts;1;29;left;no;250;leftarrow;379;true;focus;yes;217381;Chrome;112.0;Windows;10;undefined;undefined;1536 x 864;1536 x 864
H022;21;Vrouwelijk;Rechts;1;30;left;no;250;leftarrow;467;true;focus;yes;218626;Chrome;112.0;Windows;10;undefined;undefined;1536 x 864;1536 x 864
H022;21;Vrouwelijk;Rechts;1;31;right;no;250;rightarrow;421;true;focus;yes;219831;Chrome;112.0;Windows;10;undefined;undefined;1536 x 864;1536 x 864
H022;21;Vrouwelijk;Rechts;1;32;left;yes;250;leftarrow;349;false;focus;yes;220956;Chrome;112.0;Windows;10;undefined;undefined;1536 x 864;1536 x 864
H022;21;Vrouwelijk;Rechts;1;33;right;no;200;rightarrow;499;true;focus;yes;222225;Chrome;112.0;Windows;10;undefined;undefined;1536 x 864;1536 x 864
H022;21;Vrouwelijk;Rechts;1;34;right;no;200;rightarrow;483;true;focus;yes;223490;Chrome;112.0;Windows;10;undefined;undefined;1536 x 864;1536 x 864
H022;21;Vrouwelijk;Rechts;1;35;left;no;200;leftarrow;543;true;focus;yes;224815;Chrome;112.0;Windows;10;undefined;undefined;1536 x 864;1536 x 864
H022;21;Vrouwelijk;Rechts;1;36;right;yes;200;undefined;null;true;focus;yes;226870;Chrome;112.0;Windows;10;undefined;undefined;1536 x 864;1536 x 864
H022;21;Vrouwelijk;Rechts;1;37;left;yes;250;leftarrow;419;false;focus;yes;228069;Chrome;112.0;Windows;10;undefined;undefined;1536 x 864;1536 x 864
H022;21;Vrouwelijk;Rechts;1;38;right;no;200;rightarrow;482;true;focus;yes;229330;Chrome;112.0;Windows;10;undefined;undefined;1536 x 864;1536 x 864
H022;21;Vrouwelijk;Rechts;1;39;left;no;200;leftarrow;500;true;focus;yes;230614;Chrome;112.0;Windows;10;undefined;undefined;1536 x 864;1536 x 864
H022;21;Vrouwelijk;Rechts;1;40;left;no;200;leftarrow;510;true;focus;yes;231905;Chrome;112.0;Windows;10;undefined;undefined;1536 x 864;1536 x 864
H022;21;Vrouwelijk;Rechts;1;41;left;no;200;leftarrow;404;true;focus;yes;233093;Chrome;112.0;Windows;10;undefined;undefined;1536 x 864;1536 x 864
H022;21;Vrouwelijk;Rechts;1;42;right;yes;200;undefined;null;true;focus;yes;235128;Chrome;112.0;Windows;10;undefined;undefined;1536 x 864;1536 x 864
H022;21;Vrouwelijk;Rechts;1;43;right;no;250;rightarrow;433;true;focus;yes;236343;Chrome;112.0;Windows;10;undefined;undefined;1536 x 864;1536 x 864
H022;21;Vrouwelijk;Rechts;1;44;right;no;250;rightarrow;366;true;focus;yes;237491;Chrome;112.0;Windows;10;undefined;undefined;1536 x 864;1536 x 864
H022;21;Vrouwelijk;Rechts;1;45;left;no;250;leftarrow;408;true;focus;yes;238669;Chrome;112.0;Windows;10;undefined;undefined;1536 x 864;1536 x 864
H022;21;Vrouwelijk;Rechts;1;46;left;yes;250;leftarrow;394;false;focus;yes;239840;Chrome;112.0;Windows;10;undefined;undefined;1536 x 864;1536 x 864
H022;21;Vrouwelijk;Rechts;1;47;left;no;200;leftarrow;601;true;focus;yes;241219;Chrome;112.0;Windows;10;undefined;undefined;1536 x 864;1536 x 864
H022;21;Vrouwelijk;Rechts;1;48;right;no;200;rightarrow;478;true;focus;yes;242469;Chrome;112.0;Windows;10;undefined;undefined;1536 x 864;1536 x 864
H022;21;Vrouwelijk;Rechts;1;49;right;no;200;rightarrow;464;true;focus;yes;243716;Chrome;112.0;Windows;10;undefined;undefined;1536 x 864;1536 x 864
H022;21;Vrouwelijk;Rechts;1;50;left;no;200;leftarrow;579;true;focus;yes;245077;Chrome;112.0;Windows;10;undefined;undefined;1536 x 864;1536 x 864
H022;21;Vrouwelijk;Rechts;1;51;right;no;200;rightarrow;605;true;focus;yes;246459;Chrome;112.0;Windows;10;undefined;undefined;1536 x 864;1536 x 864
H022;21;Vrouwelijk;Rechts;1;52;right;yes;200;rightarrow;356;false;focus;yes;247598;Chrome;112.0;Windows;10;undefined;undefined;1536 x 864;1536 x 864
H022;21;Vrouwelijk;Rechts;1;53;left;no;150;leftarrow;494;true;focus;yes;248872;Chrome;112.0;Windows;10;undefined;undefined;1536 x 864;1536 x 864
H022;21;Vrouwelijk;Rechts;1;54;left;yes;150;undefined;null;true;focus;yes;250907;Chrome;112.0;Windows;10;undefined;undefined;1536 x 864;1536 x 864
H022;21;Vrouwelijk;Rechts;1;55;right;no;200;rightarrow;346;true;focus;yes;252039;Chrome;112.0;Windows;10;undefined;undefined;1536 x 864;1536 x 864
H022;21;Vrouwelijk;Rechts;1;56;left;no;200;leftarrow;332;true;focus;yes;253147;Chrome;112.0;Windows;10;undefined;undefined;1536 x 864;1536 x 864
H022;21;Vrouwelijk;Rechts;1;57;right;yes;200;rightarrow;354;false;focus;yes;254284;Chrome;112.0;Windows;10;undefined;undefined;1536 x 864;1536 x 864
H022;21;Vrouwelijk;Rechts;1;58;left;yes;150;undefined;null;true;focus;yes;256329;Chrome;112.0;Windows;10;undefined;undefined;1536 x 864;1536 x 864
H022;21;Vrouwelijk;Rechts;1;59;right;no;200;rightarrow;406;true;focus;yes;257518;Chrome;112.0;Windows;10;undefined;undefined;1536 x 864;1536 x 864
H022;21;Vrouwelijk;Rechts;1;60;left;no;200;leftarrow;471;true;focus;yes;258767;Chrome;112.0;Windows;10;undefined;undefined;1536 x 864;1536 x 864
H022;21;Vrouwelijk;Rechts;1;61;left;no;200;leftarrow;438;true;focus;yes;259984;Chrome;112.0;Windows;10;undefined;undefined;1536 x 864;1536 x 864
H022;21;Vrouwelijk;Rechts;1;62;right;no;200;rightarrow;460;true;focus;yes;261223;Chrome;112.0;Windows;10;undefined;undefined;1536 x 864;1536 x 864
H022;21;Vrouwelijk;Rechts;1;63;right;no;200;rightarrow;457;true;focus;yes;262450;Chrome;112.0;Windows;10;undefined;undefined;1536 x 864;1536 x 864
H022;21;Vrouwelijk;Rechts;1;64;left;no;200;leftarrow;377;true;focus;yes;263599;Chrome;112.0;Windows;10;undefined;undefined;1536 x 864;1536 x 864
H022;21;Vrouwelijk;Rechts;1;65;left;no;200;leftarrow;376;true;focus;yes;264753;Chrome;112.0;Windows;10;undefined;undefined;1536 x 864;1536 x 864
H022;21;Vrouwelijk;Rechts;1;66;left;no;200;leftarrow;388;true;focus;yes;265917;Chrome;112.0;Windows;10;undefined;undefined;1536 x 864;1536 x 864
H022;21;Vrouwelijk;Rechts;1;67;right;yes;200;undefined;null;true;focus;yes;267951;Chrome;112.0;Windows;10;undefined;undefined;1536 x 864;1536 x 864
H022;21;Vrouwelijk;Rechts;1;68;right;no;250;rightarrow;351;true;focus;yes;269083;Chrome;112.0;Windows;10;undefined;undefined;1536 x 864;1536 x 864
H022;21;Vrouwelijk;Rechts;1;69;left;yes;250;leftarrow;373;false;focus;yes;270227;Chrome;112.0;Windows;10;undefined;undefined;1536 x 864;1536 x 864
H022;21;Vrouwelijk;Rechts;1;70;right;no;200;rightarrow;456;true;focus;yes;271466;Chrome;112.0;Windows;10;undefined;undefined;1536 x 864;1536 x 864
H022;21;Vrouwelijk;Rechts;1;71;left;no;200;leftarrow;402;true;focus;yes;272646;Chrome;112.0;Windows;10;undefined;undefined;1536 x 864;1536 x 864
H022;21;Vrouwelijk;Rechts;1;72;right;no;200;rightarrow;372;true;focus;yes;273803;Chrome;112.0;Windows;10;undefined;undefined;1536 x 864;1536 x 864
H022;21;Vrouwelijk;Rechts;1;73;left;no;200;leftarrow;404;true;focus;yes;274987;Chrome;112.0;Windows;10;undefined;undefined;1536 x 864;1536 x 864
H022;21;Vrouwelijk;Rechts;1;74;right;no;200;rightarrow;396;true;focus;yes;276151;Chrome;112.0;Windows;10;undefined;undefined;1536 x 864;1536 x 864
H022;21;Vrouwelijk;Rechts;1;75;right;yes;200;rightarrow;432;false;focus;yes;277357;Chrome;112.0;Windows;10;undefined;undefined;1536 x 864;1536 x 864
H022;21;Vrouwelijk;Rechts;1;76;left;yes;150;undefined;null;true;focus;yes;279402;Chrome;112.0;Windows;10;undefined;undefined;1536 x 864;1536 x 864
H022;21;Vrouwelijk;Rechts;1;77;left;no;200;leftarrow;478;true;focus;yes;280663;Chrome;112.0;Windows;10;undefined;undefined;1536 x 864;1536 x 864
H022;21;Vrouwelijk;Rechts;1;78;right;no;200;rightarrow;474;true;focus;yes;281922;Chrome;112.0;Windows;10;undefined;undefined;1536 x 864;1536 x 864
H022;21;Vrouwelijk;Rechts;1;79;left;no;200;leftarrow;424;true;focus;yes;283122;Chrome;112.0;Windows;10;undefined;undefined;1536 x 864;1536 x 864
H022;21;Vrouwelijk;Rechts;1;80;right;no;200;rightarrow;477;true;focus;yes;284371;Chrome;112.0;Windows;10;undefined;undefined;1536 x 864;1536 x 864
H022;21;Vrouwelijk;Rechts;1;81;right;yes;200;undefined;null;true;focus;yes;286399;Chrome;112.0;Windows;10;undefined;undefined;1536 x 864;1536 x 864
H022;21;Vrouwelijk;Rechts;1;82;left;no;250;leftarrow;414;true;focus;yes;287596;Chrome;112.0;Windows;10;undefined;undefined;1536 x 864;1536 x 864
H022;21;Vrouwelijk;Rechts;1;83;left;yes;250;leftarrow;332;false;focus;yes;288713;Chrome;112.0;Windows;10;undefined;undefined;1536 x 864;1536 x 864
H022;21;Vrouwelijk;Rechts;1;84;right;no;200;rightarrow;470;true;focus;yes;289946;Chrome;112.0;Windows;10;undefined;undefined;1536 x 864;1536 x 864
H022;21;Vrouwelijk;Rechts;1;85;right;no;200;rightarrow;590;true;focus;yes;291311;Chrome;112.0;Windows;10;undefined;undefined;1536 x 864;1536 x 864
H022;21;Vrouwelijk;Rechts;1;86;left;no;200;leftarrow;480;true;focus;yes;292570;Chrome;112.0;Windows;10;undefined;undefined;1536 x 864;1536 x 864
H022;21;Vrouwelijk;Rechts;1;87;right;no;200;rightarrow;452;true;focus;yes;293806;Chrome;112.0;Windows;10;undefined;undefined;1536 x 864;1536 x 864
H022;21;Vrouwelijk;Rechts;1;88;left;no;200;leftarrow;453;true;focus;yes;295039;Chrome;112.0;Windows;10;undefined;undefined;1536 x 864;1536 x 864
H022;21;Vrouwelijk;Rechts;1;89;right;no;200;rightarrow;395;true;focus;yes;296208;Chrome;112.0;Windows;10;undefined;undefined;1536 x 864;1536 x 864
H022;21;Vrouwelijk;Rechts;1;90;left;no;200;leftarrow;372;true;focus;yes;297343;Chrome;112.0;Windows;10;undefined;undefined;1536 x 864;1536 x 864
H022;21;Vrouwelijk;Rechts;1;91;right;no;200;rightarrow;365;true;focus;yes;298490;Chrome;112.0;Windows;10;undefined;undefined;1536 x 864;1536 x 864
H022;21;Vrouwelijk;Rechts;1;92;right;yes;200;rightarrow;405;false;focus;yes;299671;Chrome;112.0;Windows;10;undefined;undefined;1536 x 864;1536 x 864
H022;21;Vrouwelijk;Rechts;1;93;left;yes;150;leftarrow;405;false;focus;yes;300854;Chrome;112.0;Windows;10;undefined;undefined;1536 x 864;1536 x 864
H022;21;Vrouwelijk;Rechts;1;94;right;no;100;rightarrow;434;true;focus;yes;302068;Chrome;112.0;Windows;10;undefined;undefined;1536 x 864;1536 x 864
H022;21;Vrouwelijk;Rechts;1;95;left;no;100;leftarrow;459;true;focus;yes;303305;Chrome;112.0;Windows;10;undefined;undefined;1536 x 864;1536 x 864
H022;21;Vrouwelijk;Rechts;1;96;left;no;100;leftarrow;428;true;focus;yes;304511;Chrome;112.0;Windows;10;undefined;undefined;1536 x 864;1536 x 864
H022;21;Vrouwelijk;Rechts;1;97;right;no;100;rightarrow;690;true;focus;yes;305977;Chrome;112.0;Windows;10;undefined;undefined;1536 x 864;1536 x 864
H022;21;Vrouwelijk;Rechts;1;98;left;no;100;leftarrow;360;true;focus;yes;307112;Chrome;112.0;Windows;10;undefined;undefined;1536 x 864;1536 x 864
H022;21;Vrouwelijk;Rechts;1;99;right;no;100;rightarrow;435;true;focus;yes;308328;Chrome;112.0;Windows;10;undefined;undefined;1536 x 864;1536 x 864
H022;21;Vrouwelijk;Rechts;1;100;left;yes;100;undefined;null;true;focus;yes;310372;Chrome;112.0;Windows;10;undefined;undefined;1536 x 864;1536 x 864
H022;21;Vrouwelijk;Rechts;1;101;left;no;150;leftarrow;405;true;focus;yes;311557;Chrome;112.0;Windows;10;undefined;undefined;1536 x 864;1536 x 864
H022;21;Vrouwelijk;Rechts;1;102;left;no;150;leftarrow;522;true;focus;yes;312860;Chrome;112.0;Windows;10;undefined;undefined;1536 x 864;1536 x 864
H022;21;Vrouwelijk;Rechts;1;103;right;no;150;rightarrow;523;true;focus;yes;314168;Chrome;112.0;Windows;10;undefined;undefined;1536 x 864;1536 x 864
H022;21;Vrouwelijk;Rechts;1;104;right;yes;150;undefined;null;true;focus;yes;316197;Chrome;112.0;Windows;10;undefined;undefined;1536 x 864;1536 x 864
H022;21;Vrouwelijk;Rechts;1;105;left;yes;200;leftarrow;398;false;focus;yes;317380;Chrome;112.0;Windows;10;undefined;undefined;1536 x 864;1536 x 864
H022;21;Vrouwelijk;Rechts;1;106;left;no;150;leftarrow;561;true;focus;yes;318712;Chrome;112.0;Windows;10;undefined;undefined;1536 x 864;1536 x 864
H022;21;Vrouwelijk;Rechts;1;107;left;no;150;leftarrow;430;true;focus;yes;319921;Chrome;112.0;Windows;10;undefined;undefined;1536 x 864;1536 x 864
H022;21;Vrouwelijk;Rechts;1;108;right;no;150;rightarrow;656;true;focus;yes;321351;Chrome;112.0;Windows;10;undefined;undefined;1536 x 864;1536 x 864
H022;21;Vrouwelijk;Rechts;1;109;right;no;150;rightarrow;593;true;focus;yes;322709;Chrome;112.0;Windows;10;undefined;undefined;1536 x 864;1536 x 864
H022;21;Vrouwelijk;Rechts;1;110;right;yes;150;undefined;null;true;focus;yes;324747;Chrome;112.0;Windows;10;undefined;undefined;1536 x 864;1536 x 864
H022;21;Vrouwelijk;Rechts;1;111;left;no;200;leftarrow;505;true;focus;yes;326034;Chrome;112.0;Windows;10;undefined;undefined;1536 x 864;1536 x 864
H022;21;Vrouwelijk;Rechts;1;112;right;no;200;rightarrow;451;true;focus;yes;327267;Chrome;112.0;Windows;10;undefined;undefined;1536 x 864;1536 x 864
H022;21;Vrouwelijk;Rechts;1;113;right;no;200;rightarrow;424;true;focus;yes;328470;Chrome;112.0;Windows;10;undefined;undefined;1536 x 864;1536 x 864
H022;21;Vrouwelijk;Rechts;1;114;right;no;200;rightarrow;509;true;focus;yes;329751;Chrome;112.0;Windows;10;undefined;undefined;1536 x 864;1536 x 864
H022;21;Vrouwelijk;Rechts;1;115;right;no;200;rightarrow;545;true;focus;yes;331081;Chrome;112.0;Windows;10;undefined;undefined;1536 x 864;1536 x 864
H022;21;Vrouwelijk;Rechts;1;116;left;yes;200;undefined;null;true;focus;yes;333123;Chrome;112.0;Windows;10;undefined;undefined;1536 x 864;1536 x 864
H022;21;Vrouwelijk;Rechts;1;117;left;no;250;leftarrow;385;true;focus;yes;334289;Chrome;112.0;Windows;10;undefined;undefined;1536 x 864;1536 x 864
H022;21;Vrouwelijk;Rechts;1;118;left;no;250;leftarrow;395;true;focus;yes;335469;Chrome;112.0;Windows;10;undefined;undefined;1536 x 864;1536 x 864
H022;21;Vrouwelijk;Rechts;1;119;left;no;250;leftarrow;402;true;focus;yes;336645;Chrome;112.0;Windows;10;undefined;undefined;1536 x 864;1536 x 864
H022;21;Vrouwelijk;Rechts;1;120;right;yes;250;undefined;null;true;focus;yes;338687;Chrome;112.0;Windows;10;undefined;undefined;1536 x 864;1536 x 864
H022;21;Vrouwelijk;Rechts;1;121;left;no;300;leftarrow;471;true;focus;yes;339942;Chrome;112.0;Windows;10;undefined;undefined;1536 x 864;1536 x 864
H022;21;Vrouwelijk;Rechts;1;122;right;no;300;rightarrow;480;true;focus;yes;341196;Chrome;112.0;Windows;10;undefined;undefined;1536 x 864;1536 x 864
H022;21;Vrouwelijk;Rechts;1;123;right;no;300;rightarrow;562;true;focus;yes;342536;Chrome;112.0;Windows;10;undefined;undefined;1536 x 864;1536 x 864
H022;21;Vrouwelijk;Rechts;1;124;left;yes;300;leftarrow;462;false;focus;yes;343777;Chrome;112.0;Windows;10;undefined;undefined;1536 x 864;1536 x 864
H022;21;Vrouwelijk;Rechts;1;125;left;no;250;leftarrow;484;true;focus;yes;345035;Chrome;112.0;Windows;10;undefined;undefined;1536 x 864;1536 x 864
H022;21;Vrouwelijk;Rechts;1;126;right;yes;250;undefined;null;true;focus;yes;347079;Chrome;112.0;Windows;10;undefined;undefined;1536 x 864;1536 x 864
H022;21;Vrouwelijk;Rechts;1;127;right;no;300;rightarrow;443;true;focus;yes;348304;Chrome;112.0;Windows;10;undefined;undefined;1536 x 864;1536 x 864
H022;21;Vrouwelijk;Rechts;1;128;left;no;300;leftarrow;457;true;focus;yes;349532;Chrome;112.0;Windows;10;undefined;undefined;1536 x 864;1536 x 864
H022;21;Vrouwelijk;Rechts;2;1;right;no;300;rightarrow;414;true;focus;yes;369455;Chrome;112.0;Windows;10;undefined;undefined;1536 x 864;1536 x 864
H022;21;Vrouwelijk;Rechts;2;2;right;no;300;rightarrow;334;true;focus;yes;370574;Chrome;112.0;Windows;10;undefined;undefined;1536 x 864;1536 x 864
H022;21;Vrouwelijk;Rechts;2;3;right;yes;300;rightarrow;375;false;focus;yes;371709;Chrome;112.0;Windows;10;undefined;undefined;1536 x 864;1536 x 864
H022;21;Vrouwelijk;Rechts;2;4;right;no;250;rightarrow;409;true;focus;yes;372892;Chrome;112.0;Windows;10;undefined;undefined;1536 x 864;1536 x 864
H022;21;Vrouwelijk;Rechts;2;5;left;no;250;leftarrow;438;true;focus;yes;374102;Chrome;112.0;Windows;10;undefined;undefined;1536 x 864;1536 x 864
H022;21;Vrouwelijk;Rechts;2;6;left;yes;250;leftarrow;413;false;focus;yes;375288;Chrome;112.0;Windows;10;undefined;undefined;1536 x 864;1536 x 864
H022;21;Vrouwelijk;Rechts;2;7;left;no;200;leftarrow;468;true;focus;yes;376543;Chrome;112.0;Windows;10;undefined;undefined;1536 x 864;1536 x 864
H022;21;Vrouwelijk;Rechts;2;8;left;no;200;leftarrow;382;true;focus;yes;377702;Chrome;112.0;Windows;10;undefined;undefined;1536 x 864;1536 x 864
H022;21;Vrouwelijk;Rechts;2;9;right;no;200;rightarrow;423;true;focus;yes;378911;Chrome;112.0;Windows;10;undefined;undefined;1536 x 864;1536 x 864
H022;21;Vrouwelijk;Rechts;2;10;left;no;200;leftarrow;421;true;focus;yes;380112;Chrome;112.0;Windows;10;undefined;undefined;1536 x 864;1536 x 864
H022;21;Vrouwelijk;Rechts;2;11;left;no;200;leftarrow;414;true;focus;yes;381305;Chrome;112.0;Windows;10;undefined;undefined;1536 x 864;1536 x 864
H022;21;Vrouwelijk;Rechts;2;12;right;yes;200;undefined;null;true;focus;yes;383338;Chrome;112.0;Windows;10;undefined;undefined;1536 x 864;1536 x 864
H022;21;Vrouwelijk;Rechts;2;13;right;no;250;rightarrow;426;true;focus;yes;384536;Chrome;112.0;Windows;10;undefined;undefined;1536 x 864;1536 x 864
H022;21;Vrouwelijk;Rechts;2;14;left;yes;250;leftarrow;456;false;focus;yes;385773;Chrome;112.0;Windows;10;undefined;undefined;1536 x 864;1536 x 864
H022;21;Vrouwelijk;Rechts;2;15;right;no;200;rightarrow;588;true;focus;yes;387138;Chrome;112.0;Windows;10;undefined;undefined;1536 x 864;1536 x 864
H022;21;Vrouwelijk;Rechts;2;16;left;no;200;leftarrow;644;true;focus;yes;388565;Chrome;112.0;Windows;10;undefined;undefined;1536 x 864;1536 x 864
H022;21;Vrouwelijk;Rechts;2;17;left;yes;200;undefined;null;true;focus;yes;390601;Chrome;112.0;Windows;10;undefined;undefined;1536 x 864;1536 x 864
H022;21;Vrouwelijk;Rechts;2;18;left;no;250;leftarrow;491;true;focus;yes;391873;Chrome;112.0;Windows;10;undefined;undefined;1536 x 864;1536 x 864
H022;21;Vrouwelijk;Rechts;2;19;right;no;250;rightarrow;528;true;focus;yes;393173;Chrome;112.0;Windows;10;undefined;undefined;1536 x 864;1536 x 864
H022;21;Vrouwelijk;Rechts;2;20;left;no;250;leftarrow;368;true;focus;yes;394322;Chrome;112.0;Windows;10;undefined;undefined;1536 x 864;1536 x 864
H022;21;Vrouwelijk;Rechts;2;21;right;yes;250;rightarrow;374;false;focus;yes;395477;Chrome;112.0;Windows;10;undefined;undefined;1536 x 864;1536 x 864
H022;21;Vrouwelijk;Rechts;2;22;right;no;200;leftarrow;350;false;focus;yes;396609;Chrome;112.0;Windows;10;undefined;undefined;1536 x 864;1536 x 864
H022;21;Vrouwelijk;Rechts;2;23;left;no;200;leftarrow;521;true;focus;yes;397901;Chrome;112.0;Windows;10;undefined;undefined;1536 x 864;1536 x 864
H022;21;Vrouwelijk;Rechts;2;24;right;no;200;rightarrow;548;true;focus;yes;399224;Chrome;112.0;Windows;10;undefined;undefined;1536 x 864;1536 x 864
H022;21;Vrouwelijk;Rechts;2;25;left;no;200;leftarrow;596;true;focus;yes;400594;Chrome;112.0;Windows;10;undefined;undefined;1536 x 864;1536 x 864
H022;21;Vrouwelijk;Rechts;2;26;right;no;200;rightarrow;524;true;focus;yes;401884;Chrome;112.0;Windows;10;undefined;undefined;1536 x 864;1536 x 864
H022;21;Vrouwelijk;Rechts;2;27;right;no;200;rightarrow;792;true;focus;yes;403461;Chrome;112.0;Windows;10;undefined;undefined;1536 x 864;1536 x 864
H022;21;Vrouwelijk;Rechts;2;28;left;no;200;leftarrow;452;true;focus;yes;404696;Chrome;112.0;Windows;10;undefined;undefined;1536 x 864;1536 x 864
H022;21;Vrouwelijk;Rechts;2;29;left;no;200;leftarrow;378;true;focus;yes;405854;Chrome;112.0;Windows;10;undefined;undefined;1536 x 864;1536 x 864
H022;21;Vrouwelijk;Rechts;2;30;right;no;200;rightarrow;436;true;focus;yes;407055;Chrome;112.0;Windows;10;undefined;undefined;1536 x 864;1536 x 864
H022;21;Vrouwelijk;Rechts;2;31;left;yes;200;leftarrow;380;false;focus;yes;408216;Chrome;112.0;Windows;10;undefined;undefined;1536 x 864;1536 x 864
H022;21;Vrouwelijk;Rechts;2;32;right;yes;150;undefined;null;true;focus;yes;410223;Chrome;112.0;Windows;10;undefined;undefined;1536 x 864;1536 x 864
H022;21;Vrouwelijk;Rechts;2;33;right;no;200;rightarrow;368;true;focus;yes;411373;Chrome;112.0;Windows;10;undefined;undefined;1536 x 864;1536 x 864
H022;21;Vrouwelijk;Rechts;2;34;left;no;200;leftarrow;466;true;focus;yes;412613;Chrome;112.0;Windows;10;undefined;undefined;1536 x 864;1536 x 864
H022;21;Vrouwelijk;Rechts;2;35;right;no;200;rightarrow;483;true;focus;yes;413878;Chrome;112.0;Windows;10;undefined;undefined;1536 x 864;1536 x 864
H022;21;Vrouwelijk;Rechts;2;36;left;yes;200;undefined;null;true;focus;yes;415906;Chrome;112.0;Windows;10;undefined;undefined;1536 x 864;1536 x 864
H022;21;Vrouwelijk;Rechts;2;37;left;no;250;leftarrow;404;true;focus;yes;417092;Chrome;112.0;Windows;10;undefined;undefined;1536 x 864;1536 x 864
H022;21;Vrouwelijk;Rechts;2;38;right;yes;250;undefined;null;true;focus;yes;419134;Chrome;112.0;Windows;10;undefined;undefined;1536 x 864;1536 x 864
H022;21;Vrouwelijk;Rechts;2;39;left;no;300;leftarrow;427;true;focus;yes;420344;Chrome;112.0;Windows;10;undefined;undefined;1536 x 864;1536 x 864
H022;21;Vrouwelijk;Rechts;2;40;right;no;300;rightarrow;361;true;focus;yes;421491;Chrome;112.0;Windows;10;undefined;undefined;1536 x 864;1536 x 864
H022;21;Vrouwelijk;Rechts;2;41;left;no;300;leftarrow;325;true;focus;yes;422599;Chrome;112.0;Windows;10;undefined;undefined;1536 x 864;1536 x 864
H022;21;Vrouwelijk;Rechts;2;42;right;yes;300;rightarrow;411;false;focus;yes;423789;Chrome;112.0;Windows;10;undefined;undefined;1536 x 864;1536 x 864
H022;21;Vrouwelijk;Rechts;2;43;right;no;250;rightarrow;537;true;focus;yes;425100;Chrome;112.0;Windows;10;undefined;undefined;1536 x 864;1536 x 864
H022;21;Vrouwelijk;Rechts;2;44;right;no;250;rightarrow;477;true;focus;yes;426362;Chrome;112.0;Windows;10;undefined;undefined;1536 x 864;1536 x 864
H022;21;Vrouwelijk;Rechts;2;45;right;no;250;rightarrow;654;true;focus;yes;427802;Chrome;112.0;Windows;10;undefined;undefined;1536 x 864;1536 x 864
H022;21;Vrouwelijk;Rechts;2;46;left;no;250;leftarrow;475;true;focus;yes;429058;Chrome;112.0;Windows;10;undefined;undefined;1536 x 864;1536 x 864
H022;21;Vrouwelijk;Rechts;2;47;left;no;250;leftarrow;464;true;focus;yes;430296;Chrome;112.0;Windows;10;undefined;undefined;1536 x 864;1536 x 864
H022;21;Vrouwelijk;Rechts;2;48;left;yes;250;undefined;null;true;focus;yes;432331;Chrome;112.0;Windows;10;undefined;undefined;1536 x 864;1536 x 864
H022;21;Vrouwelijk;Rechts;2;49;right;no;300;rightarrow;497;true;focus;yes;433611;Chrome;112.0;Windows;10;undefined;undefined;1536 x 864;1536 x 864
H022;21;Vrouwelijk;Rechts;2;50;right;yes;300;undefined;null;true;focus;yes;435656;Chrome;112.0;Windows;10;undefined;undefined;1536 x 864;1536 x 864
H022;21;Vrouwelijk;Rechts;2;51;left;no;350;leftarrow;475;true;focus;yes;436916;Chrome;112.0;Windows;10;undefined;undefined;1536 x 864;1536 x 864
H022;21;Vrouwelijk;Rechts;2;52;right;no;350;rightarrow;513;true;focus;yes;438205;Chrome;112.0;Windows;10;undefined;undefined;1536 x 864;1536 x 864
H022;21;Vrouwelijk;Rechts;2;53;right;no;350;rightarrow;496;true;focus;yes;439484;Chrome;112.0;Windows;10;undefined;undefined;1536 x 864;1536 x 864
H022;21;Vrouwelijk;Rechts;2;54;left;no;350;leftarrow;542;true;focus;yes;440809;Chrome;112.0;Windows;10;undefined;undefined;1536 x 864;1536 x 864
H022;21;Vrouwelijk;Rechts;2;55;left;no;350;leftarrow;465;true;focus;yes;442055;Chrome;112.0;Windows;10;undefined;undefined;1536 x 864;1536 x 864
H022;21;Vrouwelijk;Rechts;2;56;left;yes;350;leftarrow;420;false;focus;yes;443258;Chrome;112.0;Windows;10;undefined;undefined;1536 x 864;1536 x 864
H022;21;Vrouwelijk;Rechts;2;57;left;yes;300;undefined;null;true;focus;yes;445296;Chrome;112.0;Windows;10;undefined;undefined;1536 x 864;1536 x 864
H022;21;Vrouwelijk;Rechts;2;58;left;no;350;leftarrow;420;true;focus;yes;446496;Chrome;112.0;Windows;10;undefined;undefined;1536 x 864;1536 x 864
H022;21;Vrouwelijk;Rechts;2;59;left;no;350;leftarrow;382;true;focus;yes;447661;Chrome;112.0;Windows;10;undefined;undefined;1536 x 864;1536 x 864
H022;21;Vrouwelijk;Rechts;2;60;left;no;350;leftarrow;445;true;focus;yes;448891;Chrome;112.0;Windows;10;undefined;undefined;1536 x 864;1536 x 864
H022;21;Vrouwelijk;Rechts;2;61;right;no;350;rightarrow;606;true;focus;yes;450285;Chrome;112.0;Windows;10;undefined;undefined;1536 x 864;1536 x 864
H022;21;Vrouwelijk;Rechts;2;62;right;no;350;rightarrow;390;true;focus;yes;451456;Chrome;112.0;Windows;10;undefined;undefined;1536 x 864;1536 x 864
H022;21;Vrouwelijk;Rechts;2;63;right;yes;350;rightarrow;332;false;focus;yes;452567;Chrome;112.0;Windows;10;undefined;undefined;1536 x 864;1536 x 864
H022;21;Vrouwelijk;Rechts;2;64;right;no;300;rightarrow;289;true;focus;yes;453628;Chrome;112.0;Windows;10;undefined;undefined;1536 x 864;1536 x 864
H022;21;Vrouwelijk;Rechts;2;65;left;no;300;leftarrow;414;true;focus;yes;454817;Chrome;112.0;Windows;10;undefined;undefined;1536 x 864;1536 x 864
H022;21;Vrouwelijk;Rechts;2;66;right;no;300;rightarrow;388;true;focus;yes;455993;Chrome;112.0;Windows;10;undefined;undefined;1536 x 864;1536 x 864
H022;21;Vrouwelijk;Rechts;2;67;right;no;300;rightarrow;357;true;focus;yes;457133;Chrome;112.0;Windows;10;undefined;undefined;1536 x 864;1536 x 864
H022;21;Vrouwelijk;Rechts;2;68;left;no;300;leftarrow;386;true;focus;yes;458299;Chrome;112.0;Windows;10;undefined;undefined;1536 x 864;1536 x 864
H022;21;Vrouwelijk;Rechts;2;69;right;no;300;rightarrow;325;true;focus;yes;459404;Chrome;112.0;Windows;10;undefined;undefined;1536 x 864;1536 x 864
H022;21;Vrouwelijk;Rechts;2;70;left;no;300;leftarrow;279;true;focus;yes;460465;Chrome;112.0;Windows;10;undefined;undefined;1536 x 864;1536 x 864
H022;21;Vrouwelijk;Rechts;2;71;left;yes;300;rightarrow;308;false;focus;yes;461558;Chrome;112.0;Windows;10;undefined;undefined;1536 x 864;1536 x 864
H022;21;Vrouwelijk;Rechts;2;72;right;yes;250;rightarrow;331;false;focus;yes;462677;Chrome;112.0;Windows;10;undefined;undefined;1536 x 864;1536 x 864
H022;21;Vrouwelijk;Rechts;2;73;left;no;200;leftarrow;364;true;focus;yes;463815;Chrome;112.0;Windows;10;undefined;undefined;1536 x 864;1536 x 864
H022;21;Vrouwelijk;Rechts;2;74;left;no;200;leftarrow;482;true;focus;yes;465075;Chrome;112.0;Windows;10;undefined;undefined;1536 x 864;1536 x 864
H022;21;Vrouwelijk;Rechts;2;75;left;no;200;leftarrow;526;true;focus;yes;466384;Chrome;112.0;Windows;10;undefined;undefined;1536 x 864;1536 x 864
H022;21;Vrouwelijk;Rechts;2;76;right;no;200;rightarrow;577;true;focus;yes;467734;Chrome;112.0;Windows;10;undefined;undefined;1536 x 864;1536 x 864
H022;21;Vrouwelijk;Rechts;2;77;left;yes;200;leftarrow;370;false;focus;yes;468884;Chrome;112.0;Windows;10;undefined;undefined;1536 x 864;1536 x 864
H022;21;Vrouwelijk;Rechts;2;78;right;no;150;rightarrow;348;true;focus;yes;470012;Chrome;112.0;Windows;10;undefined;undefined;1536 x 864;1536 x 864
H022;21;Vrouwelijk;Rechts;2;79;right;no;150;rightarrow;509;true;focus;yes;471295;Chrome;112.0;Windows;10;undefined;undefined;1536 x 864;1536 x 864
H022;21;Vrouwelijk;Rechts;2;80;right;yes;150;rightarrow;389;false;focus;yes;472458;Chrome;112.0;Windows;10;undefined;undefined;1536 x 864;1536 x 864
H022;21;Vrouwelijk;Rechts;2;81;left;no;100;leftarrow;453;true;focus;yes;473683;Chrome;112.0;Windows;10;undefined;undefined;1536 x 864;1536 x 864
H022;21;Vrouwelijk;Rechts;2;82;left;no;100;leftarrow;414;true;focus;yes;474873;Chrome;112.0;Windows;10;undefined;undefined;1536 x 864;1536 x 864
H022;21;Vrouwelijk;Rechts;2;83;right;no;100;rightarrow;595;true;focus;yes;476257;Chrome;112.0;Windows;10;undefined;undefined;1536 x 864;1536 x 864
H022;21;Vrouwelijk;Rechts;2;84;right;no;100;rightarrow;462;true;focus;yes;477497;Chrome;112.0;Windows;10;undefined;undefined;1536 x 864;1536 x 864
H022;21;Vrouwelijk;Rechts;2;85;left;no;100;leftarrow;517;true;focus;yes;478796;Chrome;112.0;Windows;10;undefined;undefined;1536 x 864;1536 x 864
H022;21;Vrouwelijk;Rechts;2;86;right;no;100;rightarrow;498;true;focus;yes;480075;Chrome;112.0;Windows;10;undefined;undefined;1536 x 864;1536 x 864
H022;21;Vrouwelijk;Rechts;2;87;left;yes;100;undefined;null;true;focus;yes;482115;Chrome;112.0;Windows;10;undefined;undefined;1536 x 864;1536 x 864
H022;21;Vrouwelijk;Rechts;2;88;right;yes;150;undefined;null;true;focus;yes;484154;Chrome;112.0;Windows;10;undefined;undefined;1536 x 864;1536 x 864
H022;21;Vrouwelijk;Rechts;2;89;right;yes;200;rightarrow;335;false;focus;yes;485275;Chrome;112.0;Windows;10;undefined;undefined;1536 x 864;1536 x 864
H022;21;Vrouwelijk;Rechts;2;90;right;no;150;rightarrow;641;true;focus;yes;486687;Chrome;112.0;Windows;10;undefined;undefined;1536 x 864;1536 x 864
H022;21;Vrouwelijk;Rechts;2;91;left;no;150;leftarrow;454;true;focus;yes;487906;Chrome;112.0;Windows;10;undefined;undefined;1536 x 864;1536 x 864
H022;21;Vrouwelijk;Rechts;2;92;right;no;150;rightarrow;441;true;focus;yes;489121;Chrome;112.0;Windows;10;undefined;undefined;1536 x 864;1536 x 864
H022;21;Vrouwelijk;Rechts;2;93;right;no;150;rightarrow;437;true;focus;yes;490340;Chrome;112.0;Windows;10;undefined;undefined;1536 x 864;1536 x 864
H022;21;Vrouwelijk;Rechts;2;94;left;no;150;leftarrow;444;true;focus;yes;491550;Chrome;112.0;Windows;10;undefined;undefined;1536 x 864;1536 x 864
H022;21;Vrouwelijk;Rechts;2;95;left;yes;150;undefined;null;true;focus;yes;493573;Chrome;112.0;Windows;10;undefined;undefined;1536 x 864;1536 x 864
H022;21;Vrouwelijk;Rechts;2;96;left;no;200;leftarrow;423;true;focus;yes;494775;Chrome;112.0;Windows;10;undefined;undefined;1536 x 864;1536 x 864
H022;21;Vrouwelijk;Rechts;2;97;left;no;200;leftarrow;445;true;focus;yes;495992;Chrome;112.0;Windows;10;undefined;undefined;1536 x 864;1536 x 864
H022;21;Vrouwelijk;Rechts;2;98;right;yes;200;undefined;null;true;focus;yes;498038;Chrome;112.0;Windows;10;undefined;undefined;1536 x 864;1536 x 864
H022;21;Vrouwelijk;Rechts;2;99;left;no;250;leftarrow;524;true;focus;yes;499343;Chrome;112.0;Windows;10;undefined;undefined;1536 x 864;1536 x 864
H022;21;Vrouwelijk;Rechts;2;100;left;no;250;leftarrow;413;true;focus;yes;500540;Chrome;112.0;Windows;10;undefined;undefined;1536 x 864;1536 x 864
H022;21;Vrouwelijk;Rechts;2;101;left;yes;250;leftarrow;424;false;focus;yes;501749;Chrome;112.0;Windows;10;undefined;undefined;1536 x 864;1536 x 864
H022;21;Vrouwelijk;Rechts;2;102;right;no;200;rightarrow;530;true;focus;yes;503058;Chrome;112.0;Windows;10;undefined;undefined;1536 x 864;1536 x 864
H022;21;Vrouwelijk;Rechts;2;103;right;no;200;rightarrow;458;true;focus;yes;504298;Chrome;112.0;Windows;10;undefined;undefined;1536 x 864;1536 x 864
H022;21;Vrouwelijk;Rechts;2;104;right;no;200;rightarrow;445;true;focus;yes;505517;Chrome;112.0;Windows;10;undefined;undefined;1536 x 864;1536 x 864
H022;21;Vrouwelijk;Rechts;2;105;left;yes;200;undefined;null;true;focus;yes;507548;Chrome;112.0;Windows;10;undefined;undefined;1536 x 864;1536 x 864
H022;21;Vrouwelijk;Rechts;2;106;left;no;250;leftarrow;488;true;focus;yes;508818;Chrome;112.0;Windows;10;undefined;undefined;1536 x 864;1536 x 864
H022;21;Vrouwelijk;Rechts;2;107;left;no;250;leftarrow;482;true;focus;yes;510071;Chrome;112.0;Windows;10;undefined;undefined;1536 x 864;1536 x 864
H022;21;Vrouwelijk;Rechts;2;108;left;no;250;leftarrow;366;true;focus;yes;511203;Chrome;112.0;Windows;10;undefined;undefined;1536 x 864;1536 x 864
H022;21;Vrouwelijk;Rechts;2;109;right;no;250;rightarrow;469;true;focus;yes;512457;Chrome;112.0;Windows;10;undefined;undefined;1536 x 864;1536 x 864
H022;21;Vrouwelijk;Rechts;2;110;right;no;250;rightarrow;449;true;focus;yes;513680;Chrome;112.0;Windows;10;undefined;undefined;1536 x 864;1536 x 864
H022;21;Vrouwelijk;Rechts;2;111;right;yes;250;rightarrow;457;false;focus;yes;514916;Chrome;112.0;Windows;10;undefined;undefined;1536 x 864;1536 x 864
H022;21;Vrouwelijk;Rechts;2;112;right;no;200;rightarrow;423;true;focus;yes;516116;Chrome;112.0;Windows;10;undefined;undefined;1536 x 864;1536 x 864
H022;21;Vrouwelijk;Rechts;2;113;right;yes;200;undefined;null;true;focus;yes;518154;Chrome;112.0;Windows;10;undefined;undefined;1536 x 864;1536 x 864
H022;21;Vrouwelijk;Rechts;2;114;right;no;250;rightarrow;412;true;focus;yes;519350;Chrome;112.0;Windows;10;undefined;undefined;1536 x 864;1536 x 864
H022;21;Vrouwelijk;Rechts;2;115;left;no;250;leftarrow;443;true;focus;yes;520565;Chrome;112.0;Windows;10;undefined;undefined;1536 x 864;1536 x 864
H022;21;Vrouwelijk;Rechts;2;116;left;yes;250;leftarrow;402;false;focus;yes;521754;Chrome;112.0;Windows;10;undefined;undefined;1536 x 864;1536 x 864
H022;21;Vrouwelijk;Rechts;2;117;left;no;200;leftarrow;503;true;focus;yes;523043;Chrome;112.0;Windows;10;undefined;undefined;1536 x 864;1536 x 864
H022;21;Vrouwelijk;Rechts;2;118;left;no;200;leftarrow;416;true;focus;yes;524235;Chrome;112.0;Windows;10;undefined;undefined;1536 x 864;1536 x 864
H022;21;Vrouwelijk;Rechts;2;119;right;no;200;rightarrow;506;true;focus;yes;525506;Chrome;112.0;Windows;10;undefined;undefined;1536 x 864;1536 x 864
H022;21;Vrouwelijk;Rechts;2;120;right;no;200;rightarrow;467;true;focus;yes;526746;Chrome;112.0;Windows;10;undefined;undefined;1536 x 864;1536 x 864
H022;21;Vrouwelijk;Rechts;2;121;right;yes;200;undefined;null;true;focus;yes;528793;Chrome;112.0;Windows;10;undefined;undefined;1536 x 864;1536 x 864
H022;21;Vrouwelijk;Rechts;2;122;left;no;250;leftarrow;439;true;focus;yes;530014;Chrome;112.0;Windows;10;undefined;undefined;1536 x 864;1536 x 864
H022;21;Vrouwelijk;Rechts;2;123;right;no;250;rightarrow;437;true;focus;yes;531225;Chrome;112.0;Windows;10;undefined;undefined;1536 x 864;1536 x 864
H022;21;Vrouwelijk;Rechts;2;124;left;yes;250;leftarrow;482;false;focus;yes;532483;Chrome;112.0;Windows;10;undefined;undefined;1536 x 864;1536 x 864
H022;21;Vrouwelijk;Rechts;2;125;right;no;200;rightarrow;567;true;focus;yes;533832;Chrome;112.0;Windows;10;undefined;undefined;1536 x 864;1536 x 864
H022;21;Vrouwelijk;Rechts;2;126;left;no;200;leftarrow;550;true;focus;yes;535155;Chrome;112.0;Windows;10;undefined;undefined;1536 x 864;1536 x 864
H022;21;Vrouwelijk;Rechts;2;127;right;no;200;rightarrow;518;true;focus;yes;536448;Chrome;112.0;Windows;10;undefined;undefined;1536 x 864;1536 x 864
H022;21;Vrouwelijk;Rechts;2;128;left;no;200;leftarrow;530;true;focus;yes;537758;Chrome;112.0;Windows;10;undefined;undefined;1536 x 864;1536 x 864
H022;21;Vrouwelijk;Rechts;3;1;left;no;200;leftarrow;386;true;focus;yes;558628;Chrome;112.0;Windows;10;undefined;undefined;1536 x 864;1536 x 864
H022;21;Vrouwelijk;Rechts;3;2;right;no;200;rightarrow;447;true;focus;yes;559856;Chrome;112.0;Windows;10;undefined;undefined;1536 x 864;1536 x 864
H022;21;Vrouwelijk;Rechts;3;3;right;no;200;rightarrow;412;true;focus;yes;561056;Chrome;112.0;Windows;10;undefined;undefined;1536 x 864;1536 x 864
H022;21;Vrouwelijk;Rechts;3;4;right;no;200;rightarrow;406;true;focus;yes;562250;Chrome;112.0;Windows;10;undefined;undefined;1536 x 864;1536 x 864
H022;21;Vrouwelijk;Rechts;3;5;left;yes;200;undefined;null;true;focus;yes;564286;Chrome;112.0;Windows;10;undefined;undefined;1536 x 864;1536 x 864
H022;21;Vrouwelijk;Rechts;3;6;left;no;250;leftarrow;417;true;focus;yes;565486;Chrome;112.0;Windows;10;undefined;undefined;1536 x 864;1536 x 864
H022;21;Vrouwelijk;Rechts;3;7;left;no;250;leftarrow;471;true;focus;yes;566738;Chrome;112.0;Windows;10;undefined;undefined;1536 x 864;1536 x 864
H022;21;Vrouwelijk;Rechts;3;8;right;yes;250;rightarrow;419;false;focus;yes;567930;Chrome;112.0;Windows;10;undefined;undefined;1536 x 864;1536 x 864
H022;21;Vrouwelijk;Rechts;3;9;left;no;200;leftarrow;474;true;focus;yes;569188;Chrome;112.0;Windows;10;undefined;undefined;1536 x 864;1536 x 864
H022;21;Vrouwelijk;Rechts;3;10;left;yes;200;undefined;null;true;focus;yes;571236;Chrome;112.0;Windows;10;undefined;undefined;1536 x 864;1536 x 864
H022;21;Vrouwelijk;Rechts;3;11;right;no;250;rightarrow;481;true;focus;yes;572500;Chrome;112.0;Windows;10;undefined;undefined;1536 x 864;1536 x 864
H022;21;Vrouwelijk;Rechts;3;12;right;yes;250;undefined;null;true;focus;yes;574544;Chrome;112.0;Windows;10;undefined;undefined;1536 x 864;1536 x 864
H022;21;Vrouwelijk;Rechts;3;13;right;no;300;rightarrow;493;true;focus;yes;575821;Chrome;112.0;Windows;10;undefined;undefined;1536 x 864;1536 x 864
H022;21;Vrouwelijk;Rechts;3;14;right;no;300;rightarrow;581;true;focus;yes;577177;Chrome;112.0;Windows;10;undefined;undefined;1536 x 864;1536 x 864
H022;21;Vrouwelijk;Rechts;3;15;left;no;300;leftarrow;494;true;focus;yes;578445;Chrome;112.0;Windows;10;undefined;undefined;1536 x 864;1536 x 864
H022;21;Vrouwelijk;Rechts;3;16;left;no;300;leftarrow;456;true;focus;yes;579681;Chrome;112.0;Windows;10;undefined;undefined;1536 x 864;1536 x 864
H022;21;Vrouwelijk;Rechts;3;17;left;yes;300;leftarrow;463;false;focus;yes;580919;Chrome;112.0;Windows;10;undefined;undefined;1536 x 864;1536 x 864
H022;21;Vrouwelijk;Rechts;3;18;right;no;250;rightarrow;577;true;focus;yes;582280;Chrome;112.0;Windows;10;undefined;undefined;1536 x 864;1536 x 864
H022;21;Vrouwelijk;Rechts;3;19;right;no;250;rightarrow;549;true;focus;yes;583608;Chrome;112.0;Windows;10;undefined;undefined;1536 x 864;1536 x 864
H022;21;Vrouwelijk;Rechts;3;20;left;no;250;leftarrow;570;true;focus;yes;584954;Chrome;112.0;Windows;10;undefined;undefined;1536 x 864;1536 x 864
H022;21;Vrouwelijk;Rechts;3;21;left;no;250;leftarrow;400;true;focus;yes;586128;Chrome;112.0;Windows;10;undefined;undefined;1536 x 864;1536 x 864
H022;21;Vrouwelijk;Rechts;3;22;right;yes;250;undefined;null;true;focus;yes;588170;Chrome;112.0;Windows;10;undefined;undefined;1536 x 864;1536 x 864
H022;21;Vrouwelijk;Rechts;3;23;right;no;300;rightarrow;467;true;focus;yes;589420;Chrome;112.0;Windows;10;undefined;undefined;1536 x 864;1536 x 864
H022;21;Vrouwelijk;Rechts;3;24;left;no;300;leftarrow;446;true;focus;yes;590631;Chrome;112.0;Windows;10;undefined;undefined;1536 x 864;1536 x 864
H022;21;Vrouwelijk;Rechts;3;25;right;no;300;rightarrow;441;true;focus;yes;591860;Chrome;112.0;Windows;10;undefined;undefined;1536 x 864;1536 x 864
H022;21;Vrouwelijk;Rechts;3;26;left;no;300;leftarrow;376;true;focus;yes;593015;Chrome;112.0;Windows;10;undefined;undefined;1536 x 864;1536 x 864
H022;21;Vrouwelijk;Rechts;3;27;left;no;300;leftarrow;400;true;focus;yes;594193;Chrome;112.0;Windows;10;undefined;undefined;1536 x 864;1536 x 864
H022;21;Vrouwelijk;Rechts;3;28;left;no;300;leftarrow;449;true;focus;yes;595432;Chrome;112.0;Windows;10;undefined;undefined;1536 x 864;1536 x 864
H022;21;Vrouwelijk;Rechts;3;29;right;no;300;rightarrow;525;true;focus;yes;596737;Chrome;112.0;Windows;10;undefined;undefined;1536 x 864;1536 x 864
H022;21;Vrouwelijk;Rechts;3;30;right;yes;300;rightarrow;499;false;focus;yes;598020;Chrome;112.0;Windows;10;undefined;undefined;1536 x 864;1536 x 864
H022;21;Vrouwelijk;Rechts;3;31;right;no;250;rightarrow;543;true;focus;yes;599339;Chrome;112.0;Windows;10;undefined;undefined;1536 x 864;1536 x 864
H022;21;Vrouwelijk;Rechts;3;32;left;yes;250;leftarrow;460;false;focus;yes;600582;Chrome;112.0;Windows;10;undefined;undefined;1536 x 864;1536 x 864
H022;21;Vrouwelijk;Rechts;3;33;right;no;200;rightarrow;621;true;focus;yes;601991;Chrome;112.0;Windows;10;undefined;undefined;1536 x 864;1536 x 864
H022;21;Vrouwelijk;Rechts;3;34;right;no;200;rightarrow;705;true;focus;yes;603478;Chrome;112.0;Windows;10;undefined;undefined;1536 x 864;1536 x 864
H022;21;Vrouwelijk;Rechts;3;35;left;no;200;leftarrow;791;true;focus;yes;605040;Chrome;112.0;Windows;10;undefined;undefined;1536 x 864;1536 x 864
H022;21;Vrouwelijk;Rechts;3;36;left;no;200;leftarrow;578;true;focus;yes;606404;Chrome;112.0;Windows;10;undefined;undefined;1536 x 864;1536 x 864
H022;21;Vrouwelijk;Rechts;3;37;right;no;200;rightarrow;518;true;focus;yes;607703;Chrome;112.0;Windows;10;undefined;undefined;1536 x 864;1536 x 864
H022;21;Vrouwelijk;Rechts;3;38;right;yes;200;undefined;null;true;focus;yes;609737;Chrome;112.0;Windows;10;undefined;undefined;1536 x 864;1536 x 864
H022;21;Vrouwelijk;Rechts;3;39;left;yes;250;leftarrow;441;false;focus;yes;610962;Chrome;112.0;Windows;10;undefined;undefined;1536 x 864;1536 x 864
H022;21;Vrouwelijk;Rechts;3;40;left;no;200;leftarrow;557;true;focus;yes;612309;Chrome;112.0;Windows;10;undefined;undefined;1536 x 864;1536 x 864
H022;21;Vrouwelijk;Rechts;3;41;right;no;200;rightarrow;495;true;focus;yes;613591;Chrome;112.0;Windows;10;undefined;undefined;1536 x 864;1536 x 864
H022;21;Vrouwelijk;Rechts;3;42;left;yes;200;undefined;null;true;focus;yes;615632;Chrome;112.0;Windows;10;undefined;undefined;1536 x 864;1536 x 864
H022;21;Vrouwelijk;Rechts;3;43;right;no;250;rightarrow;490;true;focus;yes;616905;Chrome;112.0;Windows;10;undefined;undefined;1536 x 864;1536 x 864
H022;21;Vrouwelijk;Rechts;3;44;right;no;250;rightarrow;464;true;focus;yes;618143;Chrome;112.0;Windows;10;undefined;undefined;1536 x 864;1536 x 864
H022;21;Vrouwelijk;Rechts;3;45;left;no;250;leftarrow;462;true;focus;yes;619386;Chrome;112.0;Windows;10;undefined;undefined;1536 x 864;1536 x 864
H022;21;Vrouwelijk;Rechts;3;46;right;yes;250;undefined;null;true;focus;yes;621404;Chrome;112.0;Windows;10;undefined;undefined;1536 x 864;1536 x 864
H022;21;Vrouwelijk;Rechts;3;47;left;no;300;leftarrow;426;true;focus;yes;622611;Chrome;112.0;Windows;10;undefined;undefined;1536 x 864;1536 x 864
H022;21;Vrouwelijk;Rechts;3;48;left;no;300;leftarrow;427;true;focus;yes;623814;Chrome;112.0;Windows;10;undefined;undefined;1536 x 864;1536 x 864
H022;21;Vrouwelijk;Rechts;3;49;right;no;300;rightarrow;517;true;focus;yes;625107;Chrome;112.0;Windows;10;undefined;undefined;1536 x 864;1536 x 864
H022;21;Vrouwelijk;Rechts;3;50;right;yes;300;rightarrow;414;false;focus;yes;626301;Chrome;112.0;Windows;10;undefined;undefined;1536 x 864;1536 x 864
H022;21;Vrouwelijk;Rechts;3;51;left;no;250;leftarrow;417;true;focus;yes;627501;Chrome;112.0;Windows;10;undefined;undefined;1536 x 864;1536 x 864
H022;21;Vrouwelijk;Rechts;3;52;left;yes;250;undefined;null;true;focus;yes;629548;Chrome;112.0;Windows;10;undefined;undefined;1536 x 864;1536 x 864
H022;21;Vrouwelijk;Rechts;3;53;right;no;300;rightarrow;493;true;focus;yes;630823;Chrome;112.0;Windows;10;undefined;undefined;1536 x 864;1536 x 864
H022;21;Vrouwelijk;Rechts;3;54;left;no;300;leftarrow;530;true;focus;yes;632141;Chrome;112.0;Windows;10;undefined;undefined;1536 x 864;1536 x 864
H022;21;Vrouwelijk;Rechts;3;55;left;no;300;leftarrow;375;true;focus;yes;633299;Chrome;112.0;Windows;10;undefined;undefined;1536 x 864;1536 x 864
H022;21;Vrouwelijk;Rechts;3;56;right;no;300;rightarrow;498;true;focus;yes;634579;Chrome;112.0;Windows;10;undefined;undefined;1536 x 864;1536 x 864
H022;21;Vrouwelijk;Rechts;3;57;right;no;300;rightarrow;400;true;focus;yes;635762;Chrome;112.0;Windows;10;undefined;undefined;1536 x 864;1536 x 864
H022;21;Vrouwelijk;Rechts;3;58;left;no;300;leftarrow;471;true;focus;yes;637019;Chrome;112.0;Windows;10;undefined;undefined;1536 x 864;1536 x 864
H022;21;Vrouwelijk;Rechts;3;59;left;no;300;leftarrow;444;true;focus;yes;638242;Chrome;112.0;Windows;10;undefined;undefined;1536 x 864;1536 x 864
H022;21;Vrouwelijk;Rechts;3;60;right;yes;300;rightarrow;442;false;focus;yes;639471;Chrome;112.0;Windows;10;undefined;undefined;1536 x 864;1536 x 864
H022;21;Vrouwelijk;Rechts;3;61;left;yes;250;undefined;null;true;focus;yes;641509;Chrome;112.0;Windows;10;undefined;undefined;1536 x 864;1536 x 864
H022;21;Vrouwelijk;Rechts;3;62;right;no;300;rightarrow;523;true;focus;yes;642814;Chrome;112.0;Windows;10;undefined;undefined;1536 x 864;1536 x 864
H022;21;Vrouwelijk;Rechts;3;63;left;no;300;leftarrow;437;true;focus;yes;644028;Chrome;112.0;Windows;10;undefined;undefined;1536 x 864;1536 x 864
H022;21;Vrouwelijk;Rechts;3;64;right;no;300;rightarrow;458;true;focus;yes;645263;Chrome;112.0;Windows;10;undefined;undefined;1536 x 864;1536 x 864
H022;21;Vrouwelijk;Rechts;3;65;right;no;300;rightarrow;421;true;focus;yes;646446;Chrome;112.0;Windows;10;undefined;undefined;1536 x 864;1536 x 864
H022;21;Vrouwelijk;Rechts;3;66;left;no;300;leftarrow;521;true;focus;yes;647747;Chrome;112.0;Windows;10;undefined;undefined;1536 x 864;1536 x 864
H022;21;Vrouwelijk;Rechts;3;67;right;no;300;rightarrow;462;true;focus;yes;648981;Chrome;112.0;Windows;10;undefined;undefined;1536 x 864;1536 x 864
H022;21;Vrouwelijk;Rechts;3;68;right;no;300;rightarrow;478;true;focus;yes;650245;Chrome;112.0;Windows;10;undefined;undefined;1536 x 864;1536 x 864
H022;21;Vrouwelijk;Rechts;3;69;right;yes;300;rightarrow;410;false;focus;yes;651440;Chrome;112.0;Windows;10;undefined;undefined;1536 x 864;1536 x 864
H022;21;Vrouwelijk;Rechts;3;70;left;yes;250;undefined;null;true;focus;yes;653474;Chrome;112.0;Windows;10;undefined;undefined;1536 x 864;1536 x 864
H022;21;Vrouwelijk;Rechts;3;71;left;no;300;leftarrow;822;true;focus;yes;655079;Chrome;112.0;Windows;10;undefined;undefined;1536 x 864;1536 x 864
H022;21;Vrouwelijk;Rechts;3;72;left;no;300;leftarrow;494;true;focus;yes;656359;Chrome;112.0;Windows;10;undefined;undefined;1536 x 864;1536 x 864
H022;21;Vrouwelijk;Rechts;3;73;right;no;300;rightarrow;519;true;focus;yes;657659;Chrome;112.0;Windows;10;undefined;undefined;1536 x 864;1536 x 864
H022;21;Vrouwelijk;Rechts;3;74;right;no;300;rightarrow;539;true;focus;yes;658984;Chrome;112.0;Windows;10;undefined;undefined;1536 x 864;1536 x 864
H022;21;Vrouwelijk;Rechts;3;75;left;yes;300;leftarrow;542;false;focus;yes;660315;Chrome;112.0;Windows;10;undefined;undefined;1536 x 864;1536 x 864
H022;21;Vrouwelijk;Rechts;3;76;left;no;250;leftarrow;738;true;focus;yes;661837;Chrome;112.0;Windows;10;undefined;undefined;1536 x 864;1536 x 864
H022;21;Vrouwelijk;Rechts;3;77;left;no;250;leftarrow;474;true;focus;yes;663100;Chrome;112.0;Windows;10;undefined;undefined;1536 x 864;1536 x 864
H022;21;Vrouwelijk;Rechts;3;78;right;yes;250;undefined;null;true;focus;yes;665133;Chrome;112.0;Windows;10;undefined;undefined;1536 x 864;1536 x 864
H022;21;Vrouwelijk;Rechts;3;79;left;no;300;leftarrow;474;true;focus;yes;666390;Chrome;112.0;Windows;10;undefined;undefined;1536 x 864;1536 x 864
H022;21;Vrouwelijk;Rechts;3;80;right;no;300;rightarrow;451;true;focus;yes;667626;Chrome;112.0;Windows;10;undefined;undefined;1536 x 864;1536 x 864
H022;21;Vrouwelijk;Rechts;3;81;right;yes;300;undefined;null;true;focus;yes;669671;Chrome;112.0;Windows;10;undefined;undefined;1536 x 864;1536 x 864
H022;21;Vrouwelijk;Rechts;3;82;left;no;350;leftarrow;441;true;focus;yes;670897;Chrome;112.0;Windows;10;undefined;undefined;1536 x 864;1536 x 864
H022;21;Vrouwelijk;Rechts;3;83;left;yes;350;leftarrow;413;false;focus;yes;672084;Chrome;112.0;Windows;10;undefined;undefined;1536 x 864;1536 x 864
H022;21;Vrouwelijk;Rechts;3;84;left;no;300;leftarrow;544;true;focus;yes;673401;Chrome;112.0;Windows;10;undefined;undefined;1536 x 864;1536 x 864
H022;21;Vrouwelijk;Rechts;3;85;right;no;300;rightarrow;515;true;focus;yes;674697;Chrome;112.0;Windows;10;undefined;undefined;1536 x 864;1536 x 864
H022;21;Vrouwelijk;Rechts;3;86;right;no;300;rightarrow;516;true;focus;yes;675995;Chrome;112.0;Windows;10;undefined;undefined;1536 x 864;1536 x 864
H022;21;Vrouwelijk;Rechts;3;87;right;no;300;rightarrow;503;true;focus;yes;677277;Chrome;112.0;Windows;10;undefined;undefined;1536 x 864;1536 x 864
H022;21;Vrouwelijk;Rechts;3;88;left;no;300;rightarrow;366;false;focus;yes;678434;Chrome;112.0;Windows;10;undefined;undefined;1536 x 864;1536 x 864
H022;21;Vrouwelijk;Rechts;3;89;left;yes;300;leftarrow;488;false;focus;yes;679707;Chrome;112.0;Windows;10;undefined;undefined;1536 x 864;1536 x 864
H022;21;Vrouwelijk;Rechts;3;90;right;no;250;rightarrow;527;true;focus;yes;681008;Chrome;112.0;Windows;10;undefined;undefined;1536 x 864;1536 x 864
H022;21;Vrouwelijk;Rechts;3;91;right;no;250;rightarrow;657;true;focus;yes;682448;Chrome;112.0;Windows;10;undefined;undefined;1536 x 864;1536 x 864
H022;21;Vrouwelijk;Rechts;3;92;left;no;250;leftarrow;441;true;focus;yes;683667;Chrome;112.0;Windows;10;undefined;undefined;1536 x 864;1536 x 864
H022;21;Vrouwelijk;Rechts;3;93;right;yes;250;rightarrow;443;false;focus;yes;684869;Chrome;112.0;Windows;10;undefined;undefined;1536 x 864;1536 x 864
H022;21;Vrouwelijk;Rechts;3;94;left;no;200;leftarrow;502;true;focus;yes;686146;Chrome;112.0;Windows;10;undefined;undefined;1536 x 864;1536 x 864
H022;21;Vrouwelijk;Rechts;3;95;left;no;200;leftarrow;527;true;focus;yes;687448;Chrome;112.0;Windows;10;undefined;undefined;1536 x 864;1536 x 864
H022;21;Vrouwelijk;Rechts;3;96;right;no;200;rightarrow;403;true;focus;yes;688636;Chrome;112.0;Windows;10;undefined;undefined;1536 x 864;1536 x 864
H022;21;Vrouwelijk;Rechts;3;97;left;no;200;leftarrow;517;true;focus;yes;689935;Chrome;112.0;Windows;10;undefined;undefined;1536 x 864;1536 x 864
H022;21;Vrouwelijk;Rechts;3;98;left;no;200;leftarrow;410;true;focus;yes;691124;Chrome;112.0;Windows;10;undefined;undefined;1536 x 864;1536 x 864
H022;21;Vrouwelijk;Rechts;3;99;right;yes;200;undefined;null;true;focus;yes;693158;Chrome;112.0;Windows;10;undefined;undefined;1536 x 864;1536 x 864
H022;21;Vrouwelijk;Rechts;3;100;right;no;250;rightarrow;401;true;focus;yes;694343;Chrome;112.0;Windows;10;undefined;undefined;1536 x 864;1536 x 864
H022;21;Vrouwelijk;Rechts;3;101;right;no;250;rightarrow;453;true;focus;yes;695583;Chrome;112.0;Windows;10;undefined;undefined;1536 x 864;1536 x 864
H022;21;Vrouwelijk;Rechts;3;102;left;no;250;leftarrow;491;true;focus;yes;696852;Chrome;112.0;Windows;10;undefined;undefined;1536 x 864;1536 x 864
H022;21;Vrouwelijk;Rechts;3;103;right;no;250;rightarrow;521;true;focus;yes;698147;Chrome;112.0;Windows;10;undefined;undefined;1536 x 864;1536 x 864
H022;21;Vrouwelijk;Rechts;3;104;left;yes;250;leftarrow;450;false;focus;yes;699385;Chrome;112.0;Windows;10;undefined;undefined;1536 x 864;1536 x 864
H022;21;Vrouwelijk;Rechts;3;105;left;yes;200;undefined;null;true;focus;yes;701433;Chrome;112.0;Windows;10;undefined;undefined;1536 x 864;1536 x 864
H022;21;Vrouwelijk;Rechts;3;106;right;yes;250;rightarrow;452;false;focus;yes;702669;Chrome;112.0;Windows;10;undefined;undefined;1536 x 864;1536 x 864
H022;21;Vrouwelijk;Rechts;3;107;right;no;200;rightarrow;436;true;focus;yes;703892;Chrome;112.0;Windows;10;undefined;undefined;1536 x 864;1536 x 864
H022;21;Vrouwelijk;Rechts;3;108;left;no;200;leftarrow;445;true;focus;yes;705118;Chrome;112.0;Windows;10;undefined;undefined;1536 x 864;1536 x 864
H022;21;Vrouwelijk;Rechts;3;109;right;no;200;rightarrow;465;true;focus;yes;706359;Chrome;112.0;Windows;10;undefined;undefined;1536 x 864;1536 x 864
H022;21;Vrouwelijk;Rechts;3;110;left;no;200;leftarrow;426;true;focus;yes;707569;Chrome;112.0;Windows;10;undefined;undefined;1536 x 864;1536 x 864
H022;21;Vrouwelijk;Rechts;3;111;right;no;200;rightarrow;402;true;focus;yes;708748;Chrome;112.0;Windows;10;undefined;undefined;1536 x 864;1536 x 864
H022;21;Vrouwelijk;Rechts;3;112;left;no;200;leftarrow;377;true;focus;yes;709910;Chrome;112.0;Windows;10;undefined;undefined;1536 x 864;1536 x 864
H022;21;Vrouwelijk;Rechts;3;113;left;no;200;leftarrow;438;true;focus;yes;711129;Chrome;112.0;Windows;10;undefined;undefined;1536 x 864;1536 x 864
H022;21;Vrouwelijk;Rechts;3;114;right;no;200;rightarrow;417;true;focus;yes;712324;Chrome;112.0;Windows;10;undefined;undefined;1536 x 864;1536 x 864
H022;21;Vrouwelijk;Rechts;3;115;right;no;200;rightarrow;393;true;focus;yes;713503;Chrome;112.0;Windows;10;undefined;undefined;1536 x 864;1536 x 864
H022;21;Vrouwelijk;Rechts;3;116;right;no;200;rightarrow;414;true;focus;yes;714694;Chrome;112.0;Windows;10;undefined;undefined;1536 x 864;1536 x 864
H022;21;Vrouwelijk;Rechts;3;117;right;yes;200;rightarrow;425;false;focus;yes;715907;Chrome;112.0;Windows;10;undefined;undefined;1536 x 864;1536 x 864
H022;21;Vrouwelijk;Rechts;3;118;left;no;150;leftarrow;415;true;focus;yes;717095;Chrome;112.0;Windows;10;undefined;undefined;1536 x 864;1536 x 864
H022;21;Vrouwelijk;Rechts;3;119;left;no;150;leftarrow;425;true;focus;yes;718310;Chrome;112.0;Windows;10;undefined;undefined;1536 x 864;1536 x 864
H022;21;Vrouwelijk;Rechts;3;120;left;yes;150;undefined;null;true;focus;yes;720336;Chrome;112.0;Windows;10;undefined;undefined;1536 x 864;1536 x 864
H022;21;Vrouwelijk;Rechts;3;121;right;yes;200;undefined;null;true;focus;yes;722386;Chrome;112.0;Windows;10;undefined;undefined;1536 x 864;1536 x 864
H022;21;Vrouwelijk;Rechts;3;122;right;no;250;rightarrow;445;true;focus;yes;723614;Chrome;112.0;Windows;10;undefined;undefined;1536 x 864;1536 x 864
H022;21;Vrouwelijk;Rechts;3;123;left;no;250;leftarrow;449;true;focus;yes;724847;Chrome;112.0;Windows;10;undefined;undefined;1536 x 864;1536 x 864
H022;21;Vrouwelijk;Rechts;3;124;right;no;250;rightarrow;412;true;focus;yes;726037;Chrome;112.0;Windows;10;undefined;undefined;1536 x 864;1536 x 864
H022;21;Vrouwelijk;Rechts;3;125;right;no;250;rightarrow;403;true;focus;yes;727216;Chrome;112.0;Windows;10;undefined;undefined;1536 x 864;1536 x 864
H022;21;Vrouwelijk;Rechts;3;126;left;no;250;leftarrow;429;true;focus;yes;728428;Chrome;112.0;Windows;10;undefined;undefined;1536 x 864;1536 x 864
H022;21;Vrouwelijk;Rechts;3;127;left;no;250;leftarrow;429;true;focus;yes;729645;Chrome;112.0;Windows;10;undefined;undefined;1536 x 864;1536 x 864
H022;21;Vrouwelijk;Rechts;3;128;left;yes;250;leftarrow;462;false;focus;yes;730892;Chrome;112.0;Windows;10;undefined;undefined;1536 x 864;1536 x 864
H022;21;Vrouwelijk;Rechts;4;1;right;no;200;rightarrow;505;true;focus;yes;751091;Chrome;112.0;Windows;10;undefined;undefined;1536 x 864;1536 x 864
H022;21;Vrouwelijk;Rechts;4;2;left;no;200;leftarrow;504;true;focus;yes;752380;Chrome;112.0;Windows;10;undefined;undefined;1536 x 864;1536 x 864
H022;21;Vrouwelijk;Rechts;4;3;right;yes;200;rightarrow;431;false;focus;yes;753588;Chrome;112.0;Windows;10;undefined;undefined;1536 x 864;1536 x 864
H022;21;Vrouwelijk;Rechts;4;4;left;no;150;leftarrow;554;true;focus;yes;754923;Chrome;112.0;Windows;10;undefined;undefined;1536 x 864;1536 x 864
H022;21;Vrouwelijk;Rechts;4;5;left;yes;150;undefined;null;true;focus;yes;756965;Chrome;112.0;Windows;10;undefined;undefined;1536 x 864;1536 x 864
H022;21;Vrouwelijk;Rechts;4;6;right;no;200;rightarrow;522;true;focus;yes;758270;Chrome;112.0;Windows;10;undefined;undefined;1536 x 864;1536 x 864
H022;21;Vrouwelijk;Rechts;4;7;left;no;200;leftarrow;525;true;focus;yes;759580;Chrome;112.0;Windows;10;undefined;undefined;1536 x 864;1536 x 864
H022;21;Vrouwelijk;Rechts;4;8;right;no;200;rightarrow;469;true;focus;yes;760838;Chrome;112.0;Windows;10;undefined;undefined;1536 x 864;1536 x 864
H022;21;Vrouwelijk;Rechts;4;9;right;no;200;rightarrow;426;true;focus;yes;762043;Chrome;112.0;Windows;10;undefined;undefined;1536 x 864;1536 x 864
H022;21;Vrouwelijk;Rechts;4;10;left;no;200;leftarrow;449;true;focus;yes;763281;Chrome;112.0;Windows;10;undefined;undefined;1536 x 864;1536 x 864
H022;21;Vrouwelijk;Rechts;4;11;right;no;200;rightarrow;486;true;focus;yes;764545;Chrome;112.0;Windows;10;undefined;undefined;1536 x 864;1536 x 864
H022;21;Vrouwelijk;Rechts;4;12;left;no;200;leftarrow;484;true;focus;yes;765809;Chrome;112.0;Windows;10;undefined;undefined;1536 x 864;1536 x 864
H022;21;Vrouwelijk;Rechts;4;13;right;no;200;rightarrow;462;true;focus;yes;767047;Chrome;112.0;Windows;10;undefined;undefined;1536 x 864;1536 x 864
H022;21;Vrouwelijk;Rechts;4;14;left;yes;200;undefined;null;true;focus;yes;769094;Chrome;112.0;Windows;10;undefined;undefined;1536 x 864;1536 x 864
H022;21;Vrouwelijk;Rechts;4;15;left;no;250;leftarrow;572;true;focus;yes;770452;Chrome;112.0;Windows;10;undefined;undefined;1536 x 864;1536 x 864
H022;21;Vrouwelijk;Rechts;4;16;right;yes;250;undefined;null;true;focus;yes;772497;Chrome;112.0;Windows;10;undefined;undefined;1536 x 864;1536 x 864
H022;21;Vrouwelijk;Rechts;4;17;left;no;300;leftarrow;510;true;focus;yes;773789;Chrome;112.0;Windows;10;undefined;undefined;1536 x 864;1536 x 864
H022;21;Vrouwelijk;Rechts;4;18;right;no;300;rightarrow;496;true;focus;yes;775066;Chrome;112.0;Windows;10;undefined;undefined;1536 x 864;1536 x 864
H022;21;Vrouwelijk;Rechts;4;19;left;no;300;leftarrow;439;true;focus;yes;776286;Chrome;112.0;Windows;10;undefined;undefined;1536 x 864;1536 x 864
H022;21;Vrouwelijk;Rechts;4;20;left;no;300;leftarrow;568;true;focus;yes;777627;Chrome;112.0;Windows;10;undefined;undefined;1536 x 864;1536 x 864
H022;21;Vrouwelijk;Rechts;4;21;right;no;300;rightarrow;464;true;focus;yes;778879;Chrome;112.0;Windows;10;undefined;undefined;1536 x 864;1536 x 864
H022;21;Vrouwelijk;Rechts;4;22;left;yes;300;leftarrow;512;false;focus;yes;780174;Chrome;112.0;Windows;10;undefined;undefined;1536 x 864;1536 x 864
H022;21;Vrouwelijk;Rechts;4;23;right;yes;250;rightarrow;455;false;focus;yes;781412;Chrome;112.0;Windows;10;undefined;undefined;1536 x 864;1536 x 864
H022;21;Vrouwelijk;Rechts;4;24;right;no;200;rightarrow;593;true;focus;yes;782780;Chrome;112.0;Windows;10;undefined;undefined;1536 x 864;1536 x 864
H022;21;Vrouwelijk;Rechts;4;25;left;yes;200;undefined;null;true;focus;yes;784827;Chrome;112.0;Windows;10;undefined;undefined;1536 x 864;1536 x 864
H022;21;Vrouwelijk;Rechts;4;26;right;no;250;rightarrow;445;true;focus;yes;786055;Chrome;112.0;Windows;10;undefined;undefined;1536 x 864;1536 x 864
H022;21;Vrouwelijk;Rechts;4;27;right;no;250;rightarrow;474;true;focus;yes;787315;Chrome;112.0;Windows;10;undefined;undefined;1536 x 864;1536 x 864
H022;21;Vrouwelijk;Rechts;4;28;left;no;250;leftarrow;473;true;focus;yes;788574;Chrome;112.0;Windows;10;undefined;undefined;1536 x 864;1536 x 864
H022;21;Vrouwelijk;Rechts;4;29;left;no;250;leftarrow;467;true;focus;yes;789803;Chrome;112.0;Windows;10;undefined;undefined;1536 x 864;1536 x 864
H022;21;Vrouwelijk;Rechts;4;30;right;no;250;rightarrow;571;true;focus;yes;791153;Chrome;112.0;Windows;10;undefined;undefined;1536 x 864;1536 x 864
H022;21;Vrouwelijk;Rechts;4;31;left;no;250;leftarrow;442;true;focus;yes;792381;Chrome;112.0;Windows;10;undefined;undefined;1536 x 864;1536 x 864
H022;21;Vrouwelijk;Rechts;4;32;right;yes;250;undefined;null;true;focus;yes;794414;Chrome;112.0;Windows;10;undefined;undefined;1536 x 864;1536 x 864
H022;21;Vrouwelijk;Rechts;4;33;right;yes;300;undefined;null;true;focus;yes;796457;Chrome;112.0;Windows;10;undefined;undefined;1536 x 864;1536 x 864
H022;21;Vrouwelijk;Rechts;4;34;left;no;350;leftarrow;673;true;focus;yes;797899;Chrome;112.0;Windows;10;undefined;undefined;1536 x 864;1536 x 864
H022;21;Vrouwelijk;Rechts;4;35;right;no;350;rightarrow;709;true;focus;yes;799390;Chrome;112.0;Windows;10;undefined;undefined;1536 x 864;1536 x 864
H022;21;Vrouwelijk;Rechts;4;36;left;yes;350;leftarrow;611;false;focus;yes;800775;Chrome;112.0;Windows;10;undefined;undefined;1536 x 864;1536 x 864
H022;21;Vrouwelijk;Rechts;4;37;right;no;300;rightarrow;570;true;focus;yes;802122;Chrome;112.0;Windows;10;undefined;undefined;1536 x 864;1536 x 864
H022;21;Vrouwelijk;Rechts;4;38;left;no;300;leftarrow;594;true;focus;yes;803491;Chrome;112.0;Windows;10;undefined;undefined;1536 x 864;1536 x 864
H022;21;Vrouwelijk;Rechts;4;39;left;no;300;leftarrow;526;true;focus;yes;804794;Chrome;112.0;Windows;10;undefined;undefined;1536 x 864;1536 x 864
H022;21;Vrouwelijk;Rechts;4;40;right;no;300;rightarrow;561;true;focus;yes;806139;Chrome;112.0;Windows;10;undefined;undefined;1536 x 864;1536 x 864
H022;21;Vrouwelijk;Rechts;4;41;right;no;300;rightarrow;583;true;focus;yes;807502;Chrome;112.0;Windows;10;undefined;undefined;1536 x 864;1536 x 864
H022;21;Vrouwelijk;Rechts;4;42;left;yes;300;undefined;null;true;focus;yes;809551;Chrome;112.0;Windows;10;undefined;undefined;1536 x 864;1536 x 864
H022;21;Vrouwelijk;Rechts;4;43;left;no;350;leftarrow;521;true;focus;yes;810855;Chrome;112.0;Windows;10;undefined;undefined;1536 x 864;1536 x 864
H022;21;Vrouwelijk;Rechts;4;44;left;no;350;leftarrow;546;true;focus;yes;812180;Chrome;112.0;Windows;10;undefined;undefined;1536 x 864;1536 x 864
H022;21;Vrouwelijk;Rechts;4;45;right;no;350;rightarrow;600;true;focus;yes;813559;Chrome;112.0;Windows;10;undefined;undefined;1536 x 864;1536 x 864
H022;21;Vrouwelijk;Rechts;4;46;left;no;350;leftarrow;521;true;focus;yes;814863;Chrome;112.0;Windows;10;undefined;undefined;1536 x 864;1536 x 864
H022;21;Vrouwelijk;Rechts;4;47;right;no;350;rightarrow;490;true;focus;yes;816129;Chrome;112.0;Windows;10;undefined;undefined;1536 x 864;1536 x 864
H022;21;Vrouwelijk;Rechts;4;48;right;yes;350;rightarrow;519;false;focus;yes;817433;Chrome;112.0;Windows;10;undefined;undefined;1536 x 864;1536 x 864
H022;21;Vrouwelijk;Rechts;4;49;left;no;300;leftarrow;615;true;focus;yes;818824;Chrome;112.0;Windows;10;undefined;undefined;1536 x 864;1536 x 864
H022;21;Vrouwelijk;Rechts;4;50;left;no;300;leftarrow;526;true;focus;yes;820134;Chrome;112.0;Windows;10;undefined;undefined;1536 x 864;1536 x 864
H022;21;Vrouwelijk;Rechts;4;51;right;no;300;rightarrow;549;true;focus;yes;821463;Chrome;112.0;Windows;10;undefined;undefined;1536 x 864;1536 x 864
H022;21;Vrouwelijk;Rechts;4;52;right;no;300;rightarrow;556;true;focus;yes;822807;Chrome;112.0;Windows;10;undefined;undefined;1536 x 864;1536 x 864
H022;21;Vrouwelijk;Rechts;4;53;left;yes;300;undefined;null;true;focus;yes;824854;Chrome;112.0;Windows;10;undefined;undefined;1536 x 864;1536 x 864
H022;21;Vrouwelijk;Rechts;4;54;left;no;350;leftarrow;506;true;focus;yes;826144;Chrome;112.0;Windows;10;undefined;undefined;1536 x 864;1536 x 864
H022;21;Vrouwelijk;Rechts;4;55;right;no;350;rightarrow;551;true;focus;yes;827482;Chrome;112.0;Windows;10;undefined;undefined;1536 x 864;1536 x 864
H022;21;Vrouwelijk;Rechts;4;56;right;yes;350;rightarrow;412;false;focus;yes;828659;Chrome;112.0;Windows;10;undefined;undefined;1536 x 864;1536 x 864
H022;21;Vrouwelijk;Rechts;4;57;right;no;300;rightarrow;468;true;focus;yes;829915;Chrome;112.0;Windows;10;undefined;undefined;1536 x 864;1536 x 864
H022;21;Vrouwelijk;Rechts;4;58;right;no;300;rightarrow;459;true;focus;yes;831153;Chrome;112.0;Windows;10;undefined;undefined;1536 x 864;1536 x 864
H022;21;Vrouwelijk;Rechts;4;59;left;no;300;leftarrow;549;true;focus;yes;832486;Chrome;112.0;Windows;10;undefined;undefined;1536 x 864;1536 x 864
H022;21;Vrouwelijk;Rechts;4;60;right;no;300;rightarrow;603;true;focus;yes;833872;Chrome;112.0;Windows;10;undefined;undefined;1536 x 864;1536 x 864
H022;21;Vrouwelijk;Rechts;4;61;right;yes;300;rightarrow;446;false;focus;yes;835101;Chrome;112.0;Windows;10;undefined;undefined;1536 x 864;1536 x 864
H022;21;Vrouwelijk;Rechts;4;62;left;no;250;leftarrow;399;true;focus;yes;836282;Chrome;112.0;Windows;10;undefined;undefined;1536 x 864;1536 x 864
H022;21;Vrouwelijk;Rechts;4;63;left;yes;250;undefined;null;true;focus;yes;838318;Chrome;112.0;Windows;10;undefined;undefined;1536 x 864;1536 x 864
H022;21;Vrouwelijk;Rechts;4;64;left;no;300;leftarrow;430;true;focus;yes;839532;Chrome;112.0;Windows;10;undefined;undefined;1536 x 864;1536 x 864
H022;21;Vrouwelijk;Rechts;4;65;left;no;300;leftarrow;401;true;focus;yes;840715;Chrome;112.0;Windows;10;undefined;undefined;1536 x 864;1536 x 864
H022;21;Vrouwelijk;Rechts;4;66;right;no;300;rightarrow;475;true;focus;yes;841979;Chrome;112.0;Windows;10;undefined;undefined;1536 x 864;1536 x 864
H022;21;Vrouwelijk;Rechts;4;67;left;no;300;leftarrow;447;true;focus;yes;843214;Chrome;112.0;Windows;10;undefined;undefined;1536 x 864;1536 x 864
H022;21;Vrouwelijk;Rechts;4;68;left;yes;300;leftarrow;543;false;focus;yes;844542;Chrome;112.0;Windows;10;undefined;undefined;1536 x 864;1536 x 864
H022;21;Vrouwelijk;Rechts;4;69;right;no;250;rightarrow;463;true;focus;yes;845786;Chrome;112.0;Windows;10;undefined;undefined;1536 x 864;1536 x 864
H022;21;Vrouwelijk;Rechts;4;70;left;no;250;leftarrow;512;true;focus;yes;847085;Chrome;112.0;Windows;10;undefined;undefined;1536 x 864;1536 x 864
H022;21;Vrouwelijk;Rechts;4;71;right;yes;250;undefined;null;true;focus;yes;849127;Chrome;112.0;Windows;10;undefined;undefined;1536 x 864;1536 x 864
H022;21;Vrouwelijk;Rechts;4;72;right;no;300;rightarrow;453;true;focus;yes;850368;Chrome;112.0;Windows;10;undefined;undefined;1536 x 864;1536 x 864
H022;21;Vrouwelijk;Rechts;4;73;left;yes;300;leftarrow;457;false;focus;yes;851602;Chrome;112.0;Windows;10;undefined;undefined;1536 x 864;1536 x 864
H022;21;Vrouwelijk;Rechts;4;74;right;no;250;rightarrow;450;true;focus;yes;852826;Chrome;112.0;Windows;10;undefined;undefined;1536 x 864;1536 x 864
H022;21;Vrouwelijk;Rechts;4;75;left;no;250;leftarrow;530;true;focus;yes;854134;Chrome;112.0;Windows;10;undefined;undefined;1536 x 864;1536 x 864
H022;21;Vrouwelijk;Rechts;4;76;left;no;250;leftarrow;503;true;focus;yes;855418;Chrome;112.0;Windows;10;undefined;undefined;1536 x 864;1536 x 864
H022;21;Vrouwelijk;Rechts;4;77;right;yes;250;undefined;null;true;focus;yes;857457;Chrome;112.0;Windows;10;undefined;undefined;1536 x 864;1536 x 864
H022;21;Vrouwelijk;Rechts;4;78;left;no;300;leftarrow;504;true;focus;yes;858744;Chrome;112.0;Windows;10;undefined;undefined;1536 x 864;1536 x 864
H022;21;Vrouwelijk;Rechts;4;79;right;no;300;rightarrow;442;true;focus;yes;859962;Chrome;112.0;Windows;10;undefined;undefined;1536 x 864;1536 x 864
H022;21;Vrouwelijk;Rechts;4;80;right;no;300;rightarrow;491;true;focus;yes;861229;Chrome;112.0;Windows;10;undefined;undefined;1536 x 864;1536 x 864
H022;21;Vrouwelijk;Rechts;4;81;left;no;300;leftarrow;498;true;focus;yes;862512;Chrome;112.0;Windows;10;undefined;undefined;1536 x 864;1536 x 864
H022;21;Vrouwelijk;Rechts;4;82;right;no;300;rightarrow;421;true;focus;yes;863718;Chrome;112.0;Windows;10;undefined;undefined;1536 x 864;1536 x 864
H022;21;Vrouwelijk;Rechts;4;83;right;no;300;rightarrow;508;true;focus;yes;865000;Chrome;112.0;Windows;10;undefined;undefined;1536 x 864;1536 x 864
H022;21;Vrouwelijk;Rechts;4;84;right;no;300;rightarrow;440;true;focus;yes;866224;Chrome;112.0;Windows;10;undefined;undefined;1536 x 864;1536 x 864
H022;21;Vrouwelijk;Rechts;4;85;left;no;300;leftarrow;530;true;focus;yes;867533;Chrome;112.0;Windows;10;undefined;undefined;1536 x 864;1536 x 864
H022;21;Vrouwelijk;Rechts;4;86;right;yes;300;rightarrow;525;false;focus;yes;868836;Chrome;112.0;Windows;10;undefined;undefined;1536 x 864;1536 x 864
H022;21;Vrouwelijk;Rechts;4;87;left;no;250;leftarrow;500;true;focus;yes;870122;Chrome;112.0;Windows;10;undefined;undefined;1536 x 864;1536 x 864
H022;21;Vrouwelijk;Rechts;4;88;left;yes;250;undefined;null;true;focus;yes;872158;Chrome;112.0;Windows;10;undefined;undefined;1536 x 864;1536 x 864
H022;21;Vrouwelijk;Rechts;4;89;left;no;300;leftarrow;439;true;focus;yes;873380;Chrome;112.0;Windows;10;undefined;undefined;1536 x 864;1536 x 864
H022;21;Vrouwelijk;Rechts;4;90;left;no;300;leftarrow;421;true;focus;yes;874578;Chrome;112.0;Windows;10;undefined;undefined;1536 x 864;1536 x 864
H022;21;Vrouwelijk;Rechts;4;91;right;no;300;rightarrow;579;true;focus;yes;875935;Chrome;112.0;Windows;10;undefined;undefined;1536 x 864;1536 x 864
H022;21;Vrouwelijk;Rechts;4;92;right;no;300;rightarrow;399;true;focus;yes;877112;Chrome;112.0;Windows;10;undefined;undefined;1536 x 864;1536 x 864
H022;21;Vrouwelijk;Rechts;4;93;right;no;300;rightarrow;422;true;focus;yes;878322;Chrome;112.0;Windows;10;undefined;undefined;1536 x 864;1536 x 864
H022;21;Vrouwelijk;Rechts;4;94;left;yes;300;leftarrow;485;false;focus;yes;879586;Chrome;112.0;Windows;10;undefined;undefined;1536 x 864;1536 x 864
H022;21;Vrouwelijk;Rechts;4;95;left;no;250;leftarrow;421;true;focus;yes;880796;Chrome;112.0;Windows;10;undefined;undefined;1536 x 864;1536 x 864
H022;21;Vrouwelijk;Rechts;4;96;right;yes;250;undefined;null;true;focus;yes;882831;Chrome;112.0;Windows;10;undefined;undefined;1536 x 864;1536 x 864
H022;21;Vrouwelijk;Rechts;4;97;right;no;300;rightarrow;464;true;focus;yes;884080;Chrome;112.0;Windows;10;undefined;undefined;1536 x 864;1536 x 864
H022;21;Vrouwelijk;Rechts;4;98;left;no;300;leftarrow;435;true;focus;yes;885299;Chrome;112.0;Windows;10;undefined;undefined;1536 x 864;1536 x 864
H022;21;Vrouwelijk;Rechts;4;99;right;no;300;rightarrow;431;true;focus;yes;886510;Chrome;112.0;Windows;10;undefined;undefined;1536 x 864;1536 x 864
H022;21;Vrouwelijk;Rechts;4;100;left;no;300;leftarrow;428;true;focus;yes;887722;Chrome;112.0;Windows;10;undefined;undefined;1536 x 864;1536 x 864
H022;21;Vrouwelijk;Rechts;4;101;left;no;300;leftarrow;435;true;focus;yes;888945;Chrome;112.0;Windows;10;undefined;undefined;1536 x 864;1536 x 864
H022;21;Vrouwelijk;Rechts;4;102;left;yes;300;leftarrow;471;false;focus;yes;890196;Chrome;112.0;Windows;10;undefined;undefined;1536 x 864;1536 x 864
H022;21;Vrouwelijk;Rechts;4;103;right;no;250;rightarrow;438;true;focus;yes;891412;Chrome;112.0;Windows;10;undefined;undefined;1536 x 864;1536 x 864
H022;21;Vrouwelijk;Rechts;4;104;right;yes;250;undefined;null;true;focus;yes;893450;Chrome;112.0;Windows;10;undefined;undefined;1536 x 864;1536 x 864
H022;21;Vrouwelijk;Rechts;4;105;left;no;300;leftarrow;633;true;focus;yes;894872;Chrome;112.0;Windows;10;undefined;undefined;1536 x 864;1536 x 864
H022;21;Vrouwelijk;Rechts;4;106;right;no;300;rightarrow;471;true;focus;yes;896130;Chrome;112.0;Windows;10;undefined;undefined;1536 x 864;1536 x 864
H022;21;Vrouwelijk;Rechts;4;107;right;no;300;rightarrow;544;true;focus;yes;897452;Chrome;112.0;Windows;10;undefined;undefined;1536 x 864;1536 x 864
H022;21;Vrouwelijk;Rechts;4;108;right;no;300;rightarrow;467;true;focus;yes;898700;Chrome;112.0;Windows;10;undefined;undefined;1536 x 864;1536 x 864
H022;21;Vrouwelijk;Rechts;4;109;left;no;300;leftarrow;628;true;focus;yes;900110;Chrome;112.0;Windows;10;undefined;undefined;1536 x 864;1536 x 864
H022;21;Vrouwelijk;Rechts;4;110;right;yes;300;undefined;null;true;focus;yes;902156;Chrome;112.0;Windows;10;undefined;undefined;1536 x 864;1536 x 864
H022;21;Vrouwelijk;Rechts;4;111;left;no;350;leftarrow;615;true;focus;yes;903556;Chrome;112.0;Windows;10;undefined;undefined;1536 x 864;1536 x 864
H022;21;Vrouwelijk;Rechts;4;112;left;yes;350;leftarrow;450;false;focus;yes;904788;Chrome;112.0;Windows;10;undefined;undefined;1536 x 864;1536 x 864
H022;21;Vrouwelijk;Rechts;4;113;right;no;300;rightarrow;533;true;focus;yes;906103;Chrome;112.0;Windows;10;undefined;undefined;1536 x 864;1536 x 864
H022;21;Vrouwelijk;Rechts;4;114;left;no;300;leftarrow;492;true;focus;yes;907357;Chrome;112.0;Windows;10;undefined;undefined;1536 x 864;1536 x 864
H022;21;Vrouwelijk;Rechts;4;115;right;no;300;rightarrow;507;true;focus;yes;908646;Chrome;112.0;Windows;10;undefined;undefined;1536 x 864;1536 x 864
H022;21;Vrouwelijk;Rechts;4;116;right;yes;300;rightarrow;460;false;focus;yes;909879;Chrome;112.0;Windows;10;undefined;undefined;1536 x 864;1536 x 864
H022;21;Vrouwelijk;Rechts;4;117;right;no;250;rightarrow;562;true;focus;yes;911229;Chrome;112.0;Windows;10;undefined;undefined;1536 x 864;1536 x 864
H022;21;Vrouwelijk;Rechts;4;118;left;yes;250;leftarrow;461;false;focus;yes;912467;Chrome;112.0;Windows;10;undefined;undefined;1536 x 864;1536 x 864
H022;21;Vrouwelijk;Rechts;4;119;left;no;200;leftarrow;426;true;focus;yes;913676;Chrome;112.0;Windows;10;undefined;undefined;1536 x 864;1536 x 864
H022;21;Vrouwelijk;Rechts;4;120;left;no;200;leftarrow;450;true;focus;yes;914903;Chrome;112.0;Windows;10;undefined;undefined;1536 x 864;1536 x 864
H022;21;Vrouwelijk;Rechts;4;121;left;no;200;leftarrow;415;true;focus;yes;916100;Chrome;112.0;Windows;10;undefined;undefined;1536 x 864;1536 x 864
H022;21;Vrouwelijk;Rechts;4;122;right;yes;200;undefined;null;true;focus;yes;918143;Chrome;112.0;Windows;10;undefined;undefined;1536 x 864;1536 x 864
H022;21;Vrouwelijk;Rechts;4;123;left;yes;250;leftarrow;449;false;focus;yes;919375;Chrome;112.0;Windows;10;undefined;undefined;1536 x 864;1536 x 864
H022;21;Vrouwelijk;Rechts;4;124;right;no;200;rightarrow;533;true;focus;yes;920691;Chrome;112.0;Windows;10;undefined;undefined;1536 x 864;1536 x 864
H022;21;Vrouwelijk;Rechts;4;125;right;no;200;rightarrow;499;true;focus;yes;921965;Chrome;112.0;Windows;10;undefined;undefined;1536 x 864;1536 x 864
H022;21;Vrouwelijk;Rechts;4;126;left;no;200;leftarrow;595;true;focus;yes;923339;Chrome;112.0;Windows;10;undefined;undefined;1536 x 864;1536 x 864
H022;21;Vrouwelijk;Rechts;4;127;right;no;200;rightarrow;505;true;focus;yes;924623;Chrome;112.0;Windows;10;undefined;undefined;1536 x 864;1536 x 864
H022;21;Vrouwelijk;Rechts;4;128;left;no;200;leftarrow;387;true;focus;yes;925786;Chrome;112.0;Windows;10;undefined;undefined;1536 x 864;1536 x 864
H022;21;Vrouwelijk;Rechts;5;1;right;no;200;rightarrow;423;true;focus;yes;955245;Chrome;112.0;Windows;10;undefined;undefined;1536 x 864;1536 x 864
H022;21;Vrouwelijk;Rechts;5;2;left;no;200;leftarrow;411;true;focus;yes;956434;Chrome;112.0;Windows;10;undefined;undefined;1536 x 864;1536 x 864
H022;21;Vrouwelijk;Rechts;5;3;right;no;200;rightarrow;428;true;focus;yes;957638;Chrome;112.0;Windows;10;undefined;undefined;1536 x 864;1536 x 864
H022;21;Vrouwelijk;Rechts;5;4;left;no;200;leftarrow;414;true;focus;yes;958842;Chrome;112.0;Windows;10;undefined;undefined;1536 x 864;1536 x 864
H022;21;Vrouwelijk;Rechts;5;5;left;yes;200;leftarrow;375;false;focus;yes;960002;Chrome;112.0;Windows;10;undefined;undefined;1536 x 864;1536 x 864
H022;21;Vrouwelijk;Rechts;5;6;right;no;150;rightarrow;430;true;focus;yes;961207;Chrome;112.0;Windows;10;undefined;undefined;1536 x 864;1536 x 864
H022;21;Vrouwelijk;Rechts;5;7;right;yes;150;undefined;null;true;focus;yes;963250;Chrome;112.0;Windows;10;undefined;undefined;1536 x 864;1536 x 864
H022;21;Vrouwelijk;Rechts;5;8;left;no;200;leftarrow;462;true;focus;yes;964499;Chrome;112.0;Windows;10;undefined;undefined;1536 x 864;1536 x 864
H022;21;Vrouwelijk;Rechts;5;9;left;no;200;leftarrow;408;true;focus;yes;965691;Chrome;112.0;Windows;10;undefined;undefined;1536 x 864;1536 x 864
H022;21;Vrouwelijk;Rechts;5;10;right;no;200;rightarrow;491;true;focus;yes;966960;Chrome;112.0;Windows;10;undefined;undefined;1536 x 864;1536 x 864
H022;21;Vrouwelijk;Rechts;5;11;left;no;200;leftarrow;427;true;focus;yes;968160;Chrome;112.0;Windows;10;undefined;undefined;1536 x 864;1536 x 864
H022;21;Vrouwelijk;Rechts;5;12;right;yes;200;undefined;null;true;focus;yes;970197;Chrome;112.0;Windows;10;undefined;undefined;1536 x 864;1536 x 864
H022;21;Vrouwelijk;Rechts;5;13;right;no;250;rightarrow;576;true;focus;yes;971555;Chrome;112.0;Windows;10;undefined;undefined;1536 x 864;1536 x 864
H022;21;Vrouwelijk;Rechts;5;14;left;no;250;leftarrow;443;true;focus;yes;972776;Chrome;112.0;Windows;10;undefined;undefined;1536 x 864;1536 x 864
H022;21;Vrouwelijk;Rechts;5;15;right;no;250;rightarrow;469;true;focus;yes;974027;Chrome;112.0;Windows;10;undefined;undefined;1536 x 864;1536 x 864
H022;21;Vrouwelijk;Rechts;5;16;left;yes;250;leftarrow;420;false;focus;yes;975214;Chrome;112.0;Windows;10;undefined;undefined;1536 x 864;1536 x 864
H022;21;Vrouwelijk;Rechts;5;17;left;no;200;leftarrow;441;true;focus;yes;976436;Chrome;112.0;Windows;10;undefined;undefined;1536 x 864;1536 x 864
H022;21;Vrouwelijk;Rechts;5;18;right;no;200;rightarrow;477;true;focus;yes;977689;Chrome;112.0;Windows;10;undefined;undefined;1536 x 864;1536 x 864
H022;21;Vrouwelijk;Rechts;5;19;right;no;200;rightarrow;496;true;focus;yes;978958;Chrome;112.0;Windows;10;undefined;undefined;1536 x 864;1536 x 864
H022;21;Vrouwelijk;Rechts;5;20;right;yes;200;undefined;null;true;focus;yes;981000;Chrome;112.0;Windows;10;undefined;undefined;1536 x 864;1536 x 864
H022;21;Vrouwelijk;Rechts;5;21;left;no;250;leftarrow;493;true;focus;yes;982276;Chrome;112.0;Windows;10;undefined;undefined;1536 x 864;1536 x 864
H022;21;Vrouwelijk;Rechts;5;22;right;no;250;rightarrow;492;true;focus;yes;983535;Chrome;112.0;Windows;10;undefined;undefined;1536 x 864;1536 x 864
H022;21;Vrouwelijk;Rechts;5;23;left;no;250;leftarrow;393;true;focus;yes;984718;Chrome;112.0;Windows;10;undefined;undefined;1536 x 864;1536 x 864
H022;21;Vrouwelijk;Rechts;5;24;left;yes;250;undefined;null;true;focus;yes;986759;Chrome;112.0;Windows;10;undefined;undefined;1536 x 864;1536 x 864
H022;21;Vrouwelijk;Rechts;5;25;left;no;300;leftarrow;436;true;focus;yes;987973;Chrome;112.0;Windows;10;undefined;undefined;1536 x 864;1536 x 864
H022;21;Vrouwelijk;Rechts;5;26;right;no;300;rightarrow;542;true;focus;yes;989294;Chrome;112.0;Windows;10;undefined;undefined;1536 x 864;1536 x 864
H022;21;Vrouwelijk;Rechts;5;27;right;yes;300;undefined;null;true;focus;yes;991327;Chrome;112.0;Windows;10;undefined;undefined;1536 x 864;1536 x 864
H022;21;Vrouwelijk;Rechts;5;28;right;no;350;rightarrow;510;true;focus;yes;992620;Chrome;112.0;Windows;10;undefined;undefined;1536 x 864;1536 x 864
H022;21;Vrouwelijk;Rechts;5;29;left;no;350;leftarrow;502;true;focus;yes;993909;Chrome;112.0;Windows;10;undefined;undefined;1536 x 864;1536 x 864
H022;21;Vrouwelijk;Rechts;5;30;left;no;350;leftarrow;471;true;focus;yes;995159;Chrome;112.0;Windows;10;undefined;undefined;1536 x 864;1536 x 864
H022;21;Vrouwelijk;Rechts;5;31;right;no;350;rightarrow;560;true;focus;yes;996498;Chrome;112.0;Windows;10;undefined;undefined;1536 x 864;1536 x 864
H022;21;Vrouwelijk;Rechts;5;32;left;yes;350;leftarrow;488;false;focus;yes;997768;Chrome;112.0;Windows;10;undefined;undefined;1536 x 864;1536 x 864
H022;21;Vrouwelijk;Rechts;5;33;right;yes;300;rightarrow;498;false;focus;yes;999043;Chrome;112.0;Windows;10;undefined;undefined;1536 x 864;1536 x 864
H022;21;Vrouwelijk;Rechts;5;34;left;yes;250;leftarrow;444;false;focus;yes;1000268;Chrome;112.0;Windows;10;undefined;undefined;1536 x 864;1536 x 864
H022;21;Vrouwelijk;Rechts;5;35;left;no;200;leftarrow;552;true;focus;yes;1001606;Chrome;112.0;Windows;10;undefined;undefined;1536 x 864;1536 x 864
H022;21;Vrouwelijk;Rechts;5;36;left;no;200;leftarrow;472;true;focus;yes;1002864;Chrome;112.0;Windows;10;undefined;undefined;1536 x 864;1536 x 864
H022;21;Vrouwelijk;Rechts;5;37;left;no;200;leftarrow;506;true;focus;yes;1004154;Chrome;112.0;Windows;10;undefined;undefined;1536 x 864;1536 x 864
H022;21;Vrouwelijk;Rechts;5;38;right;no;200;rightarrow;428;true;focus;yes;1005364;Chrome;112.0;Windows;10;undefined;undefined;1536 x 864;1536 x 864
H022;21;Vrouwelijk;Rechts;5;39;right;no;200;rightarrow;432;true;focus;yes;1006585;Chrome;112.0;Windows;10;undefined;undefined;1536 x 864;1536 x 864
H022;21;Vrouwelijk;Rechts;5;40;right;no;200;rightarrow;537;true;focus;yes;1007908;Chrome;112.0;Windows;10;undefined;undefined;1536 x 864;1536 x 864
H022;21;Vrouwelijk;Rechts;5;41;right;no;200;rightarrow;382;true;focus;yes;1009075;Chrome;112.0;Windows;10;undefined;undefined;1536 x 864;1536 x 864
H022;21;Vrouwelijk;Rechts;5;42;right;yes;200;rightarrow;421;false;focus;yes;1010277;Chrome;112.0;Windows;10;undefined;undefined;1536 x 864;1536 x 864
H022;21;Vrouwelijk;Rechts;5;43;right;no;150;rightarrow;482;true;focus;yes;1011545;Chrome;112.0;Windows;10;undefined;undefined;1536 x 864;1536 x 864
H022;21;Vrouwelijk;Rechts;5;44;left;no;150;leftarrow;494;true;focus;yes;1012826;Chrome;112.0;Windows;10;undefined;undefined;1536 x 864;1536 x 864
H022;21;Vrouwelijk;Rechts;5;45;left;no;150;leftarrow;408;true;focus;yes;1014020;Chrome;112.0;Windows;10;undefined;undefined;1536 x 864;1536 x 864
H022;21;Vrouwelijk;Rechts;5;46;right;no;150;rightarrow;567;true;focus;yes;1015361;Chrome;112.0;Windows;10;undefined;undefined;1536 x 864;1536 x 864
H022;21;Vrouwelijk;Rechts;5;47;left;yes;150;undefined;null;true;focus;yes;1017409;Chrome;112.0;Windows;10;undefined;undefined;1536 x 864;1536 x 864
H022;21;Vrouwelijk;Rechts;5;48;left;no;200;leftarrow;541;true;focus;yes;1018735;Chrome;112.0;Windows;10;undefined;undefined;1536 x 864;1536 x 864
H022;21;Vrouwelijk;Rechts;5;49;left;no;200;leftarrow;416;true;focus;yes;1019935;Chrome;112.0;Windows;10;undefined;undefined;1536 x 864;1536 x 864
H022;21;Vrouwelijk;Rechts;5;50;right;no;200;rightarrow;459;true;focus;yes;1021182;Chrome;112.0;Windows;10;undefined;undefined;1536 x 864;1536 x 864
H022;21;Vrouwelijk;Rechts;5;51;left;no;200;leftarrow;393;true;focus;yes;1022350;Chrome;112.0;Windows;10;undefined;undefined;1536 x 864;1536 x 864
H022;21;Vrouwelijk;Rechts;5;52;left;no;200;leftarrow;438;true;focus;yes;1023564;Chrome;112.0;Windows;10;undefined;undefined;1536 x 864;1536 x 864
H022;21;Vrouwelijk;Rechts;5;53;right;no;200;rightarrow;442;true;focus;yes;1024788;Chrome;112.0;Windows;10;undefined;undefined;1536 x 864;1536 x 864
H022;21;Vrouwelijk;Rechts;5;54;left;yes;200;undefined;null;true;focus;yes;1026836;Chrome;112.0;Windows;10;undefined;undefined;1536 x 864;1536 x 864
H022;21;Vrouwelijk;Rechts;5;55;right;yes;250;undefined;null;true;focus;yes;1028878;Chrome;112.0;Windows;10;undefined;undefined;1536 x 864;1536 x 864
H022;21;Vrouwelijk;Rechts;5;56;right;no;300;rightarrow;461;true;focus;yes;1030120;Chrome;112.0;Windows;10;undefined;undefined;1536 x 864;1536 x 864
H022;21;Vrouwelijk;Rechts;5;57;right;no;300;rightarrow;437;true;focus;yes;1031344;Chrome;112.0;Windows;10;undefined;undefined;1536 x 864;1536 x 864
H022;21;Vrouwelijk;Rechts;5;58;right;yes;300;rightarrow;399;false;focus;yes;1032528;Chrome;112.0;Windows;10;undefined;undefined;1536 x 864;1536 x 864
H022;21;Vrouwelijk;Rechts;5;59;left;no;250;leftarrow;525;true;focus;yes;1033835;Chrome;112.0;Windows;10;undefined;undefined;1536 x 864;1536 x 864
H022;21;Vrouwelijk;Rechts;5;60;right;no;250;rightarrow;464;true;focus;yes;1035083;Chrome;112.0;Windows;10;undefined;undefined;1536 x 864;1536 x 864
H022;21;Vrouwelijk;Rechts;5;61;left;yes;250;leftarrow;417;false;focus;yes;1036286;Chrome;112.0;Windows;10;undefined;undefined;1536 x 864;1536 x 864
H022;21;Vrouwelijk;Rechts;5;62;left;no;200;leftarrow;483;true;focus;yes;1037550;Chrome;112.0;Windows;10;undefined;undefined;1536 x 864;1536 x 864
H022;21;Vrouwelijk;Rechts;5;63;left;no;200;leftarrow;469;true;focus;yes;1038805;Chrome;112.0;Windows;10;undefined;undefined;1536 x 864;1536 x 864
H022;21;Vrouwelijk;Rechts;5;64;right;no;200;rightarrow;446;true;focus;yes;1040032;Chrome;112.0;Windows;10;undefined;undefined;1536 x 864;1536 x 864
H022;21;Vrouwelijk;Rechts;5;65;right;no;200;rightarrow;474;true;focus;yes;1041293;Chrome;112.0;Windows;10;undefined;undefined;1536 x 864;1536 x 864
H022;21;Vrouwelijk;Rechts;5;66;right;no;200;rightarrow;471;true;focus;yes;1042551;Chrome;112.0;Windows;10;undefined;undefined;1536 x 864;1536 x 864
H022;21;Vrouwelijk;Rechts;5;67;left;no;200;leftarrow;441;true;focus;yes;1043769;Chrome;112.0;Windows;10;undefined;undefined;1536 x 864;1536 x 864
H022;21;Vrouwelijk;Rechts;5;68;left;no;200;leftarrow;430;true;focus;yes;1044973;Chrome;112.0;Windows;10;undefined;undefined;1536 x 864;1536 x 864
H022;21;Vrouwelijk;Rechts;5;69;right;no;200;rightarrow;504;true;focus;yes;1046263;Chrome;112.0;Windows;10;undefined;undefined;1536 x 864;1536 x 864
H022;21;Vrouwelijk;Rechts;5;70;left;no;200;leftarrow;398;true;focus;yes;1047448;Chrome;112.0;Windows;10;undefined;undefined;1536 x 864;1536 x 864
H022;21;Vrouwelijk;Rechts;5;71;left;yes;200;leftarrow;402;false;focus;yes;1048636;Chrome;112.0;Windows;10;undefined;undefined;1536 x 864;1536 x 864
H022;21;Vrouwelijk;Rechts;5;72;right;yes;150;undefined;null;true;focus;yes;1050678;Chrome;112.0;Windows;10;undefined;undefined;1536 x 864;1536 x 864
H022;21;Vrouwelijk;Rechts;5;73;left;no;200;leftarrow;530;true;focus;yes;1051993;Chrome;112.0;Windows;10;undefined;undefined;1536 x 864;1536 x 864
H022;21;Vrouwelijk;Rechts;5;74;right;no;200;rightarrow;472;true;focus;yes;1053250;Chrome;112.0;Windows;10;undefined;undefined;1536 x 864;1536 x 864
H022;21;Vrouwelijk;Rechts;5;75;left;yes;200;undefined;null;true;focus;yes;1055281;Chrome;112.0;Windows;10;undefined;undefined;1536 x 864;1536 x 864
H022;21;Vrouwelijk;Rechts;5;76;right;yes;250;undefined;null;true;focus;yes;1057323;Chrome;112.0;Windows;10;undefined;undefined;1536 x 864;1536 x 864
H022;21;Vrouwelijk;Rechts;5;77;left;no;300;leftarrow;503;true;focus;yes;1058608;Chrome;112.0;Windows;10;undefined;undefined;1536 x 864;1536 x 864
H022;21;Vrouwelijk;Rechts;5;78;right;no;300;rightarrow;440;true;focus;yes;1059822;Chrome;112.0;Windows;10;undefined;undefined;1536 x 864;1536 x 864
H022;21;Vrouwelijk;Rechts;5;79;left;no;300;leftarrow;428;true;focus;yes;1061012;Chrome;112.0;Windows;10;undefined;undefined;1536 x 864;1536 x 864
H022;21;Vrouwelijk;Rechts;5;80;right;no;300;rightarrow;456;true;focus;yes;1062256;Chrome;112.0;Windows;10;undefined;undefined;1536 x 864;1536 x 864
H022;21;Vrouwelijk;Rechts;5;81;right;no;300;rightarrow;507;true;focus;yes;1063549;Chrome;112.0;Windows;10;undefined;undefined;1536 x 864;1536 x 864
H022;21;Vrouwelijk;Rechts;5;82;left;no;300;leftarrow;501;true;focus;yes;1064832;Chrome;112.0;Windows;10;undefined;undefined;1536 x 864;1536 x 864
H022;21;Vrouwelijk;Rechts;5;83;left;no;300;leftarrow;553;true;focus;yes;1066177;Chrome;112.0;Windows;10;undefined;undefined;1536 x 864;1536 x 864
H022;21;Vrouwelijk;Rechts;5;84;left;no;300;leftarrow;606;true;focus;yes;1067573;Chrome;112.0;Windows;10;undefined;undefined;1536 x 864;1536 x 864
H022;21;Vrouwelijk;Rechts;5;85;left;yes;300;leftarrow;463;false;focus;yes;1068813;Chrome;112.0;Windows;10;undefined;undefined;1536 x 864;1536 x 864
H022;21;Vrouwelijk;Rechts;5;86;right;no;250;rightarrow;525;true;focus;yes;1070126;Chrome;112.0;Windows;10;undefined;undefined;1536 x 864;1536 x 864
H022;21;Vrouwelijk;Rechts;5;87;right;yes;250;rightarrow;445;false;focus;yes;1071360;Chrome;112.0;Windows;10;undefined;undefined;1536 x 864;1536 x 864
H022;21;Vrouwelijk;Rechts;5;88;right;no;200;rightarrow;513;true;focus;yes;1072656;Chrome;112.0;Windows;10;undefined;undefined;1536 x 864;1536 x 864
H022;21;Vrouwelijk;Rechts;5;89;right;no;200;rightarrow;512;true;focus;yes;1073945;Chrome;112.0;Windows;10;undefined;undefined;1536 x 864;1536 x 864
H022;21;Vrouwelijk;Rechts;5;90;right;no;200;rightarrow;578;true;focus;yes;1075305;Chrome;112.0;Windows;10;undefined;undefined;1536 x 864;1536 x 864
H022;21;Vrouwelijk;Rechts;5;91;left;no;200;leftarrow;508;true;focus;yes;1076599;Chrome;112.0;Windows;10;undefined;undefined;1536 x 864;1536 x 864
H022;21;Vrouwelijk;Rechts;5;92;left;no;200;leftarrow;539;true;focus;yes;1077923;Chrome;112.0;Windows;10;undefined;undefined;1536 x 864;1536 x 864
H022;21;Vrouwelijk;Rechts;5;93;left;no;200;leftarrow;457;true;focus;yes;1079168;Chrome;112.0;Windows;10;undefined;undefined;1536 x 864;1536 x 864
H022;21;Vrouwelijk;Rechts;5;94;right;no;200;rightarrow;529;true;focus;yes;1080472;Chrome;112.0;Windows;10;undefined;undefined;1536 x 864;1536 x 864
H022;21;Vrouwelijk;Rechts;5;95;right;yes;200;undefined;null;true;focus;yes;1082506;Chrome;112.0;Windows;10;undefined;undefined;1536 x 864;1536 x 864
H022;21;Vrouwelijk;Rechts;5;96;left;yes;250;undefined;null;true;focus;yes;1084553;Chrome;112.0;Windows;10;undefined;undefined;1536 x 864;1536 x 864
H022;21;Vrouwelijk;Rechts;5;97;left;no;300;leftarrow;525;true;focus;yes;1085862;Chrome;112.0;Windows;10;undefined;undefined;1536 x 864;1536 x 864
H022;21;Vrouwelijk;Rechts;5;98;left;no;300;leftarrow;505;true;focus;yes;1087148;Chrome;112.0;Windows;10;undefined;undefined;1536 x 864;1536 x 864
H022;21;Vrouwelijk;Rechts;5;99;right;no;300;rightarrow;551;true;focus;yes;1088485;Chrome;112.0;Windows;10;undefined;undefined;1536 x 864;1536 x 864
H022;21;Vrouwelijk;Rechts;5;100;left;no;300;leftarrow;638;true;focus;yes;1089913;Chrome;112.0;Windows;10;undefined;undefined;1536 x 864;1536 x 864
H022;21;Vrouwelijk;Rechts;5;101;right;no;300;rightarrow;479;true;focus;yes;1091172;Chrome;112.0;Windows;10;undefined;undefined;1536 x 864;1536 x 864
H022;21;Vrouwelijk;Rechts;5;102;left;yes;300;leftarrow;466;false;focus;yes;1092422;Chrome;112.0;Windows;10;undefined;undefined;1536 x 864;1536 x 864
H022;21;Vrouwelijk;Rechts;5;103;right;no;250;rightarrow;555;true;focus;yes;1093756;Chrome;112.0;Windows;10;undefined;undefined;1536 x 864;1536 x 864
H022;21;Vrouwelijk;Rechts;5;104;right;yes;250;undefined;null;true;focus;yes;1095804;Chrome;112.0;Windows;10;undefined;undefined;1536 x 864;1536 x 864
H022;21;Vrouwelijk;Rechts;5;105;right;yes;300;rightarrow;493;false;focus;yes;1097081;Chrome;112.0;Windows;10;undefined;undefined;1536 x 864;1536 x 864
H022;21;Vrouwelijk;Rechts;5;106;left;no;250;leftarrow;561;true;focus;yes;1098431;Chrome;112.0;Windows;10;undefined;undefined;1536 x 864;1536 x 864
H022;21;Vrouwelijk;Rechts;5;107;right;no;250;rightarrow;588;true;focus;yes;1099798;Chrome;112.0;Windows;10;undefined;undefined;1536 x 864;1536 x 864
H022;21;Vrouwelijk;Rechts;5;108;right;no;250;rightarrow;579;true;focus;yes;1101163;Chrome;112.0;Windows;10;undefined;undefined;1536 x 864;1536 x 864
H022;21;Vrouwelijk;Rechts;5;109;left;no;250;leftarrow;526;true;focus;yes;1102475;Chrome;112.0;Windows;10;undefined;undefined;1536 x 864;1536 x 864
H022;21;Vrouwelijk;Rechts;5;110;left;no;250;leftarrow;531;true;focus;yes;1103792;Chrome;112.0;Windows;10;undefined;undefined;1536 x 864;1536 x 864
H022;21;Vrouwelijk;Rechts;5;111;left;yes;250;undefined;null;true;focus;yes;1105828;Chrome;112.0;Windows;10;undefined;undefined;1536 x 864;1536 x 864
H022;21;Vrouwelijk;Rechts;5;112;right;no;300;rightarrow;627;true;focus;yes;1107238;Chrome;112.0;Windows;10;undefined;undefined;1536 x 864;1536 x 864
H022;21;Vrouwelijk;Rechts;5;113;left;no;300;leftarrow;515;true;focus;yes;1108532;Chrome;112.0;Windows;10;undefined;undefined;1536 x 864;1536 x 864
H022;21;Vrouwelijk;Rechts;5;114;left;no;300;leftarrow;421;true;focus;yes;1109731;Chrome;112.0;Windows;10;undefined;undefined;1536 x 864;1536 x 864
H022;21;Vrouwelijk;Rechts;5;115;left;yes;300;leftarrow;440;false;focus;yes;1110951;Chrome;112.0;Windows;10;undefined;undefined;1536 x 864;1536 x 864
H022;21;Vrouwelijk;Rechts;5;116;left;no;250;leftarrow;468;true;focus;yes;1112198;Chrome;112.0;Windows;10;undefined;undefined;1536 x 864;1536 x 864
H022;21;Vrouwelijk;Rechts;5;117;right;no;250;rightarrow;535;true;focus;yes;1113511;Chrome;112.0;Windows;10;undefined;undefined;1536 x 864;1536 x 864
H022;21;Vrouwelijk;Rechts;5;118;right;no;250;rightarrow;428;true;focus;yes;1114716;Chrome;112.0;Windows;10;undefined;undefined;1536 x 864;1536 x 864
H022;21;Vrouwelijk;Rechts;5;119;right;yes;250;undefined;null;true;focus;yes;1116765;Chrome;112.0;Windows;10;undefined;undefined;1536 x 864;1536 x 864
H022;21;Vrouwelijk;Rechts;5;120;right;no;300;rightarrow;423;true;focus;yes;1117976;Chrome;112.0;Windows;10;undefined;undefined;1536 x 864;1536 x 864
H022;21;Vrouwelijk;Rechts;5;121;right;no;300;rightarrow;421;true;focus;yes;1119171;Chrome;112.0;Windows;10;undefined;undefined;1536 x 864;1536 x 864
H022;21;Vrouwelijk;Rechts;5;122;right;no;300;rightarrow;414;true;focus;yes;1120363;Chrome;112.0;Windows;10;undefined;undefined;1536 x 864;1536 x 864
H022;21;Vrouwelijk;Rechts;5;123;left;yes;300;leftarrow;516;false;focus;yes;1121656;Chrome;112.0;Windows;10;undefined;undefined;1536 x 864;1536 x 864
H022;21;Vrouwelijk;Rechts;5;124;left;no;250;leftarrow;646;true;focus;yes;1123082;Chrome;112.0;Windows;10;undefined;undefined;1536 x 864;1536 x 864
H022;21;Vrouwelijk;Rechts;5;125;left;no;250;leftarrow;533;true;focus;yes;1124401;Chrome;112.0;Windows;10;undefined;undefined;1536 x 864;1536 x 864
H022;21;Vrouwelijk;Rechts;5;126;left;no;250;leftarrow;517;true;focus;yes;1125692;Chrome;112.0;Windows;10;undefined;undefined;1536 x 864;1536 x 864
H022;21;Vrouwelijk;Rechts;5;127;right;no;250;rightarrow;473;true;focus;yes;1126945;Chrome;112.0;Windows;10;undefined;undefined;1536 x 864;1536 x 864
H022;21;Vrouwelijk;Rechts;5;128;right;yes;250;rightarrow;433;false;focus;yes;1128152;Chrome;112.0;Windows;10;undefined;undefined;1536 x 864;1536 x 864
H022;21;Vrouwelijk;Rechts;6;1;right;yes;200;undefined;null;true;focus;yes;1150180;Chrome;112.0;Windows;10;undefined;undefined;1536 x 864;1536 x 864
H022;21;Vrouwelijk;Rechts;6;2;left;yes;250;leftarrow;341;false;focus;yes;1151307;Chrome;112.0;Windows;10;undefined;undefined;1536 x 864;1536 x 864
H022;21;Vrouwelijk;Rechts;6;3;right;no;200;rightarrow;555;true;focus;yes;1152641;Chrome;112.0;Windows;10;undefined;undefined;1536 x 864;1536 x 864
H022;21;Vrouwelijk;Rechts;6;4;right;no;200;rightarrow;428;true;focus;yes;1153850;Chrome;112.0;Windows;10;undefined;undefined;1536 x 864;1536 x 864
H022;21;Vrouwelijk;Rechts;6;5;left;no;200;leftarrow;418;true;focus;yes;1155059;Chrome;112.0;Windows;10;undefined;undefined;1536 x 864;1536 x 864
H022;21;Vrouwelijk;Rechts;6;6;left;no;200;leftarrow;429;true;focus;yes;1156268;Chrome;112.0;Windows;10;undefined;undefined;1536 x 864;1536 x 864
H022;21;Vrouwelijk;Rechts;6;7;right;no;200;rightarrow;440;true;focus;yes;1157496;Chrome;112.0;Windows;10;undefined;undefined;1536 x 864;1536 x 864
H022;21;Vrouwelijk;Rechts;6;8;left;no;200;leftarrow;403;true;focus;yes;1158676;Chrome;112.0;Windows;10;undefined;undefined;1536 x 864;1536 x 864
H022;21;Vrouwelijk;Rechts;6;9;left;no;200;leftarrow;441;true;focus;yes;1159903;Chrome;112.0;Windows;10;undefined;undefined;1536 x 864;1536 x 864
H022;21;Vrouwelijk;Rechts;6;10;right;no;200;rightarrow;505;true;focus;yes;1161184;Chrome;112.0;Windows;10;undefined;undefined;1536 x 864;1536 x 864
H022;21;Vrouwelijk;Rechts;6;11;left;no;200;leftarrow;422;true;focus;yes;1162396;Chrome;112.0;Windows;10;undefined;undefined;1536 x 864;1536 x 864
H022;21;Vrouwelijk;Rechts;6;12;right;no;200;rightarrow;455;true;focus;yes;1163634;Chrome;112.0;Windows;10;undefined;undefined;1536 x 864;1536 x 864
H022;21;Vrouwelijk;Rechts;6;13;left;yes;200;leftarrow;420;false;focus;yes;1164842;Chrome;112.0;Windows;10;undefined;undefined;1536 x 864;1536 x 864
H022;21;Vrouwelijk;Rechts;6;14;right;no;150;rightarrow;399;true;focus;yes;1166022;Chrome;112.0;Windows;10;undefined;undefined;1536 x 864;1536 x 864
H022;21;Vrouwelijk;Rechts;6;15;right;yes;150;undefined;null;true;focus;yes;1168075;Chrome;112.0;Windows;10;undefined;undefined;1536 x 864;1536 x 864
H022;21;Vrouwelijk;Rechts;6;16;left;no;200;leftarrow;445;true;focus;yes;1169301;Chrome;112.0;Windows;10;undefined;undefined;1536 x 864;1536 x 864
H022;21;Vrouwelijk;Rechts;6;17;right;yes;200;undefined;null;true;focus;yes;1171349;Chrome;112.0;Windows;10;undefined;undefined;1536 x 864;1536 x 864
H022;21;Vrouwelijk;Rechts;6;18;left;no;250;leftarrow;414;true;focus;yes;1172549;Chrome;112.0;Windows;10;undefined;undefined;1536 x 864;1536 x 864
H022;21;Vrouwelijk;Rechts;6;19;left;no;250;leftarrow;420;true;focus;yes;1173757;Chrome;112.0;Windows;10;undefined;undefined;1536 x 864;1536 x 864
H022;21;Vrouwelijk;Rechts;6;20;right;no;250;rightarrow;414;true;focus;yes;1174951;Chrome;112.0;Windows;10;undefined;undefined;1536 x 864;1536 x 864
H022;21;Vrouwelijk;Rechts;6;21;right;no;250;rightarrow;422;true;focus;yes;1176159;Chrome;112.0;Windows;10;undefined;undefined;1536 x 864;1536 x 864
H022;21;Vrouwelijk;Rechts;6;22;right;no;250;rightarrow;432;true;focus;yes;1177373;Chrome;112.0;Windows;10;undefined;undefined;1536 x 864;1536 x 864
H022;21;Vrouwelijk;Rechts;6;23;left;no;250;leftarrow;435;true;focus;yes;1178596;Chrome;112.0;Windows;10;undefined;undefined;1536 x 864;1536 x 864
H022;21;Vrouwelijk;Rechts;6;24;left;yes;250;leftarrow;419;false;focus;yes;1179798;Chrome;112.0;Windows;10;undefined;undefined;1536 x 864;1536 x 864
H022;21;Vrouwelijk;Rechts;6;25;left;yes;200;undefined;null;true;focus;yes;1181836;Chrome;112.0;Windows;10;undefined;undefined;1536 x 864;1536 x 864
H022;21;Vrouwelijk;Rechts;6;26;right;no;250;rightarrow;517;true;focus;yes;1183135;Chrome;112.0;Windows;10;undefined;undefined;1536 x 864;1536 x 864
H022;21;Vrouwelijk;Rechts;6;27;right;no;250;rightarrow;418;true;focus;yes;1184330;Chrome;112.0;Windows;10;undefined;undefined;1536 x 864;1536 x 864
