participantID,age,gender,handedness,block_i,trial_i,stim,signal,SSD,response,rt,correct,focus,Fullscreen,time_elapsed,browser_name,browser_version,os_name,os_version,tablet,mobile,screen_resolution,window_resolution
S016,51,Mannelijk,Rechts,0,1,right,yes,200,rightarrow,722,false,focus,yes,229815,Chrome,112.0,Windows,10,undefined,undefined,2560 x 1440,2560 x 1440
S016,51,Mannelijk,Rechts,0,2,left,no,150,leftarrow,597,true,focus,yes,231935,Chrome,112.0,Windows,10,undefined,undefined,2560 x 1440,2560 x 1440
S016,51,Mannelijk,Rechts,0,3,left,no,150,leftarrow,541,true,focus,yes,233998,Chrome,112.0,Windows,10,undefined,undefined,2560 x 1440,2560 x 1440
S016,51,Mannelijk,Rechts,0,4,right,no,150,rightarrow,501,true,focus,yes,236047,Chrome,112.0,Windows,10,undefined,undefined,2560 x 1440,2560 x 1440
S016,51,Mannelijk,Rechts,0,5,right,no,150,rightarrow,600,true,focus,yes,238183,Chrome,112.0,Windows,10,undefined,undefined,2560 x 1440,2560 x 1440
S016,51,Mannelijk,Rechts,0,6,right,no,150,rightarrow,473,true,focus,yes,240183,Chrome,112.0,Windows,10,undefined,undefined,2560 x 1440,2560 x 1440
S016,51,Mannelijk,Rechts,0,7,left,no,150,leftarrow,547,true,focus,yes,242255,Chrome,112.0,Windows,10,undefined,undefined,2560 x 1440,2560 x 1440
S016,51,Mannelijk,Rechts,0,8,left,yes,150,undefined,null,true,focus,yes,245054,Chrome,112.0,Windows,10,undefined,undefined,2560 x 1440,2560 x 1440
S016,51,Mannelijk,Rechts,1,1,right,yes,200,undefined,null,true,focus,yes,272309,Chrome,112.0,Windows,10,undefined,undefined,2560 x 1440,2560 x 1440
S016,51,Mannelijk,Rechts,1,2,right,no,250,rightarrow,831,true,focus,yes,273911,Chrome,112.0,Windows,10,undefined,undefined,2560 x 1440,2560 x 1440
S016,51,Mannelijk,Rechts,1,3,right,no,250,rightarrow,594,true,focus,yes,275279,Chrome,112.0,Windows,10,undefined,undefined,2560 x 1440,2560 x 1440
S016,51,Mannelijk,Rechts,1,4,left,no,250,rightarrow,405,false,focus,yes,276455,Chrome,112.0,Windows,10,undefined,undefined,2560 x 1440,2560 x 1440
S016,51,Mannelijk,Rechts,1,5,left,yes,250,leftarrow,406,false,focus,yes,277631,Chrome,112.0,Windows,10,undefined,undefined,2560 x 1440,2560 x 1440
S016,51,Mannelijk,Rechts,1,6,left,no,200,leftarrow,748,true,focus,yes,279152,Chrome,112.0,Windows,10,undefined,undefined,2560 x 1440,2560 x 1440
S016,51,Mannelijk,Rechts,1,7,right,no,200,rightarrow,595,true,focus,yes,280519,Chrome,112.0,Windows,10,undefined,undefined,2560 x 1440,2560 x 1440
S016,51,Mannelijk,Rechts,1,8,left,no,200,leftarrow,511,true,focus,yes,281798,Chrome,112.0,Windows,10,undefined,undefined,2560 x 1440,2560 x 1440
S016,51,Mannelijk,Rechts,1,9,right,no,200,rightarrow,651,true,focus,yes,283223,Chrome,112.0,Windows,10,undefined,undefined,2560 x 1440,2560 x 1440
S016,51,Mannelijk,Rechts,1,10,left,no,200,leftarrow,388,true,focus,yes,284383,Chrome,112.0,Windows,10,undefined,undefined,2560 x 1440,2560 x 1440
S016,51,Mannelijk,Rechts,1,11,right,no,200,rightarrow,532,true,focus,yes,285687,Chrome,112.0,Windows,10,undefined,undefined,2560 x 1440,2560 x 1440
S016,51,Mannelijk,Rechts,1,12,right,no,200,rightarrow,645,true,focus,yes,287095,Chrome,112.0,Windows,10,undefined,undefined,2560 x 1440,2560 x 1440
S016,51,Mannelijk,Rechts,1,13,left,yes,200,undefined,null,true,focus,yes,289118,Chrome,112.0,Windows,10,undefined,undefined,2560 x 1440,2560 x 1440
S016,51,Mannelijk,Rechts,1,14,left,no,250,leftarrow,480,true,focus,yes,290359,Chrome,112.0,Windows,10,undefined,undefined,2560 x 1440,2560 x 1440
S016,51,Mannelijk,Rechts,1,15,right,yes,250,undefined,null,true,focus,yes,292383,Chrome,112.0,Windows,10,undefined,undefined,2560 x 1440,2560 x 1440
S016,51,Mannelijk,Rechts,1,16,left,no,300,leftarrow,449,true,focus,yes,293607,Chrome,112.0,Windows,10,undefined,undefined,2560 x 1440,2560 x 1440
S016,51,Mannelijk,Rechts,1,17,left,no,300,leftarrow,691,true,focus,yes,295071,Chrome,112.0,Windows,10,undefined,undefined,2560 x 1440,2560 x 1440
S016,51,Mannelijk,Rechts,1,18,right,no,300,rightarrow,586,true,focus,yes,296431,Chrome,112.0,Windows,10,undefined,undefined,2560 x 1440,2560 x 1440
S016,51,Mannelijk,Rechts,1,19,left,no,300,leftarrow,790,true,focus,yes,297994,Chrome,112.0,Windows,10,undefined,undefined,2560 x 1440,2560 x 1440
S016,51,Mannelijk,Rechts,1,20,left,yes,300,undefined,null,true,focus,yes,300028,Chrome,112.0,Windows,10,undefined,undefined,2560 x 1440,2560 x 1440
S016,51,Mannelijk,Rechts,1,21,right,yes,350,rightarrow,403,false,focus,yes,301207,Chrome,112.0,Windows,10,undefined,undefined,2560 x 1440,2560 x 1440
S016,51,Mannelijk,Rechts,1,22,right,no,300,rightarrow,755,true,focus,yes,302734,Chrome,112.0,Windows,10,undefined,undefined,2560 x 1440,2560 x 1440
S016,51,Mannelijk,Rechts,1,23,left,no,300,leftarrow,880,true,focus,yes,304386,Chrome,112.0,Windows,10,undefined,undefined,2560 x 1440,2560 x 1440
S016,51,Mannelijk,Rechts,1,24,right,no,300,rightarrow,871,true,focus,yes,306030,Chrome,112.0,Windows,10,undefined,undefined,2560 x 1440,2560 x 1440
S016,51,Mannelijk,Rechts,1,25,left,no,300,leftarrow,763,true,focus,yes,307567,Chrome,112.0,Windows,10,undefined,undefined,2560 x 1440,2560 x 1440
S016,51,Mannelijk,Rechts,1,26,left,no,300,leftarrow,665,true,focus,yes,308999,Chrome,112.0,Windows,10,undefined,undefined,2560 x 1440,2560 x 1440
S016,51,Mannelijk,Rechts,1,27,left,yes,300,undefined,null,true,focus,yes,311031,Chrome,112.0,Windows,10,undefined,undefined,2560 x 1440,2560 x 1440
S016,51,Mannelijk,Rechts,1,28,left,no,350,leftarrow,498,true,focus,yes,312303,Chrome,112.0,Windows,10,undefined,undefined,2560 x 1440,2560 x 1440
S016,51,Mannelijk,Rechts,1,29,right,yes,350,rightarrow,863,false,focus,yes,313937,Chrome,112.0,Windows,10,undefined,undefined,2560 x 1440,2560 x 1440
S016,51,Mannelijk,Rechts,1,30,right,no,300,rightarrow,935,true,focus,yes,315638,Chrome,112.0,Windows,10,undefined,undefined,2560 x 1440,2560 x 1440
S016,51,Mannelijk,Rechts,1,31,right,no,300,rightarrow,917,true,focus,yes,317321,Chrome,112.0,Windows,10,undefined,undefined,2560 x 1440,2560 x 1440
S016,51,Mannelijk,Rechts,1,32,right,no,300,rightarrow,844,true,focus,yes,318935,Chrome,112.0,Windows,10,undefined,undefined,2560 x 1440,2560 x 1440
S016,51,Mannelijk,Rechts,1,33,left,no,300,leftarrow,970,true,focus,yes,320678,Chrome,112.0,Windows,10,undefined,undefined,2560 x 1440,2560 x 1440
S016,51,Mannelijk,Rechts,1,34,left,no,300,leftarrow,503,true,focus,yes,321954,Chrome,112.0,Windows,10,undefined,undefined,2560 x 1440,2560 x 1440
S016,51,Mannelijk,Rechts,1,35,left,yes,300,undefined,null,true,focus,yes,323990,Chrome,112.0,Windows,10,undefined,undefined,2560 x 1440,2560 x 1440
S016,51,Mannelijk,Rechts,1,36,left,no,350,leftarrow,649,true,focus,yes,325415,Chrome,112.0,Windows,10,undefined,undefined,2560 x 1440,2560 x 1440
S016,51,Mannelijk,Rechts,1,37,right,no,350,rightarrow,867,true,focus,yes,327054,Chrome,112.0,Windows,10,undefined,undefined,2560 x 1440,2560 x 1440
S016,51,Mannelijk,Rechts,1,38,right,no,350,rightarrow,814,true,focus,yes,328639,Chrome,112.0,Windows,10,undefined,undefined,2560 x 1440,2560 x 1440
S016,51,Mannelijk,Rechts,1,39,right,yes,350,undefined,null,true,focus,yes,330670,Chrome,112.0,Windows,10,undefined,undefined,2560 x 1440,2560 x 1440
S016,51,Mannelijk,Rechts,1,40,right,no,400,rightarrow,569,true,focus,yes,332007,Chrome,112.0,Windows,10,undefined,undefined,2560 x 1440,2560 x 1440
S016,51,Mannelijk,Rechts,1,41,right,no,400,rightarrow,583,true,focus,yes,333358,Chrome,112.0,Windows,10,undefined,undefined,2560 x 1440,2560 x 1440
S016,51,Mannelijk,Rechts,1,42,left,no,400,leftarrow,803,true,focus,yes,334927,Chrome,112.0,Windows,10,undefined,undefined,2560 x 1440,2560 x 1440
S016,51,Mannelijk,Rechts,1,43,left,no,400,leftarrow,651,true,focus,yes,336351,Chrome,112.0,Windows,10,undefined,undefined,2560 x 1440,2560 x 1440
S016,51,Mannelijk,Rechts,1,44,right,no,400,rightarrow,789,true,focus,yes,337913,Chrome,112.0,Windows,10,undefined,undefined,2560 x 1440,2560 x 1440
S016,51,Mannelijk,Rechts,1,45,left,no,400,leftarrow,678,true,focus,yes,339367,Chrome,112.0,Windows,10,undefined,undefined,2560 x 1440,2560 x 1440
S016,51,Mannelijk,Rechts,1,46,left,yes,400,undefined,null,true,focus,yes,341384,Chrome,112.0,Windows,10,undefined,undefined,2560 x 1440,2560 x 1440
S016,51,Mannelijk,Rechts,1,47,right,no,450,rightarrow,659,true,focus,yes,342817,Chrome,112.0,Windows,10,undefined,undefined,2560 x 1440,2560 x 1440
S016,51,Mannelijk,Rechts,1,48,right,yes,450,undefined,null,true,focus,yes,344850,Chrome,112.0,Windows,10,undefined,undefined,2560 x 1440,2560 x 1440
S016,51,Mannelijk,Rechts,1,49,left,no,500,leftarrow,503,true,focus,yes,346127,Chrome,112.0,Windows,10,undefined,undefined,2560 x 1440,2560 x 1440
S016,51,Mannelijk,Rechts,1,50,right,no,500,rightarrow,823,true,focus,yes,347719,Chrome,112.0,Windows,10,undefined,undefined,2560 x 1440,2560 x 1440
S016,51,Mannelijk,Rechts,1,51,right,no,500,rightarrow,890,true,focus,yes,349382,Chrome,112.0,Windows,10,undefined,undefined,2560 x 1440,2560 x 1440
S016,51,Mannelijk,Rechts,1,52,left,no,500,leftarrow,818,true,focus,yes,350974,Chrome,112.0,Windows,10,undefined,undefined,2560 x 1440,2560 x 1440
S016,51,Mannelijk,Rechts,1,53,right,yes,500,undefined,null,true,focus,yes,353021,Chrome,112.0,Windows,10,undefined,undefined,2560 x 1440,2560 x 1440
S016,51,Mannelijk,Rechts,1,54,left,no,550,leftarrow,538,true,focus,yes,354336,Chrome,112.0,Windows,10,undefined,undefined,2560 x 1440,2560 x 1440
S016,51,Mannelijk,Rechts,1,55,right,no,550,rightarrow,812,true,focus,yes,355919,Chrome,112.0,Windows,10,undefined,undefined,2560 x 1440,2560 x 1440
S016,51,Mannelijk,Rechts,1,56,left,yes,550,undefined,null,true,focus,yes,357951,Chrome,112.0,Windows,10,undefined,undefined,2560 x 1440,2560 x 1440
S016,51,Mannelijk,Rechts,1,57,right,no,600,rightarrow,678,true,focus,yes,359389,Chrome,112.0,Windows,10,undefined,undefined,2560 x 1440,2560 x 1440
S016,51,Mannelijk,Rechts,1,58,left,no,600,leftarrow,961,true,focus,yes,361117,Chrome,112.0,Windows,10,undefined,undefined,2560 x 1440,2560 x 1440
S016,51,Mannelijk,Rechts,1,59,right,yes,600,undefined,null,true,focus,yes,363148,Chrome,112.0,Windows,10,undefined,undefined,2560 x 1440,2560 x 1440
S016,51,Mannelijk,Rechts,1,60,right,no,650,rightarrow,697,true,focus,yes,364620,Chrome,112.0,Windows,10,undefined,undefined,2560 x 1440,2560 x 1440
S016,51,Mannelijk,Rechts,1,61,left,no,650,leftarrow,842,true,focus,yes,366237,Chrome,112.0,Windows,10,undefined,undefined,2560 x 1440,2560 x 1440
S016,51,Mannelijk,Rechts,1,62,right,no,650,rightarrow,987,true,focus,yes,367989,Chrome,112.0,Windows,10,undefined,undefined,2560 x 1440,2560 x 1440
S016,51,Mannelijk,Rechts,1,63,left,yes,650,undefined,null,true,focus,yes,370012,Chrome,112.0,Windows,10,undefined,undefined,2560 x 1440,2560 x 1440
S016,51,Mannelijk,Rechts,1,64,left,no,700,leftarrow,596,true,focus,yes,371381,Chrome,112.0,Windows,10,undefined,undefined,2560 x 1440,2560 x 1440
S016,51,Mannelijk,Rechts,1,65,left,yes,700,undefined,null,true,focus,yes,373415,Chrome,112.0,Windows,10,undefined,undefined,2560 x 1440,2560 x 1440
S016,51,Mannelijk,Rechts,1,66,left,no,750,leftarrow,862,true,focus,yes,375052,Chrome,112.0,Windows,10,undefined,undefined,2560 x 1440,2560 x 1440
S016,51,Mannelijk,Rechts,1,67,right,no,750,rightarrow,1165,true,focus,yes,376992,Chrome,112.0,Windows,10,undefined,undefined,2560 x 1440,2560 x 1440
S016,51,Mannelijk,Rechts,1,68,left,no,750,leftarrow,1137,true,focus,yes,378901,Chrome,112.0,Windows,10,undefined,undefined,2560 x 1440,2560 x 1440
S016,51,Mannelijk,Rechts,1,69,right,no,750,rightarrow,1179,true,focus,yes,380852,Chrome,112.0,Windows,10,undefined,undefined,2560 x 1440,2560 x 1440
S016,51,Mannelijk,Rechts,1,70,right,yes,750,undefined,null,true,focus,yes,382881,Chrome,112.0,Windows,10,undefined,undefined,2560 x 1440,2560 x 1440
S016,51,Mannelijk,Rechts,1,71,left,no,800,leftarrow,979,true,focus,yes,384637,Chrome,112.0,Windows,10,undefined,undefined,2560 x 1440,2560 x 1440
S016,51,Mannelijk,Rechts,1,72,right,no,800,rightarrow,1218,true,focus,yes,386620,Chrome,112.0,Windows,10,undefined,undefined,2560 x 1440,2560 x 1440
S016,51,Mannelijk,Rechts,1,73,left,no,800,leftarrow,1214,true,focus,yes,388604,Chrome,112.0,Windows,10,undefined,undefined,2560 x 1440,2560 x 1440
S016,51,Mannelijk,Rechts,1,74,right,no,800,rightarrow,1187,true,focus,yes,390564,Chrome,112.0,Windows,10,undefined,undefined,2560 x 1440,2560 x 1440
S016,51,Mannelijk,Rechts,1,75,left,no,800,leftarrow,1237,true,focus,yes,392572,Chrome,112.0,Windows,10,undefined,undefined,2560 x 1440,2560 x 1440
S016,51,Mannelijk,Rechts,1,76,left,yes,800,undefined,null,true,focus,yes,394600,Chrome,112.0,Windows,10,undefined,undefined,2560 x 1440,2560 x 1440
S016,51,Mannelijk,Rechts,1,77,right,yes,850,rightarrow,926,false,focus,yes,396301,Chrome,112.0,Windows,10,undefined,undefined,2560 x 1440,2560 x 1440
S016,51,Mannelijk,Rechts,1,78,right,no,800,undefined,null,false,focus,yes,398330,Chrome,112.0,Windows,10,undefined,undefined,2560 x 1440,2560 x 1440
S016,51,Mannelijk,Rechts,1,79,right,no,800,rightarrow,1122,true,focus,yes,400228,Chrome,112.0,Windows,10,undefined,undefined,2560 x 1440,2560 x 1440
S016,51,Mannelijk,Rechts,1,80,left,no,800,leftarrow,1072,true,focus,yes,402076,Chrome,112.0,Windows,10,undefined,undefined,2560 x 1440,2560 x 1440
S016,51,Mannelijk,Rechts,1,81,right,no,800,undefined,null,false,focus,yes,404101,Chrome,112.0,Windows,10,undefined,undefined,2560 x 1440,2560 x 1440
S016,51,Mannelijk,Rechts,1,82,right,yes,800,rightarrow,516,false,focus,yes,405388,Chrome,112.0,Windows,10,undefined,undefined,2560 x 1440,2560 x 1440
S016,51,Mannelijk,Rechts,1,83,left,yes,750,leftarrow,1019,false,focus,yes,407172,Chrome,112.0,Windows,10,undefined,undefined,2560 x 1440,2560 x 1440
S016,51,Mannelijk,Rechts,1,84,left,no,700,leftarrow,1037,true,focus,yes,408980,Chrome,112.0,Windows,10,undefined,undefined,2560 x 1440,2560 x 1440
S016,51,Mannelijk,Rechts,1,85,right,no,700,rightarrow,995,true,focus,yes,410758,Chrome,112.0,Windows,10,undefined,undefined,2560 x 1440,2560 x 1440
S016,51,Mannelijk,Rechts,1,86,left,no,700,leftarrow,1006,true,focus,yes,412535,Chrome,112.0,Windows,10,undefined,undefined,2560 x 1440,2560 x 1440
S016,51,Mannelijk,Rechts,1,87,left,no,700,undefined,null,false,focus,yes,414560,Chrome,112.0,Windows,10,undefined,undefined,2560 x 1440,2560 x 1440
S016,51,Mannelijk,Rechts,1,88,right,no,700,rightarrow,1185,true,focus,yes,416519,Chrome,112.0,Windows,10,undefined,undefined,2560 x 1440,2560 x 1440
S016,51,Mannelijk,Rechts,1,89,left,no,700,leftarrow,1203,true,focus,yes,418495,Chrome,112.0,Windows,10,undefined,undefined,2560 x 1440,2560 x 1440
S016,51,Mannelijk,Rechts,1,90,right,yes,700,undefined,null,true,focus,yes,420521,Chrome,112.0,Windows,10,undefined,undefined,2560 x 1440,2560 x 1440
S016,51,Mannelijk,Rechts,1,91,right,no,750,rightarrow,782,true,focus,yes,422079,Chrome,112.0,Windows,10,undefined,undefined,2560 x 1440,2560 x 1440
S016,51,Mannelijk,Rechts,1,92,right,no,750,rightarrow,1023,true,focus,yes,423873,Chrome,112.0,Windows,10,undefined,undefined,2560 x 1440,2560 x 1440
S016,51,Mannelijk,Rechts,1,93,left,no,750,leftarrow,1256,true,focus,yes,425903,Chrome,112.0,Windows,10,undefined,undefined,2560 x 1440,2560 x 1440
S016,51,Mannelijk,Rechts,1,94,left,yes,750,undefined,null,true,focus,yes,427938,Chrome,112.0,Windows,10,undefined,undefined,2560 x 1440,2560 x 1440
S016,51,Mannelijk,Rechts,1,95,right,no,800,rightarrow,882,true,focus,yes,429590,Chrome,112.0,Windows,10,undefined,undefined,2560 x 1440,2560 x 1440
S016,51,Mannelijk,Rechts,1,96,left,no,800,leftarrow,1095,true,focus,yes,431458,Chrome,112.0,Windows,10,undefined,undefined,2560 x 1440,2560 x 1440
S016,51,Mannelijk,Rechts,1,97,left,no,800,leftarrow,1186,true,focus,yes,433415,Chrome,112.0,Windows,10,undefined,undefined,2560 x 1440,2560 x 1440
S016,51,Mannelijk,Rechts,1,98,right,no,800,rightarrow,1038,true,focus,yes,435226,Chrome,112.0,Windows,10,undefined,undefined,2560 x 1440,2560 x 1440
S016,51,Mannelijk,Rechts,1,99,left,no,800,leftarrow,1243,true,focus,yes,437234,Chrome,112.0,Windows,10,undefined,undefined,2560 x 1440,2560 x 1440
S016,51,Mannelijk,Rechts,1,100,right,yes,800,undefined,null,true,focus,yes,439264,Chrome,112.0,Windows,10,undefined,undefined,2560 x 1440,2560 x 1440
S016,51,Mannelijk,Rechts,1,101,left,no,850,leftarrow,849,true,focus,yes,440887,Chrome,112.0,Windows,10,undefined,undefined,2560 x 1440,2560 x 1440
S016,51,Mannelijk,Rechts,1,102,right,no,850,rightarrow,1064,true,focus,yes,442726,Chrome,112.0,Windows,10,undefined,undefined,2560 x 1440,2560 x 1440
S016,51,Mannelijk,Rechts,1,103,right,no,850,undefined,null,false,focus,yes,444763,Chrome,112.0,Windows,10,undefined,undefined,2560 x 1440,2560 x 1440
S016,51,Mannelijk,Rechts,1,104,left,yes,850,undefined,null,true,focus,yes,446799,Chrome,112.0,Windows,10,undefined,undefined,2560 x 1440,2560 x 1440
S016,51,Mannelijk,Rechts,1,105,left,yes,900,leftarrow,977,false,focus,yes,448550,Chrome,112.0,Windows,10,undefined,undefined,2560 x 1440,2560 x 1440
S016,51,Mannelijk,Rechts,1,106,right,no,850,undefined,null,false,focus,yes,450569,Chrome,112.0,Windows,10,undefined,undefined,2560 x 1440,2560 x 1440
S016,51,Mannelijk,Rechts,1,107,left,no,850,leftarrow,1077,true,focus,yes,452407,Chrome,112.0,Windows,10,undefined,undefined,2560 x 1440,2560 x 1440
S016,51,Mannelijk,Rechts,1,108,right,no,850,rightarrow,1147,true,focus,yes,454326,Chrome,112.0,Windows,10,undefined,undefined,2560 x 1440,2560 x 1440
S016,51,Mannelijk,Rechts,1,109,left,no,850,leftarrow,1195,true,focus,yes,456287,Chrome,112.0,Windows,10,undefined,undefined,2560 x 1440,2560 x 1440
S016,51,Mannelijk,Rechts,1,110,right,yes,850,undefined,null,true,focus,yes,458318,Chrome,112.0,Windows,10,undefined,undefined,2560 x 1440,2560 x 1440
S016,51,Mannelijk,Rechts,1,111,right,no,900,rightarrow,1166,true,focus,yes,460247,Chrome,112.0,Windows,10,undefined,undefined,2560 x 1440,2560 x 1440
S016,51,Mannelijk,Rechts,1,112,left,no,900,leftarrow,1138,true,focus,yes,462151,Chrome,112.0,Windows,10,undefined,undefined,2560 x 1440,2560 x 1440
S016,51,Mannelijk,Rechts,1,113,left,no,900,undefined,null,false,focus,yes,464185,Chrome,112.0,Windows,10,undefined,undefined,2560 x 1440,2560 x 1440
S016,51,Mannelijk,Rechts,1,114,right,no,900,rightarrow,1200,true,focus,yes,466159,Chrome,112.0,Windows,10,undefined,undefined,2560 x 1440,2560 x 1440
S016,51,Mannelijk,Rechts,1,115,right,yes,900,rightarrow,1108,false,focus,yes,468042,Chrome,112.0,Windows,10,undefined,undefined,2560 x 1440,2560 x 1440
S016,51,Mannelijk,Rechts,1,116,left,no,850,leftarrow,1092,true,focus,yes,469908,Chrome,112.0,Windows,10,undefined,undefined,2560 x 1440,2560 x 1440
S016,51,Mannelijk,Rechts,1,117,left,yes,850,undefined,null,true,focus,yes,471937,Chrome,112.0,Windows,10,undefined,undefined,2560 x 1440,2560 x 1440
S016,51,Mannelijk,Rechts,1,118,right,no,900,rightarrow,1189,true,focus,yes,473901,Chrome,112.0,Windows,10,undefined,undefined,2560 x 1440,2560 x 1440
S016,51,Mannelijk,Rechts,1,119,right,no,900,undefined,null,false,focus,yes,475934,Chrome,112.0,Windows,10,undefined,undefined,2560 x 1440,2560 x 1440
S016,51,Mannelijk,Rechts,1,120,left,no,900,leftarrow,1141,true,focus,yes,477849,Chrome,112.0,Windows,10,undefined,undefined,2560 x 1440,2560 x 1440
S016,51,Mannelijk,Rechts,1,121,right,no,900,undefined,null,false,focus,yes,479884,Chrome,112.0,Windows,10,undefined,undefined,2560 x 1440,2560 x 1440
S016,51,Mannelijk,Rechts,1,122,left,no,900,leftarrow,1212,true,focus,yes,481868,Chrome,112.0,Windows,10,undefined,undefined,2560 x 1440,2560 x 1440
S016,51,Mannelijk,Rechts,1,123,right,no,900,undefined,null,false,focus,yes,483895,Chrome,112.0,Windows,10,undefined,undefined,2560 x 1440,2560 x 1440
S016,51,Mannelijk,Rechts,1,124,right,yes,900,undefined,null,true,focus,yes,485931,Chrome,112.0,Windows,10,undefined,undefined,2560 x 1440,2560 x 1440
S016,51,Mannelijk,Rechts,1,125,left,yes,950,leftarrow,791,false,focus,yes,487498,Chrome,112.0,Windows,10,undefined,undefined,2560 x 1440,2560 x 1440
S016,51,Mannelijk,Rechts,1,126,left,no,900,leftarrow,1086,true,focus,yes,489357,Chrome,112.0,Windows,10,undefined,undefined,2560 x 1440,2560 x 1440
S016,51,Mannelijk,Rechts,1,127,left,no,900,undefined,null,false,focus,yes,491383,Chrome,112.0,Windows,10,undefined,undefined,2560 x 1440,2560 x 1440
S016,51,Mannelijk,Rechts,1,128,right,no,900,rightarrow,1179,true,focus,yes,493337,Chrome,112.0,Windows,10,undefined,undefined,2560 x 1440,2560 x 1440
S016,51,Mannelijk,Rechts,2,1,right,no,900,rightarrow,890,true,focus,yes,513697,Chrome,112.0,Windows,10,undefined,undefined,2560 x 1440,2560 x 1440
S016,51,Mannelijk,Rechts,2,2,right,no,900,rightarrow,988,true,focus,yes,515457,Chrome,112.0,Windows,10,undefined,undefined,2560 x 1440,2560 x 1440
S016,51,Mannelijk,Rechts,2,3,left,yes,900,leftarrow,1084,false,focus,yes,517308,Chrome,112.0,Windows,10,undefined,undefined,2560 x 1440,2560 x 1440
S016,51,Mannelijk,Rechts,2,4,right,yes,850,rightarrow,1098,false,focus,yes,519179,Chrome,112.0,Windows,10,undefined,undefined,2560 x 1440,2560 x 1440
S016,51,Mannelijk,Rechts,2,5,left,no,800,leftarrow,1164,true,focus,yes,521114,Chrome,112.0,Windows,10,undefined,undefined,2560 x 1440,2560 x 1440
S016,51,Mannelijk,Rechts,2,6,right,no,800,rightarrow,1108,true,focus,yes,522995,Chrome,112.0,Windows,10,undefined,undefined,2560 x 1440,2560 x 1440
S016,51,Mannelijk,Rechts,2,7,left,no,800,leftarrow,1089,true,focus,yes,524859,Chrome,112.0,Windows,10,undefined,undefined,2560 x 1440,2560 x 1440
S016,51,Mannelijk,Rechts,2,8,left,no,800,undefined,null,false,focus,yes,526894,Chrome,112.0,Windows,10,undefined,undefined,2560 x 1440,2560 x 1440
S016,51,Mannelijk,Rechts,2,9,right,no,800,rightarrow,1226,true,focus,yes,528897,Chrome,112.0,Windows,10,undefined,undefined,2560 x 1440,2560 x 1440
S016,51,Mannelijk,Rechts,2,10,left,no,800,undefined,null,false,focus,yes,530946,Chrome,112.0,Windows,10,undefined,undefined,2560 x 1440,2560 x 1440
S016,51,Mannelijk,Rechts,2,11,left,yes,800,undefined,null,true,focus,yes,532979,Chrome,112.0,Windows,10,undefined,undefined,2560 x 1440,2560 x 1440
S016,51,Mannelijk,Rechts,2,12,right,no,850,rightarrow,1207,true,focus,yes,534950,Chrome,112.0,Windows,10,undefined,undefined,2560 x 1440,2560 x 1440
S016,51,Mannelijk,Rechts,2,13,left,no,850,undefined,null,false,focus,yes,536988,Chrome,112.0,Windows,10,undefined,undefined,2560 x 1440,2560 x 1440
S016,51,Mannelijk,Rechts,2,14,right,no,850,rightarrow,1200,true,focus,yes,538958,Chrome,112.0,Windows,10,undefined,undefined,2560 x 1440,2560 x 1440
S016,51,Mannelijk,Rechts,2,15,left,no,850,leftarrow,1242,true,focus,yes,540974,Chrome,112.0,Windows,10,undefined,undefined,2560 x 1440,2560 x 1440
S016,51,Mannelijk,Rechts,2,16,right,yes,850,undefined,null,true,focus,yes,543005,Chrome,112.0,Windows,10,undefined,undefined,2560 x 1440,2560 x 1440
S016,51,Mannelijk,Rechts,2,17,left,yes,900,undefined,null,true,focus,yes,545035,Chrome,112.0,Windows,10,undefined,undefined,2560 x 1440,2560 x 1440
S016,51,Mannelijk,Rechts,2,18,left,no,950,leftarrow,1031,true,focus,yes,546839,Chrome,112.0,Windows,10,undefined,undefined,2560 x 1440,2560 x 1440
S016,51,Mannelijk,Rechts,2,19,right,no,950,rightarrow,1202,true,focus,yes,548815,Chrome,112.0,Windows,10,undefined,undefined,2560 x 1440,2560 x 1440
S016,51,Mannelijk,Rechts,2,20,right,no,950,rightarrow,1203,true,focus,yes,550790,Chrome,112.0,Windows,10,undefined,undefined,2560 x 1440,2560 x 1440
S016,51,Mannelijk,Rechts,2,21,right,yes,950,undefined,null,true,focus,yes,552826,Chrome,112.0,Windows,10,undefined,undefined,2560 x 1440,2560 x 1440
S016,51,Mannelijk,Rechts,2,22,left,no,1000,leftarrow,1203,true,focus,yes,554798,Chrome,112.0,Windows,10,undefined,undefined,2560 x 1440,2560 x 1440
S016,51,Mannelijk,Rechts,2,23,right,no,1000,rightarrow,1231,true,focus,yes,556801,Chrome,112.0,Windows,10,undefined,undefined,2560 x 1440,2560 x 1440
S016,51,Mannelijk,Rechts,2,24,left,no,1000,leftarrow,1077,true,focus,yes,558654,Chrome,112.0,Windows,10,undefined,undefined,2560 x 1440,2560 x 1440
S016,51,Mannelijk,Rechts,2,25,right,no,1000,undefined,null,false,focus,yes,560677,Chrome,112.0,Windows,10,undefined,undefined,2560 x 1440,2560 x 1440
S016,51,Mannelijk,Rechts,2,26,left,no,1000,undefined,null,false,focus,yes,562715,Chrome,112.0,Windows,10,undefined,undefined,2560 x 1440,2560 x 1440
S016,51,Mannelijk,Rechts,2,27,left,yes,1000,leftarrow,1104,false,focus,yes,564591,Chrome,112.0,Windows,10,undefined,undefined,2560 x 1440,2560 x 1440
S016,51,Mannelijk,Rechts,2,28,left,no,950,leftarrow,1131,true,focus,yes,566495,Chrome,112.0,Windows,10,undefined,undefined,2560 x 1440,2560 x 1440
S016,51,Mannelijk,Rechts,2,29,left,no,950,leftarrow,1068,true,focus,yes,568335,Chrome,112.0,Windows,10,undefined,undefined,2560 x 1440,2560 x 1440
S016,51,Mannelijk,Rechts,2,30,right,no,950,rightarrow,1236,true,focus,yes,570345,Chrome,112.0,Windows,10,undefined,undefined,2560 x 1440,2560 x 1440
S016,51,Mannelijk,Rechts,2,31,right,yes,950,undefined,null,true,focus,yes,572372,Chrome,112.0,Windows,10,undefined,undefined,2560 x 1440,2560 x 1440
S016,51,Mannelijk,Rechts,2,32,right,no,1000,rightarrow,1113,true,focus,yes,574246,Chrome,112.0,Windows,10,undefined,undefined,2560 x 1440,2560 x 1440
S016,51,Mannelijk,Rechts,2,33,right,no,1000,rightarrow,1226,true,focus,yes,576238,Chrome,112.0,Windows,10,undefined,undefined,2560 x 1440,2560 x 1440
S016,51,Mannelijk,Rechts,2,34,right,yes,1000,undefined,null,true,focus,yes,578265,Chrome,112.0,Windows,10,undefined,undefined,2560 x 1440,2560 x 1440
S016,51,Mannelijk,Rechts,2,35,right,no,1050,undefined,null,false,focus,yes,580289,Chrome,112.0,Windows,10,undefined,undefined,2560 x 1440,2560 x 1440
S016,51,Mannelijk,Rechts,2,36,left,no,1050,leftarrow,1065,true,focus,yes,582134,Chrome,112.0,Windows,10,undefined,undefined,2560 x 1440,2560 x 1440
S016,51,Mannelijk,Rechts,2,37,right,no,1050,undefined,null,false,focus,yes,584166,Chrome,112.0,Windows,10,undefined,undefined,2560 x 1440,2560 x 1440
S016,51,Mannelijk,Rechts,2,38,left,yes,1050,leftarrow,1078,false,focus,yes,586014,Chrome,112.0,Windows,10,undefined,undefined,2560 x 1440,2560 x 1440
S016,51,Mannelijk,Rechts,2,39,left,no,1000,undefined,null,false,focus,yes,588055,Chrome,112.0,Windows,10,undefined,undefined,2560 x 1440,2560 x 1440
S016,51,Mannelijk,Rechts,2,40,left,no,1000,leftarrow,1071,true,focus,yes,589896,Chrome,112.0,Windows,10,undefined,undefined,2560 x 1440,2560 x 1440
S016,51,Mannelijk,Rechts,2,41,left,no,1000,undefined,null,false,focus,yes,591926,Chrome,112.0,Windows,10,undefined,undefined,2560 x 1440,2560 x 1440
S016,51,Mannelijk,Rechts,2,42,left,no,1000,leftarrow,1187,true,focus,yes,593886,Chrome,112.0,Windows,10,undefined,undefined,2560 x 1440,2560 x 1440
S016,51,Mannelijk,Rechts,2,43,right,no,1000,rightarrow,1184,true,focus,yes,595846,Chrome,112.0,Windows,10,undefined,undefined,2560 x 1440,2560 x 1440
S016,51,Mannelijk,Rechts,2,44,left,no,1000,leftarrow,1246,true,focus,yes,597862,Chrome,112.0,Windows,10,undefined,undefined,2560 x 1440,2560 x 1440
S016,51,Mannelijk,Rechts,2,45,right,yes,1000,rightarrow,1211,false,focus,yes,599848,Chrome,112.0,Windows,10,undefined,undefined,2560 x 1440,2560 x 1440
S016,51,Mannelijk,Rechts,2,46,right,no,950,rightarrow,1145,true,focus,yes,601766,Chrome,112.0,Windows,10,undefined,undefined,2560 x 1440,2560 x 1440
S016,51,Mannelijk,Rechts,2,47,left,yes,950,undefined,null,true,focus,yes,603780,Chrome,112.0,Windows,10,undefined,undefined,2560 x 1440,2560 x 1440
S016,51,Mannelijk,Rechts,2,48,right,no,1000,rightarrow,1164,true,focus,yes,605718,Chrome,112.0,Windows,10,undefined,undefined,2560 x 1440,2560 x 1440
S016,51,Mannelijk,Rechts,2,49,right,no,1000,undefined,null,false,focus,yes,607755,Chrome,112.0,Windows,10,undefined,undefined,2560 x 1440,2560 x 1440
S016,51,Mannelijk,Rechts,2,50,right,no,1000,rightarrow,1217,true,focus,yes,609742,Chrome,112.0,Windows,10,undefined,undefined,2560 x 1440,2560 x 1440
S016,51,Mannelijk,Rechts,2,51,left,no,1000,undefined,null,false,focus,yes,611784,Chrome,112.0,Windows,10,undefined,undefined,2560 x 1440,2560 x 1440
S016,51,Mannelijk,Rechts,2,52,right,yes,1000,undefined,null,true,focus,yes,613822,Chrome,112.0,Windows,10,undefined,undefined,2560 x 1440,2560 x 1440
S016,51,Mannelijk,Rechts,2,53,left,no,1050,leftarrow,1179,true,focus,yes,615774,Chrome,112.0,Windows,10,undefined,undefined,2560 x 1440,2560 x 1440
S016,51,Mannelijk,Rechts,2,54,left,yes,1050,leftarrow,1244,false,focus,yes,617790,Chrome,112.0,Windows,10,undefined,undefined,2560 x 1440,2560 x 1440
S016,51,Mannelijk,Rechts,2,55,right,no,1000,undefined,null,false,focus,yes,619816,Chrome,112.0,Windows,10,undefined,undefined,2560 x 1440,2560 x 1440
S016,51,Mannelijk,Rechts,2,56,left,no,1000,undefined,null,false,focus,yes,621850,Chrome,112.0,Windows,10,undefined,undefined,2560 x 1440,2560 x 1440
S016,51,Mannelijk,Rechts,2,57,left,no,1000,leftarrow,1262,true,focus,yes,623886,Chrome,112.0,Windows,10,undefined,undefined,2560 x 1440,2560 x 1440
S016,51,Mannelijk,Rechts,2,58,right,yes,1000,undefined,null,true,focus,yes,625912,Chrome,112.0,Windows,10,undefined,undefined,2560 x 1440,2560 x 1440
S016,51,Mannelijk,Rechts,2,59,right,no,1050,undefined,null,false,focus,yes,627934,Chrome,112.0,Windows,10,undefined,undefined,2560 x 1440,2560 x 1440
S016,51,Mannelijk,Rechts,2,60,right,no,1050,rightarrow,1198,true,focus,yes,629894,Chrome,112.0,Windows,10,undefined,undefined,2560 x 1440,2560 x 1440
S016,51,Mannelijk,Rechts,2,61,right,no,1050,undefined,null,false,focus,yes,631930,Chrome,112.0,Windows,10,undefined,undefined,2560 x 1440,2560 x 1440
S016,51,Mannelijk,Rechts,2,62,left,yes,1050,undefined,null,true,focus,yes,633966,Chrome,112.0,Windows,10,undefined,undefined,2560 x 1440,2560 x 1440
S016,51,Mannelijk,Rechts,2,63,left,no,1100,leftarrow,1033,true,focus,yes,635774,Chrome,112.0,Windows,10,undefined,undefined,2560 x 1440,2560 x 1440
S016,51,Mannelijk,Rechts,2,64,left,no,1100,undefined,null,false,focus,yes,637808,Chrome,112.0,Windows,10,undefined,undefined,2560 x 1440,2560 x 1440
S016,51,Mannelijk,Rechts,2,65,right,no,1100,rightarrow,1071,true,focus,yes,639654,Chrome,112.0,Windows,10,undefined,undefined,2560 x 1440,2560 x 1440
S016,51,Mannelijk,Rechts,2,66,right,yes,1100,undefined,null,true,focus,yes,641683,Chrome,112.0,Windows,10,undefined,undefined,2560 x 1440,2560 x 1440
S016,51,Mannelijk,Rechts,2,67,left,yes,1150,undefined,null,true,focus,yes,643713,Chrome,112.0,Windows,10,undefined,undefined,2560 x 1440,2560 x 1440
S016,51,Mannelijk,Rechts,2,68,right,no,1200,undefined,null,false,focus,yes,645754,Chrome,112.0,Windows,10,undefined,undefined,2560 x 1440,2560 x 1440
S016,51,Mannelijk,Rechts,2,69,left,no,1200,leftarrow,977,true,focus,yes,647502,Chrome,112.0,Windows,10,undefined,undefined,2560 x 1440,2560 x 1440
S016,51,Mannelijk,Rechts,2,70,right,no,1200,rightarrow,1171,true,focus,yes,649446,Chrome,112.0,Windows,10,undefined,undefined,2560 x 1440,2560 x 1440
S016,51,Mannelijk,Rechts,2,71,left,no,1200,leftarrow,1253,true,focus,yes,651471,Chrome,112.0,Windows,10,undefined,undefined,2560 x 1440,2560 x 1440
S016,51,Mannelijk,Rechts,2,72,left,no,1200,undefined,null,false,focus,yes,653494,Chrome,112.0,Windows,10,undefined,undefined,2560 x 1440,2560 x 1440
S016,51,Mannelijk,Rechts,2,73,left,no,1200,undefined,null,false,focus,yes,655523,Chrome,112.0,Windows,10,undefined,undefined,2560 x 1440,2560 x 1440
S016,51,Mannelijk,Rechts,2,74,left,no,1200,undefined,null,false,focus,yes,657548,Chrome,112.0,Windows,10,undefined,undefined,2560 x 1440,2560 x 1440
S016,51,Mannelijk,Rechts,2,75,left,yes,1200,undefined,null,true,focus,yes,659584,Chrome,112.0,Windows,10,undefined,undefined,2560 x 1440,2560 x 1440
S016,51,Mannelijk,Rechts,2,76,right,no,1200,undefined,null,false,focus,yes,661628,Chrome,112.0,Windows,10,undefined,undefined,2560 x 1440,2560 x 1440
S016,51,Mannelijk,Rechts,2,77,right,yes,1200,rightarrow,1219,false,focus,yes,663615,Chrome,112.0,Windows,10,undefined,undefined,2560 x 1440,2560 x 1440
S016,51,Mannelijk,Rechts,2,78,right,no,1150,undefined,null,false,focus,yes,665650,Chrome,112.0,Windows,10,undefined,undefined,2560 x 1440,2560 x 1440
S016,51,Mannelijk,Rechts,2,79,right,no,1150,rightarrow,1158,true,focus,yes,667582,Chrome,112.0,Windows,10,undefined,undefined,2560 x 1440,2560 x 1440
S016,51,Mannelijk,Rechts,2,80,left,no,1150,leftarrow,1107,true,focus,yes,669463,Chrome,112.0,Windows,10,undefined,undefined,2560 x 1440,2560 x 1440
S016,51,Mannelijk,Rechts,2,81,left,no,1150,leftarrow,1264,true,focus,yes,671494,Chrome,112.0,Windows,10,undefined,undefined,2560 x 1440,2560 x 1440
S016,51,Mannelijk,Rechts,2,82,right,no,1150,rightarrow,1224,true,focus,yes,673487,Chrome,112.0,Windows,10,undefined,undefined,2560 x 1440,2560 x 1440
S016,51,Mannelijk,Rechts,2,83,left,no,1150,undefined,null,false,focus,yes,675511,Chrome,112.0,Windows,10,undefined,undefined,2560 x 1440,2560 x 1440
S016,51,Mannelijk,Rechts,2,84,left,yes,1150,undefined,null,true,focus,yes,677538,Chrome,112.0,Windows,10,undefined,undefined,2560 x 1440,2560 x 1440
S016,51,Mannelijk,Rechts,2,85,right,no,1200,rightarrow,1211,true,focus,yes,679510,Chrome,112.0,Windows,10,undefined,undefined,2560 x 1440,2560 x 1440
S016,51,Mannelijk,Rechts,2,86,left,no,1200,leftarrow,1257,true,focus,yes,681542,Chrome,112.0,Windows,10,undefined,undefined,2560 x 1440,2560 x 1440
S016,51,Mannelijk,Rechts,2,87,right,yes,1200,undefined,null,true,focus,yes,683571,Chrome,112.0,Windows,10,undefined,undefined,2560 x 1440,2560 x 1440
S016,51,Mannelijk,Rechts,2,88,right,no,1200,leftarrow,1063,false,focus,yes,685402,Chrome,112.0,Windows,10,undefined,undefined,2560 x 1440,2560 x 1440
S016,51,Mannelijk,Rechts,2,89,left,no,1200,leftarrow,1143,true,focus,yes,687319,Chrome,112.0,Windows,10,undefined,undefined,2560 x 1440,2560 x 1440
S016,51,Mannelijk,Rechts,2,90,left,yes,1200,leftarrow,1049,false,focus,yes,689142,Chrome,112.0,Windows,10,undefined,undefined,2560 x 1440,2560 x 1440
S016,51,Mannelijk,Rechts,2,91,right,no,1150,undefined,null,false,focus,yes,691175,Chrome,112.0,Windows,10,undefined,undefined,2560 x 1440,2560 x 1440
S016,51,Mannelijk,Rechts,2,92,right,no,1150,rightarrow,1213,true,focus,yes,693159,Chrome,112.0,Windows,10,undefined,undefined,2560 x 1440,2560 x 1440
S016,51,Mannelijk,Rechts,2,93,left,no,1150,leftarrow,1198,true,focus,yes,695126,Chrome,112.0,Windows,10,undefined,undefined,2560 x 1440,2560 x 1440
S016,51,Mannelijk,Rechts,2,94,right,no,1150,undefined,null,false,focus,yes,697142,Chrome,112.0,Windows,10,undefined,undefined,2560 x 1440,2560 x 1440
S016,51,Mannelijk,Rechts,2,95,right,yes,1150,rightarrow,1029,false,focus,yes,698942,Chrome,112.0,Windows,10,undefined,undefined,2560 x 1440,2560 x 1440
S016,51,Mannelijk,Rechts,2,96,left,no,1100,leftarrow,1193,true,focus,yes,700905,Chrome,112.0,Windows,10,undefined,undefined,2560 x 1440,2560 x 1440
S016,51,Mannelijk,Rechts,2,97,right,no,1100,undefined,null,false,focus,yes,702946,Chrome,112.0,Windows,10,undefined,undefined,2560 x 1440,2560 x 1440
S016,51,Mannelijk,Rechts,2,98,right,yes,1100,undefined,null,true,focus,yes,704981,Chrome,112.0,Windows,10,undefined,undefined,2560 x 1440,2560 x 1440
S016,51,Mannelijk,Rechts,2,99,left,no,1150,leftarrow,756,true,focus,yes,706510,Chrome,112.0,Windows,10,undefined,undefined,2560 x 1440,2560 x 1440
S016,51,Mannelijk,Rechts,2,100,left,yes,1150,leftarrow,1116,false,focus,yes,708400,Chrome,112.0,Windows,10,undefined,undefined,2560 x 1440,2560 x 1440
S016,51,Mannelijk,Rechts,2,101,left,no,1100,undefined,null,false,focus,yes,710432,Chrome,112.0,Windows,10,undefined,undefined,2560 x 1440,2560 x 1440
S016,51,Mannelijk,Rechts,2,102,right,no,1100,rightarrow,996,true,focus,yes,712200,Chrome,112.0,Windows,10,undefined,undefined,2560 x 1440,2560 x 1440
S016,51,Mannelijk,Rechts,2,103,left,no,1100,leftarrow,1215,true,focus,yes,714184,Chrome,112.0,Windows,10,undefined,undefined,2560 x 1440,2560 x 1440
S016,51,Mannelijk,Rechts,2,104,right,no,1100,rightarrow,1203,true,focus,yes,716161,Chrome,112.0,Windows,10,undefined,undefined,2560 x 1440,2560 x 1440
S016,51,Mannelijk,Rechts,2,105,left,no,1100,leftarrow,1197,true,focus,yes,718129,Chrome,112.0,Windows,10,undefined,undefined,2560 x 1440,2560 x 1440
S016,51,Mannelijk,Rechts,2,106,right,no,1100,rightarrow,1215,true,focus,yes,720113,Chrome,112.0,Windows,10,undefined,undefined,2560 x 1440,2560 x 1440
S016,51,Mannelijk,Rechts,2,107,left,no,1100,undefined,null,false,focus,yes,722150,Chrome,112.0,Windows,10,undefined,undefined,2560 x 1440,2560 x 1440
S016,51,Mannelijk,Rechts,2,108,right,no,1100,rightarrow,973,true,focus,yes,723896,Chrome,112.0,Windows,10,undefined,undefined,2560 x 1440,2560 x 1440
S016,51,Mannelijk,Rechts,2,109,left,no,1100,leftarrow,1142,true,focus,yes,725817,Chrome,112.0,Windows,10,undefined,undefined,2560 x 1440,2560 x 1440
S016,51,Mannelijk,Rechts,2,110,left,yes,1100,undefined,null,true,focus,yes,727839,Chrome,112.0,Windows,10,undefined,undefined,2560 x 1440,2560 x 1440
S016,51,Mannelijk,Rechts,2,111,right,yes,1150,rightarrow,1149,false,focus,yes,729760,Chrome,112.0,Windows,10,undefined,undefined,2560 x 1440,2560 x 1440
S016,51,Mannelijk,Rechts,2,112,right,no,1100,undefined,null,false,focus,yes,731787,Chrome,112.0,Windows,10,undefined,undefined,2560 x 1440,2560 x 1440
S016,51,Mannelijk,Rechts,2,113,right,no,1100,rightarrow,1156,true,focus,yes,733704,Chrome,112.0,Windows,10,undefined,undefined,2560 x 1440,2560 x 1440
S016,51,Mannelijk,Rechts,2,114,left,no,1100,leftarrow,1077,true,focus,yes,735560,Chrome,112.0,Windows,10,undefined,undefined,2560 x 1440,2560 x 1440
S016,51,Mannelijk,Rechts,2,115,left,yes,1100,leftarrow,1193,false,focus,yes,737520,Chrome,112.0,Windows,10,undefined,undefined,2560 x 1440,2560 x 1440
S016,51,Mannelijk,Rechts,2,116,right,no,1050,rightarrow,1207,true,focus,yes,739497,Chrome,112.0,Windows,10,undefined,undefined,2560 x 1440,2560 x 1440
S016,51,Mannelijk,Rechts,2,117,right,no,1050,rightarrow,1068,true,focus,yes,741337,Chrome,112.0,Windows,10,undefined,undefined,2560 x 1440,2560 x 1440
S016,51,Mannelijk,Rechts,2,118,left,no,1050,leftarrow,1073,true,focus,yes,743184,Chrome,112.0,Windows,10,undefined,undefined,2560 x 1440,2560 x 1440
S016,51,Mannelijk,Rechts,2,119,right,yes,1050,rightarrow,1107,false,focus,yes,745064,Chrome,112.0,Windows,10,undefined,undefined,2560 x 1440,2560 x 1440
S016,51,Mannelijk,Rechts,2,120,left,no,1000,leftarrow,1005,true,focus,yes,746836,Chrome,112.0,Windows,10,undefined,undefined,2560 x 1440,2560 x 1440
S016,51,Mannelijk,Rechts,2,121,right,yes,1000,rightarrow,1019,false,focus,yes,748632,Chrome,112.0,Windows,10,undefined,undefined,2560 x 1440,2560 x 1440
S016,51,Mannelijk,Rechts,2,122,left,no,950,leftarrow,1208,true,focus,yes,750607,Chrome,112.0,Windows,10,undefined,undefined,2560 x 1440,2560 x 1440
S016,51,Mannelijk,Rechts,2,123,left,no,950,leftarrow,1174,true,focus,yes,752552,Chrome,112.0,Windows,10,undefined,undefined,2560 x 1440,2560 x 1440
S016,51,Mannelijk,Rechts,2,124,left,yes,950,leftarrow,1160,false,focus,yes,754488,Chrome,112.0,Windows,10,undefined,undefined,2560 x 1440,2560 x 1440
S016,51,Mannelijk,Rechts,2,125,right,no,900,rightarrow,1116,true,focus,yes,756376,Chrome,112.0,Windows,10,undefined,undefined,2560 x 1440,2560 x 1440
S016,51,Mannelijk,Rechts,2,126,right,no,900,rightarrow,1060,true,focus,yes,758208,Chrome,112.0,Windows,10,undefined,undefined,2560 x 1440,2560 x 1440
S016,51,Mannelijk,Rechts,2,127,right,no,900,undefined,null,false,focus,yes,760236,Chrome,112.0,Windows,10,undefined,undefined,2560 x 1440,2560 x 1440
S016,51,Mannelijk,Rechts,2,128,left,no,900,undefined,null,false,focus,yes,762272,Chrome,112.0,Windows,10,undefined,undefined,2560 x 1440,2560 x 1440
S016,51,Mannelijk,Rechts,3,1,left,no,900,leftarrow,977,true,focus,yes,782490,Chrome,112.0,Windows,10,undefined,undefined,2560 x 1440,2560 x 1440
S016,51,Mannelijk,Rechts,3,2,right,no,900,rightarrow,852,true,focus,yes,784118,Chrome,112.0,Windows,10,undefined,undefined,2560 x 1440,2560 x 1440
S016,51,Mannelijk,Rechts,3,3,right,no,900,rightarrow,1210,true,focus,yes,786101,Chrome,112.0,Windows,10,undefined,undefined,2560 x 1440,2560 x 1440
S016,51,Mannelijk,Rechts,3,4,right,no,900,rightarrow,1148,true,focus,yes,788022,Chrome,112.0,Windows,10,undefined,undefined,2560 x 1440,2560 x 1440
S016,51,Mannelijk,Rechts,3,5,right,yes,900,rightarrow,1132,false,focus,yes,789926,Chrome,112.0,Windows,10,undefined,undefined,2560 x 1440,2560 x 1440
S016,51,Mannelijk,Rechts,3,6,left,no,850,leftarrow,1192,true,focus,yes,791897,Chrome,112.0,Windows,10,undefined,undefined,2560 x 1440,2560 x 1440
S016,51,Mannelijk,Rechts,3,7,left,yes,850,undefined,null,true,focus,yes,793927,Chrome,112.0,Windows,10,undefined,undefined,2560 x 1440,2560 x 1440
S016,51,Mannelijk,Rechts,3,8,left,no,900,leftarrow,973,true,focus,yes,795670,Chrome,112.0,Windows,10,undefined,undefined,2560 x 1440,2560 x 1440
S016,51,Mannelijk,Rechts,3,9,left,yes,900,leftarrow,1136,false,focus,yes,797573,Chrome,112.0,Windows,10,undefined,undefined,2560 x 1440,2560 x 1440
S016,51,Mannelijk,Rechts,3,10,left,no,850,leftarrow,1156,true,focus,yes,799500,Chrome,112.0,Windows,10,undefined,undefined,2560 x 1440,2560 x 1440
S016,51,Mannelijk,Rechts,3,11,right,no,850,rightarrow,1044,true,focus,yes,801308,Chrome,112.0,Windows,10,undefined,undefined,2560 x 1440,2560 x 1440
S016,51,Mannelijk,Rechts,3,12,left,no,850,undefined,null,false,focus,yes,803336,Chrome,112.0,Windows,10,undefined,undefined,2560 x 1440,2560 x 1440
S016,51,Mannelijk,Rechts,3,13,right,no,850,rightarrow,1142,true,focus,yes,805245,Chrome,112.0,Windows,10,undefined,undefined,2560 x 1440,2560 x 1440
S016,51,Mannelijk,Rechts,3,14,right,no,850,undefined,null,false,focus,yes,807280,Chrome,112.0,Windows,10,undefined,undefined,2560 x 1440,2560 x 1440
S016,51,Mannelijk,Rechts,3,15,right,yes,850,rightarrow,1118,false,focus,yes,809175,Chrome,112.0,Windows,10,undefined,undefined,2560 x 1440,2560 x 1440
S016,51,Mannelijk,Rechts,3,16,left,no,800,leftarrow,1111,true,focus,yes,811053,Chrome,112.0,Windows,10,undefined,undefined,2560 x 1440,2560 x 1440
S016,51,Mannelijk,Rechts,3,17,right,no,800,rightarrow,1138,true,focus,yes,812966,Chrome,112.0,Windows,10,undefined,undefined,2560 x 1440,2560 x 1440
S016,51,Mannelijk,Rechts,3,18,left,yes,800,leftarrow,1115,false,focus,yes,814848,Chrome,112.0,Windows,10,undefined,undefined,2560 x 1440,2560 x 1440
S016,51,Mannelijk,Rechts,3,19,right,no,750,rightarrow,1145,true,focus,yes,816765,Chrome,112.0,Windows,10,undefined,undefined,2560 x 1440,2560 x 1440
S016,51,Mannelijk,Rechts,3,20,left,no,750,leftarrow,1065,true,focus,yes,818598,Chrome,112.0,Windows,10,undefined,undefined,2560 x 1440,2560 x 1440
S016,51,Mannelijk,Rechts,3,21,right,no,750,undefined,null,false,focus,yes,820641,Chrome,112.0,Windows,10,undefined,undefined,2560 x 1440,2560 x 1440
S016,51,Mannelijk,Rechts,3,22,right,yes,750,undefined,null,true,focus,yes,822673,Chrome,112.0,Windows,10,undefined,undefined,2560 x 1440,2560 x 1440
S016,51,Mannelijk,Rechts,3,23,left,no,800,leftarrow,830,true,focus,yes,824270,Chrome,112.0,Windows,10,undefined,undefined,2560 x 1440,2560 x 1440
S016,51,Mannelijk,Rechts,3,24,left,no,800,leftarrow,1109,true,focus,yes,826149,Chrome,112.0,Windows,10,undefined,undefined,2560 x 1440,2560 x 1440
S016,51,Mannelijk,Rechts,3,25,right,no,800,rightarrow,1106,true,focus,yes,828029,Chrome,112.0,Windows,10,undefined,undefined,2560 x 1440,2560 x 1440
S016,51,Mannelijk,Rechts,3,26,left,no,800,undefined,null,false,focus,yes,830060,Chrome,112.0,Windows,10,undefined,undefined,2560 x 1440,2560 x 1440
S016,51,Mannelijk,Rechts,3,27,right,yes,800,undefined,null,true,focus,yes,832088,Chrome,112.0,Windows,10,undefined,undefined,2560 x 1440,2560 x 1440
S016,51,Mannelijk,Rechts,3,28,left,no,850,leftarrow,458,true,focus,yes,833320,Chrome,112.0,Windows,10,undefined,undefined,2560 x 1440,2560 x 1440
S016,51,Mannelijk,Rechts,3,29,left,yes,850,leftarrow,1096,false,focus,yes,835190,Chrome,112.0,Windows,10,undefined,undefined,2560 x 1440,2560 x 1440
S016,51,Mannelijk,Rechts,3,30,right,no,800,rightarrow,980,true,focus,yes,836942,Chrome,112.0,Windows,10,undefined,undefined,2560 x 1440,2560 x 1440
S016,51,Mannelijk,Rechts,3,31,left,no,800,undefined,null,false,focus,yes,838972,Chrome,112.0,Windows,10,undefined,undefined,2560 x 1440,2560 x 1440
S016,51,Mannelijk,Rechts,3,32,right,no,800,rightarrow,1220,true,focus,yes,840966,Chrome,112.0,Windows,10,undefined,undefined,2560 x 1440,2560 x 1440
S016,51,Mannelijk,Rechts,3,33,left,no,800,undefined,null,false,focus,yes,843001,Chrome,112.0,Windows,10,undefined,undefined,2560 x 1440,2560 x 1440
S016,51,Mannelijk,Rechts,3,34,left,yes,800,undefined,null,true,focus,yes,845029,Chrome,112.0,Windows,10,undefined,undefined,2560 x 1440,2560 x 1440
S016,51,Mannelijk,Rechts,3,35,right,no,850,rightarrow,1116,true,focus,yes,846920,Chrome,112.0,Windows,10,undefined,undefined,2560 x 1440,2560 x 1440
S016,51,Mannelijk,Rechts,3,36,left,no,850,leftarrow,1196,true,focus,yes,848878,Chrome,112.0,Windows,10,undefined,undefined,2560 x 1440,2560 x 1440
S016,51,Mannelijk,Rechts,3,37,right,yes,850,undefined,null,true,focus,yes,850916,Chrome,112.0,Windows,10,undefined,undefined,2560 x 1440,2560 x 1440
S016,51,Mannelijk,Rechts,3,38,right,no,900,rightarrow,1033,true,focus,yes,852726,Chrome,112.0,Windows,10,undefined,undefined,2560 x 1440,2560 x 1440
S016,51,Mannelijk,Rechts,3,39,left,no,900,leftarrow,1135,true,focus,yes,854622,Chrome,112.0,Windows,10,undefined,undefined,2560 x 1440,2560 x 1440
S016,51,Mannelijk,Rechts,3,40,right,no,900,undefined,null,false,focus,yes,856648,Chrome,112.0,Windows,10,undefined,undefined,2560 x 1440,2560 x 1440
S016,51,Mannelijk,Rechts,3,41,right,no,900,rightarrow,1212,true,focus,yes,858629,Chrome,112.0,Windows,10,undefined,undefined,2560 x 1440,2560 x 1440
S016,51,Mannelijk,Rechts,3,42,left,no,900,leftarrow,1234,true,focus,yes,860638,Chrome,112.0,Windows,10,undefined,undefined,2560 x 1440,2560 x 1440
S016,51,Mannelijk,Rechts,3,43,right,no,900,undefined,null,false,focus,yes,862669,Chrome,112.0,Windows,10,undefined,undefined,2560 x 1440,2560 x 1440
S016,51,Mannelijk,Rechts,3,44,left,yes,900,leftarrow,1199,false,focus,yes,864638,Chrome,112.0,Windows,10,undefined,undefined,2560 x 1440,2560 x 1440
S016,51,Mannelijk,Rechts,3,45,left,no,850,leftarrow,933,true,focus,yes,866342,Chrome,112.0,Windows,10,undefined,undefined,2560 x 1440,2560 x 1440
S016,51,Mannelijk,Rechts,3,46,right,no,850,rightarrow,1100,true,focus,yes,868213,Chrome,112.0,Windows,10,undefined,undefined,2560 x 1440,2560 x 1440
S016,51,Mannelijk,Rechts,3,47,right,yes,850,undefined,null,true,focus,yes,870248,Chrome,112.0,Windows,10,undefined,undefined,2560 x 1440,2560 x 1440
S016,51,Mannelijk,Rechts,3,48,left,no,900,leftarrow,1142,true,focus,yes,872170,Chrome,112.0,Windows,10,undefined,undefined,2560 x 1440,2560 x 1440
S016,51,Mannelijk,Rechts,3,49,left,no,900,undefined,null,false,focus,yes,874204,Chrome,112.0,Windows,10,undefined,undefined,2560 x 1440,2560 x 1440
S016,51,Mannelijk,Rechts,3,50,left,no,900,undefined,null,false,focus,yes,876231,Chrome,112.0,Windows,10,undefined,undefined,2560 x 1440,2560 x 1440
S016,51,Mannelijk,Rechts,3,51,left,yes,900,undefined,null,true,focus,yes,878252,Chrome,112.0,Windows,10,undefined,undefined,2560 x 1440,2560 x 1440
S016,51,Mannelijk,Rechts,3,52,right,no,950,rightarrow,1215,true,focus,yes,880239,Chrome,112.0,Windows,10,undefined,undefined,2560 x 1440,2560 x 1440
S016,51,Mannelijk,Rechts,3,53,left,no,950,leftarrow,1076,true,focus,yes,882088,Chrome,112.0,Windows,10,undefined,undefined,2560 x 1440,2560 x 1440
S016,51,Mannelijk,Rechts,3,54,right,no,950,rightarrow,1196,true,focus,yes,884053,Chrome,112.0,Windows,10,undefined,undefined,2560 x 1440,2560 x 1440
S016,51,Mannelijk,Rechts,3,55,right,no,950,rightarrow,1206,true,focus,yes,886022,Chrome,112.0,Windows,10,undefined,undefined,2560 x 1440,2560 x 1440
S016,51,Mannelijk,Rechts,3,56,right,yes,950,undefined,null,true,focus,yes,888055,Chrome,112.0,Windows,10,undefined,undefined,2560 x 1440,2560 x 1440
S016,51,Mannelijk,Rechts,3,57,left,no,1000,leftarrow,1230,true,focus,yes,890048,Chrome,112.0,Windows,10,undefined,undefined,2560 x 1440,2560 x 1440
S016,51,Mannelijk,Rechts,3,58,left,no,1000,leftarrow,1096,true,focus,yes,891912,Chrome,112.0,Windows,10,undefined,undefined,2560 x 1440,2560 x 1440
S016,51,Mannelijk,Rechts,3,59,right,no,1000,rightarrow,1205,true,focus,yes,893888,Chrome,112.0,Windows,10,undefined,undefined,2560 x 1440,2560 x 1440
S016,51,Mannelijk,Rechts,3,60,left,yes,1000,leftarrow,1242,false,focus,yes,895893,Chrome,112.0,Windows,10,undefined,undefined,2560 x 1440,2560 x 1440
S016,51,Mannelijk,Rechts,3,61,right,no,950,rightarrow,1064,true,focus,yes,897726,Chrome,112.0,Windows,10,undefined,undefined,2560 x 1440,2560 x 1440
S016,51,Mannelijk,Rechts,3,62,right,no,950,rightarrow,966,true,focus,yes,899462,Chrome,112.0,Windows,10,undefined,undefined,2560 x 1440,2560 x 1440
S016,51,Mannelijk,Rechts,3,63,right,yes,950,rightarrow,1232,false,focus,yes,901469,Chrome,112.0,Windows,10,undefined,undefined,2560 x 1440,2560 x 1440
S016,51,Mannelijk,Rechts,3,64,left,no,900,leftarrow,1133,true,focus,yes,903374,Chrome,112.0,Windows,10,undefined,undefined,2560 x 1440,2560 x 1440
S016,51,Mannelijk,Rechts,3,65,left,yes,900,undefined,null,true,focus,yes,905397,Chrome,112.0,Windows,10,undefined,undefined,2560 x 1440,2560 x 1440
S016,51,Mannelijk,Rechts,3,66,right,no,950,rightarrow,980,true,focus,yes,907150,Chrome,112.0,Windows,10,undefined,undefined,2560 x 1440,2560 x 1440
S016,51,Mannelijk,Rechts,3,67,right,no,950,undefined,null,false,focus,yes,909180,Chrome,112.0,Windows,10,undefined,undefined,2560 x 1440,2560 x 1440
S016,51,Mannelijk,Rechts,3,68,left,no,950,leftarrow,1107,true,focus,yes,911062,Chrome,112.0,Windows,10,undefined,undefined,2560 x 1440,2560 x 1440
S016,51,Mannelijk,Rechts,3,69,left,no,950,leftarrow,1236,true,focus,yes,913078,Chrome,112.0,Windows,10,undefined,undefined,2560 x 1440,2560 x 1440
S016,51,Mannelijk,Rechts,3,70,right,yes,950,rightarrow,1180,false,focus,yes,915030,Chrome,112.0,Windows,10,undefined,undefined,2560 x 1440,2560 x 1440
S016,51,Mannelijk,Rechts,3,71,right,no,900,rightarrow,1059,true,focus,yes,916848,Chrome,112.0,Windows,10,undefined,undefined,2560 x 1440,2560 x 1440
S016,51,Mannelijk,Rechts,3,72,left,no,900,leftarrow,1185,true,focus,yes,918806,Chrome,112.0,Windows,10,undefined,undefined,2560 x 1440,2560 x 1440
S016,51,Mannelijk,Rechts,3,73,left,no,900,undefined,null,false,focus,yes,920838,Chrome,112.0,Windows,10,undefined,undefined,2560 x 1440,2560 x 1440
S016,51,Mannelijk,Rechts,3,74,right,no,900,undefined,null,false,focus,yes,922863,Chrome,112.0,Windows,10,undefined,undefined,2560 x 1440,2560 x 1440
S016,51,Mannelijk,Rechts,3,75,right,no,900,rightarrow,1211,true,focus,yes,924849,Chrome,112.0,Windows,10,undefined,undefined,2560 x 1440,2560 x 1440
S016,51,Mannelijk,Rechts,3,76,right,yes,900,undefined,null,true,focus,yes,926876,Chrome,112.0,Windows,10,undefined,undefined,2560 x 1440,2560 x 1440
S016,51,Mannelijk,Rechts,3,77,right,no,950,rightarrow,1196,true,focus,yes,928838,Chrome,112.0,Windows,10,undefined,undefined,2560 x 1440,2560 x 1440
S016,51,Mannelijk,Rechts,3,78,left,yes,950,undefined,null,true,focus,yes,930879,Chrome,112.0,Windows,10,undefined,undefined,2560 x 1440,2560 x 1440
S016,51,Mannelijk,Rechts,3,79,left,no,1000,leftarrow,889,true,focus,yes,932543,Chrome,112.0,Windows,10,undefined,undefined,2560 x 1440,2560 x 1440
S016,51,Mannelijk,Rechts,3,80,left,no,1000,leftarrow,1178,true,focus,yes,934481,Chrome,112.0,Windows,10,undefined,undefined,2560 x 1440,2560 x 1440
S016,51,Mannelijk,Rechts,3,81,right,no,1000,undefined,null,false,focus,yes,936518,Chrome,112.0,Windows,10,undefined,undefined,2560 x 1440,2560 x 1440
S016,51,Mannelijk,Rechts,3,82,left,no,1000,undefined,null,false,focus,yes,938559,Chrome,112.0,Windows,10,undefined,undefined,2560 x 1440,2560 x 1440
S016,51,Mannelijk,Rechts,3,83,right,no,1000,undefined,null,false,focus,yes,940598,Chrome,112.0,Windows,10,undefined,undefined,2560 x 1440,2560 x 1440
S016,51,Mannelijk,Rechts,3,84,right,yes,1000,rightarrow,1156,false,focus,yes,942519,Chrome,112.0,Windows,10,undefined,undefined,2560 x 1440,2560 x 1440
S016,51,Mannelijk,Rechts,3,85,left,no,950,leftarrow,1065,true,focus,yes,944358,Chrome,112.0,Windows,10,undefined,undefined,2560 x 1440,2560 x 1440
S016,51,Mannelijk,Rechts,3,86,right,no,950,rightarrow,1137,true,focus,yes,946262,Chrome,112.0,Windows,10,undefined,undefined,2560 x 1440,2560 x 1440
S016,51,Mannelijk,Rechts,3,87,left,no,950,leftarrow,946,true,focus,yes,947974,Chrome,112.0,Windows,10,undefined,undefined,2560 x 1440,2560 x 1440
S016,51,Mannelijk,Rechts,3,88,left,yes,950,leftarrow,1228,false,focus,yes,949974,Chrome,112.0,Windows,10,undefined,undefined,2560 x 1440,2560 x 1440
S016,51,Mannelijk,Rechts,3,89,right,yes,900,rightarrow,876,false,focus,yes,951617,Chrome,112.0,Windows,10,undefined,undefined,2560 x 1440,2560 x 1440
S016,51,Mannelijk,Rechts,3,90,right,no,850,rightarrow,1121,true,focus,yes,953513,Chrome,112.0,Windows,10,undefined,undefined,2560 x 1440,2560 x 1440
S016,51,Mannelijk,Rechts,3,91,right,no,850,rightarrow,1057,true,focus,yes,955343,Chrome,112.0,Windows,10,undefined,undefined,2560 x 1440,2560 x 1440
S016,51,Mannelijk,Rechts,3,92,left,yes,850,leftarrow,1088,false,focus,yes,957207,Chrome,112.0,Windows,10,undefined,undefined,2560 x 1440,2560 x 1440
S016,51,Mannelijk,Rechts,3,93,right,no,800,rightarrow,1148,true,focus,yes,959129,Chrome,112.0,Windows,10,undefined,undefined,2560 x 1440,2560 x 1440
S016,51,Mannelijk,Rechts,3,94,left,no,800,leftarrow,1154,true,focus,yes,961056,Chrome,112.0,Windows,10,undefined,undefined,2560 x 1440,2560 x 1440
S016,51,Mannelijk,Rechts,3,95,left,no,800,undefined,null,false,focus,yes,963091,Chrome,112.0,Windows,10,undefined,undefined,2560 x 1440,2560 x 1440
S016,51,Mannelijk,Rechts,3,96,left,no,800,undefined,null,false,focus,yes,965125,Chrome,112.0,Windows,10,undefined,undefined,2560 x 1440,2560 x 1440
S016,51,Mannelijk,Rechts,3,97,right,yes,800,undefined,null,true,focus,yes,967164,Chrome,112.0,Windows,10,undefined,undefined,2560 x 1440,2560 x 1440
S016,51,Mannelijk,Rechts,3,98,left,yes,850,leftarrow,930,false,focus,yes,968858,Chrome,112.0,Windows,10,undefined,undefined,2560 x 1440,2560 x 1440
S016,51,Mannelijk,Rechts,3,99,right,no,800,rightarrow,1169,true,focus,yes,970799,Chrome,112.0,Windows,10,undefined,undefined,2560 x 1440,2560 x 1440
S016,51,Mannelijk,Rechts,3,100,left,no,800,leftarrow,1155,true,focus,yes,972727,Chrome,112.0,Windows,10,undefined,undefined,2560 x 1440,2560 x 1440
S016,51,Mannelijk,Rechts,3,101,left,no,800,leftarrow,989,true,focus,yes,974495,Chrome,112.0,Windows,10,undefined,undefined,2560 x 1440,2560 x 1440
S016,51,Mannelijk,Rechts,3,102,left,no,800,leftarrow,1241,true,focus,yes,976506,Chrome,112.0,Windows,10,undefined,undefined,2560 x 1440,2560 x 1440
S016,51,Mannelijk,Rechts,3,103,right,no,800,rightarrow,979,true,focus,yes,978255,Chrome,112.0,Windows,10,undefined,undefined,2560 x 1440,2560 x 1440
S016,51,Mannelijk,Rechts,3,104,right,no,800,rightarrow,1178,true,focus,yes,980200,Chrome,112.0,Windows,10,undefined,undefined,2560 x 1440,2560 x 1440
S016,51,Mannelijk,Rechts,3,105,left,no,800,leftarrow,1056,true,focus,yes,982025,Chrome,112.0,Windows,10,undefined,undefined,2560 x 1440,2560 x 1440
S016,51,Mannelijk,Rechts,3,106,left,yes,800,undefined,null,true,focus,yes,984047,Chrome,112.0,Windows,10,undefined,undefined,2560 x 1440,2560 x 1440
S016,51,Mannelijk,Rechts,3,107,right,yes,850,rightarrow,616,false,focus,yes,985439,Chrome,112.0,Windows,10,undefined,undefined,2560 x 1440,2560 x 1440
S016,51,Mannelijk,Rechts,3,108,right,no,800,rightarrow,1100,true,focus,yes,987311,Chrome,112.0,Windows,10,undefined,undefined,2560 x 1440,2560 x 1440
S016,51,Mannelijk,Rechts,3,109,right,no,800,rightarrow,1149,true,focus,yes,989233,Chrome,112.0,Windows,10,undefined,undefined,2560 x 1440,2560 x 1440
S016,51,Mannelijk,Rechts,3,110,right,no,800,undefined,null,false,focus,yes,991269,Chrome,112.0,Windows,10,undefined,undefined,2560 x 1440,2560 x 1440
S016,51,Mannelijk,Rechts,3,111,left,no,800,leftarrow,1132,true,focus,yes,993175,Chrome,112.0,Windows,10,undefined,undefined,2560 x 1440,2560 x 1440
S016,51,Mannelijk,Rechts,3,112,left,no,800,leftarrow,1208,true,focus,yes,995143,Chrome,112.0,Windows,10,undefined,undefined,2560 x 1440,2560 x 1440
S016,51,Mannelijk,Rechts,3,113,right,no,800,rightarrow,1194,true,focus,yes,997114,Chrome,112.0,Windows,10,undefined,undefined,2560 x 1440,2560 x 1440
S016,51,Mannelijk,Rechts,3,114,left,no,800,leftarrow,1061,true,focus,yes,998951,Chrome,112.0,Windows,10,undefined,undefined,2560 x 1440,2560 x 1440
S016,51,Mannelijk,Rechts,3,115,right,yes,800,rightarrow,1045,false,focus,yes,1000775,Chrome,112.0,Windows,10,undefined,undefined,2560 x 1440,2560 x 1440
S016,51,Mannelijk,Rechts,3,116,right,no,750,rightarrow,870,true,focus,yes,1002417,Chrome,112.0,Windows,10,undefined,undefined,2560 x 1440,2560 x 1440
S016,51,Mannelijk,Rechts,3,117,right,no,750,rightarrow,968,true,focus,yes,1004152,Chrome,112.0,Windows,10,undefined,undefined,2560 x 1440,2560 x 1440
S016,51,Mannelijk,Rechts,3,118,left,no,750,leftarrow,1136,true,focus,yes,1006063,Chrome,112.0,Windows,10,undefined,undefined,2560 x 1440,2560 x 1440
S016,51,Mannelijk,Rechts,3,119,left,no,750,leftarrow,1171,true,focus,yes,1008008,Chrome,112.0,Windows,10,undefined,undefined,2560 x 1440,2560 x 1440
S016,51,Mannelijk,Rechts,3,120,left,yes,750,undefined,null,true,focus,yes,1010044,Chrome,112.0,Windows,10,undefined,undefined,2560 x 1440,2560 x 1440
S016,51,Mannelijk,Rechts,3,121,left,yes,800,undefined,null,true,focus,yes,1012080,Chrome,112.0,Windows,10,undefined,undefined,2560 x 1440,2560 x 1440
S016,51,Mannelijk,Rechts,3,122,left,no,850,leftarrow,1137,true,focus,yes,1013980,Chrome,112.0,Windows,10,undefined,undefined,2560 x 1440,2560 x 1440
S016,51,Mannelijk,Rechts,3,123,left,no,850,leftarrow,1156,true,focus,yes,1015905,Chrome,112.0,Windows,10,undefined,undefined,2560 x 1440,2560 x 1440
S016,51,Mannelijk,Rechts,3,124,left,no,850,leftarrow,1265,true,focus,yes,1017944,Chrome,112.0,Windows,10,undefined,undefined,2560 x 1440,2560 x 1440
S016,51,Mannelijk,Rechts,3,125,right,no,850,undefined,null,false,focus,yes,1019983,Chrome,112.0,Windows,10,undefined,undefined,2560 x 1440,2560 x 1440
S016,51,Mannelijk,Rechts,3,126,right,no,850,rightarrow,1135,true,focus,yes,1021896,Chrome,112.0,Windows,10,undefined,undefined,2560 x 1440,2560 x 1440
S016,51,Mannelijk,Rechts,3,127,right,yes,850,rightarrow,980,false,focus,yes,1023649,Chrome,112.0,Windows,10,undefined,undefined,2560 x 1440,2560 x 1440
S016,51,Mannelijk,Rechts,3,128,right,no,800,rightarrow,1058,true,focus,yes,1025482,Chrome,112.0,Windows,10,undefined,undefined,2560 x 1440,2560 x 1440
S016,51,Mannelijk,Rechts,4,1,left,yes,800,leftarrow,972,false,focus,yes,1045642,Chrome,112.0,Windows,10,undefined,undefined,2560 x 1440,2560 x 1440
S016,51,Mannelijk,Rechts,4,2,right,no,750,rightarrow,991,true,focus,yes,1047401,Chrome,112.0,Windows,10,undefined,undefined,2560 x 1440,2560 x 1440
S016,51,Mannelijk,Rechts,4,3,right,no,750,rightarrow,1020,true,focus,yes,1049193,Chrome,112.0,Windows,10,undefined,undefined,2560 x 1440,2560 x 1440
S016,51,Mannelijk,Rechts,4,4,right,yes,750,undefined,null,true,focus,yes,1051236,Chrome,112.0,Windows,10,undefined,undefined,2560 x 1440,2560 x 1440
S016,51,Mannelijk,Rechts,4,5,left,no,800,leftarrow,1023,true,focus,yes,1053034,Chrome,112.0,Windows,10,undefined,undefined,2560 x 1440,2560 x 1440
S016,51,Mannelijk,Rechts,4,6,left,no,800,leftarrow,1126,true,focus,yes,1054937,Chrome,112.0,Windows,10,undefined,undefined,2560 x 1440,2560 x 1440
S016,51,Mannelijk,Rechts,4,7,left,no,800,leftarrow,1221,true,focus,yes,1056928,Chrome,112.0,Windows,10,undefined,undefined,2560 x 1440,2560 x 1440
S016,51,Mannelijk,Rechts,4,8,right,no,800,undefined,null,false,focus,yes,1058957,Chrome,112.0,Windows,10,undefined,undefined,2560 x 1440,2560 x 1440
S016,51,Mannelijk,Rechts,4,9,right,no,800,rightarrow,1247,true,focus,yes,1060985,Chrome,112.0,Windows,10,undefined,undefined,2560 x 1440,2560 x 1440
S016,51,Mannelijk,Rechts,4,10,right,no,800,rightarrow,1157,true,focus,yes,1062914,Chrome,112.0,Windows,10,undefined,undefined,2560 x 1440,2560 x 1440
S016,51,Mannelijk,Rechts,4,11,left,no,800,leftarrow,1153,true,focus,yes,1064840,Chrome,112.0,Windows,10,undefined,undefined,2560 x 1440,2560 x 1440
S016,51,Mannelijk,Rechts,4,12,left,yes,800,undefined,null,true,focus,yes,1066869,Chrome,112.0,Windows,10,undefined,undefined,2560 x 1440,2560 x 1440
S016,51,Mannelijk,Rechts,4,13,right,yes,850,undefined,null,true,focus,yes,1068901,Chrome,112.0,Windows,10,undefined,undefined,2560 x 1440,2560 x 1440
S016,51,Mannelijk,Rechts,4,14,left,no,900,leftarrow,1097,true,focus,yes,1070769,Chrome,112.0,Windows,10,undefined,undefined,2560 x 1440,2560 x 1440
S016,51,Mannelijk,Rechts,4,15,left,no,900,leftarrow,1182,true,focus,yes,1072722,Chrome,112.0,Windows,10,undefined,undefined,2560 x 1440,2560 x 1440
S016,51,Mannelijk,Rechts,4,16,right,no,900,rightarrow,1193,true,focus,yes,1074687,Chrome,112.0,Windows,10,undefined,undefined,2560 x 1440,2560 x 1440
S016,51,Mannelijk,Rechts,4,17,right,yes,900,rightarrow,1124,false,focus,yes,1076581,Chrome,112.0,Windows,10,undefined,undefined,2560 x 1440,2560 x 1440
S016,51,Mannelijk,Rechts,4,18,right,no,850,rightarrow,1127,true,focus,yes,1078487,Chrome,112.0,Windows,10,undefined,undefined,2560 x 1440,2560 x 1440
S016,51,Mannelijk,Rechts,4,19,left,no,850,undefined,null,false,focus,yes,1080514,Chrome,112.0,Windows,10,undefined,undefined,2560 x 1440,2560 x 1440
S016,51,Mannelijk,Rechts,4,20,left,no,850,undefined,null,false,focus,yes,1082534,Chrome,112.0,Windows,10,undefined,undefined,2560 x 1440,2560 x 1440
S016,51,Mannelijk,Rechts,4,21,right,no,850,rightarrow,1154,true,focus,yes,1084461,Chrome,112.0,Windows,10,undefined,undefined,2560 x 1440,2560 x 1440
S016,51,Mannelijk,Rechts,4,22,left,no,850,leftarrow,984,true,focus,yes,1086214,Chrome,112.0,Windows,10,undefined,undefined,2560 x 1440,2560 x 1440
S016,51,Mannelijk,Rechts,4,23,right,no,850,rightarrow,1049,true,focus,yes,1088029,Chrome,112.0,Windows,10,undefined,undefined,2560 x 1440,2560 x 1440
S016,51,Mannelijk,Rechts,4,24,left,yes,850,leftarrow,1038,false,focus,yes,1089837,Chrome,112.0,Windows,10,undefined,undefined,2560 x 1440,2560 x 1440
S016,51,Mannelijk,Rechts,4,25,right,no,800,rightarrow,1164,true,focus,yes,1091776,Chrome,112.0,Windows,10,undefined,undefined,2560 x 1440,2560 x 1440
S016,51,Mannelijk,Rechts,4,26,left,yes,800,leftarrow,956,false,focus,yes,1093510,Chrome,112.0,Windows,10,undefined,undefined,2560 x 1440,2560 x 1440
S016,51,Mannelijk,Rechts,4,27,right,no,750,rightarrow,1198,true,focus,yes,1095477,Chrome,112.0,Windows,10,undefined,undefined,2560 x 1440,2560 x 1440
S016,51,Mannelijk,Rechts,4,28,left,no,750,undefined,null,false,focus,yes,1097507,Chrome,112.0,Windows,10,undefined,undefined,2560 x 1440,2560 x 1440
S016,51,Mannelijk,Rechts,4,29,right,yes,750,rightarrow,980,false,focus,yes,1099253,Chrome,112.0,Windows,10,undefined,undefined,2560 x 1440,2560 x 1440
S016,51,Mannelijk,Rechts,4,30,left,no,700,leftarrow,1070,true,focus,yes,1101094,Chrome,112.0,Windows,10,undefined,undefined,2560 x 1440,2560 x 1440
S016,51,Mannelijk,Rechts,4,31,left,no,700,undefined,null,false,focus,yes,1103131,Chrome,112.0,Windows,10,undefined,undefined,2560 x 1440,2560 x 1440
S016,51,Mannelijk,Rechts,4,32,right,no,700,rightarrow,1241,true,focus,yes,1105150,Chrome,112.0,Windows,10,undefined,undefined,2560 x 1440,2560 x 1440
S016,51,Mannelijk,Rechts,4,33,left,no,700,leftarrow,1080,true,focus,yes,1107006,Chrome,112.0,Windows,10,undefined,undefined,2560 x 1440,2560 x 1440
S016,51,Mannelijk,Rechts,4,34,right,no,700,rightarrow,1015,true,focus,yes,1108781,Chrome,112.0,Windows,10,undefined,undefined,2560 x 1440,2560 x 1440
S016,51,Mannelijk,Rechts,4,35,left,no,700,leftarrow,821,true,focus,yes,1110374,Chrome,112.0,Windows,10,undefined,undefined,2560 x 1440,2560 x 1440
S016,51,Mannelijk,Rechts,4,36,right,no,700,rightarrow,935,true,focus,yes,1112085,Chrome,112.0,Windows,10,undefined,undefined,2560 x 1440,2560 x 1440
S016,51,Mannelijk,Rechts,4,37,right,no,700,rightarrow,1194,true,focus,yes,1114052,Chrome,112.0,Windows,10,undefined,undefined,2560 x 1440,2560 x 1440
S016,51,Mannelijk,Rechts,4,38,left,yes,700,undefined,null,true,focus,yes,1116082,Chrome,112.0,Windows,10,undefined,undefined,2560 x 1440,2560 x 1440
S016,51,Mannelijk,Rechts,4,39,left,no,750,leftarrow,820,true,focus,yes,1117678,Chrome,112.0,Windows,10,undefined,undefined,2560 x 1440,2560 x 1440
S016,51,Mannelijk,Rechts,4,40,right,yes,750,rightarrow,783,false,focus,yes,1119237,Chrome,112.0,Windows,10,undefined,undefined,2560 x 1440,2560 x 1440
S016,51,Mannelijk,Rechts,4,41,left,no,700,leftarrow,915,true,focus,yes,1120933,Chrome,112.0,Windows,10,undefined,undefined,2560 x 1440,2560 x 1440
S016,51,Mannelijk,Rechts,4,42,right,yes,700,undefined,null,true,focus,yes,1122968,Chrome,112.0,Windows,10,undefined,undefined,2560 x 1440,2560 x 1440
S016,51,Mannelijk,Rechts,4,43,right,no,750,rightarrow,998,true,focus,yes,1124743,Chrome,112.0,Windows,10,undefined,undefined,2560 x 1440,2560 x 1440
S016,51,Mannelijk,Rechts,4,44,right,no,750,rightarrow,1005,true,focus,yes,1126517,Chrome,112.0,Windows,10,undefined,undefined,2560 x 1440,2560 x 1440
S016,51,Mannelijk,Rechts,4,45,left,no,750,leftarrow,991,true,focus,yes,1128278,Chrome,112.0,Windows,10,undefined,undefined,2560 x 1440,2560 x 1440
S016,51,Mannelijk,Rechts,4,46,left,yes,750,leftarrow,906,false,focus,yes,1129959,Chrome,112.0,Windows,10,undefined,undefined,2560 x 1440,2560 x 1440
S016,51,Mannelijk,Rechts,4,47,right,no,700,rightarrow,1006,true,focus,yes,1131734,Chrome,112.0,Windows,10,undefined,undefined,2560 x 1440,2560 x 1440
S016,51,Mannelijk,Rechts,4,48,left,no,700,undefined,null,false,focus,yes,1133761,Chrome,112.0,Windows,10,undefined,undefined,2560 x 1440,2560 x 1440
S016,51,Mannelijk,Rechts,4,49,right,yes,700,undefined,null,true,focus,yes,1135797,Chrome,112.0,Windows,10,undefined,undefined,2560 x 1440,2560 x 1440
S016,51,Mannelijk,Rechts,4,50,right,no,750,rightarrow,1097,true,focus,yes,1137678,Chrome,112.0,Windows,10,undefined,undefined,2560 x 1440,2560 x 1440
S016,51,Mannelijk,Rechts,4,51,left,no,750,undefined,null,false,focus,yes,1139712,Chrome,112.0,Windows,10,undefined,undefined,2560 x 1440,2560 x 1440
S016,51,Mannelijk,Rechts,4,52,left,yes,750,undefined,null,true,focus,yes,1141745,Chrome,112.0,Windows,10,undefined,undefined,2560 x 1440,2560 x 1440
S016,51,Mannelijk,Rechts,4,53,left,no,800,leftarrow,1122,true,focus,yes,1143639,Chrome,112.0,Windows,10,undefined,undefined,2560 x 1440,2560 x 1440
S016,51,Mannelijk,Rechts,4,54,right,no,800,undefined,null,false,focus,yes,1145666,Chrome,112.0,Windows,10,undefined,undefined,2560 x 1440,2560 x 1440
S016,51,Mannelijk,Rechts,4,55,right,no,800,rightarrow,1263,true,focus,yes,1147709,Chrome,112.0,Windows,10,undefined,undefined,2560 x 1440,2560 x 1440
S016,51,Mannelijk,Rechts,4,56,left,no,800,leftarrow,1210,true,focus,yes,1149693,Chrome,112.0,Windows,10,undefined,undefined,2560 x 1440,2560 x 1440
S016,51,Mannelijk,Rechts,4,57,left,no,800,undefined,null,false,focus,yes,1151719,Chrome,112.0,Windows,10,undefined,undefined,2560 x 1440,2560 x 1440
S016,51,Mannelijk,Rechts,4,58,right,no,800,rightarrow,1186,true,focus,yes,1153677,Chrome,112.0,Windows,10,undefined,undefined,2560 x 1440,2560 x 1440
S016,51,Mannelijk,Rechts,4,59,right,yes,800,undefined,null,true,focus,yes,1155708,Chrome,112.0,Windows,10,undefined,undefined,2560 x 1440,2560 x 1440
S016,51,Mannelijk,Rechts,4,60,left,no,850,leftarrow,1048,true,focus,yes,1157533,Chrome,112.0,Windows,10,undefined,undefined,2560 x 1440,2560 x 1440
S016,51,Mannelijk,Rechts,4,61,right,no,850,undefined,null,false,focus,yes,1159557,Chrome,112.0,Windows,10,undefined,undefined,2560 x 1440,2560 x 1440
S016,51,Mannelijk,Rechts,4,62,left,yes,850,undefined,null,true,focus,yes,1161623,Chrome,112.0,Windows,10,undefined,undefined,2560 x 1440,2560 x 1440
S016,51,Mannelijk,Rechts,4,63,right,no,900,undefined,null,false,focus,yes,1163652,Chrome,112.0,Windows,10,undefined,undefined,2560 x 1440,2560 x 1440
S016,51,Mannelijk,Rechts,4,64,left,no,900,leftarrow,1073,true,focus,yes,1165501,Chrome,112.0,Windows,10,undefined,undefined,2560 x 1440,2560 x 1440
S016,51,Mannelijk,Rechts,4,65,left,no,900,leftarrow,1235,true,focus,yes,1167509,Chrome,112.0,Windows,10,undefined,undefined,2560 x 1440,2560 x 1440
S016,51,Mannelijk,Rechts,4,66,right,no,900,rightarrow,1262,true,focus,yes,1169535,Chrome,112.0,Windows,10,undefined,undefined,2560 x 1440,2560 x 1440
S016,51,Mannelijk,Rechts,4,67,left,no,900,leftarrow,1209,true,focus,yes,1171517,Chrome,112.0,Windows,10,undefined,undefined,2560 x 1440,2560 x 1440
S016,51,Mannelijk,Rechts,4,68,left,yes,900,undefined,null,true,focus,yes,1173547,Chrome,112.0,Windows,10,undefined,undefined,2560 x 1440,2560 x 1440
S016,51,Mannelijk,Rechts,4,69,left,no,950,leftarrow,1246,true,focus,yes,1175565,Chrome,112.0,Windows,10,undefined,undefined,2560 x 1440,2560 x 1440
S016,51,Mannelijk,Rechts,4,70,right,no,950,rightarrow,1100,true,focus,yes,1177436,Chrome,112.0,Windows,10,undefined,undefined,2560 x 1440,2560 x 1440
S016,51,Mannelijk,Rechts,4,71,right,no,950,undefined,null,false,focus,yes,1179467,Chrome,112.0,Windows,10,undefined,undefined,2560 x 1440,2560 x 1440
S016,51,Mannelijk,Rechts,4,72,right,yes,950,rightarrow,1109,false,focus,yes,1181349,Chrome,112.0,Windows,10,undefined,undefined,2560 x 1440,2560 x 1440
S016,51,Mannelijk,Rechts,4,73,left,no,900,undefined,null,false,focus,yes,1183366,Chrome,112.0,Windows,10,undefined,undefined,2560 x 1440,2560 x 1440
S016,51,Mannelijk,Rechts,4,74,left,no,900,undefined,null,false,focus,yes,1185389,Chrome,112.0,Windows,10,undefined,undefined,2560 x 1440,2560 x 1440
S016,51,Mannelijk,Rechts,4,75,left,no,900,leftarrow,1234,true,focus,yes,1187389,Chrome,112.0,Windows,10,undefined,undefined,2560 x 1440,2560 x 1440
S016,51,Mannelijk,Rechts,4,76,right,no,900,rightarrow,1252,true,focus,yes,1189414,Chrome,112.0,Windows,10,undefined,undefined,2560 x 1440,2560 x 1440
S016,51,Mannelijk,Rechts,4,77,right,no,900,rightarrow,1211,true,focus,yes,1191397,Chrome,112.0,Windows,10,undefined,undefined,2560 x 1440,2560 x 1440
S016,51,Mannelijk,Rechts,4,78,left,yes,900,leftarrow,1116,false,focus,yes,1193285,Chrome,112.0,Windows,10,undefined,undefined,2560 x 1440,2560 x 1440
S016,51,Mannelijk,Rechts,4,79,right,no,850,rightarrow,1058,true,focus,yes,1195119,Chrome,112.0,Windows,10,undefined,undefined,2560 x 1440,2560 x 1440
S016,51,Mannelijk,Rechts,4,80,right,yes,850,undefined,null,true,focus,yes,1197137,Chrome,112.0,Windows,10,undefined,undefined,2560 x 1440,2560 x 1440
S016,51,Mannelijk,Rechts,4,81,right,yes,900,rightarrow,1003,false,focus,yes,1198910,Chrome,112.0,Windows,10,undefined,undefined,2560 x 1440,2560 x 1440
S016,51,Mannelijk,Rechts,4,82,right,no,850,undefined,null,false,focus,yes,1200944,Chrome,112.0,Windows,10,undefined,undefined,2560 x 1440,2560 x 1440
S016,51,Mannelijk,Rechts,4,83,left,yes,850,undefined,null,true,focus,yes,1202979,Chrome,112.0,Windows,10,undefined,undefined,2560 x 1440,2560 x 1440
S016,51,Mannelijk,Rechts,4,84,left,no,900,leftarrow,1016,true,focus,yes,1204773,Chrome,112.0,Windows,10,undefined,undefined,2560 x 1440,2560 x 1440
S016,51,Mannelijk,Rechts,4,85,left,no,900,leftarrow,1211,true,focus,yes,1206761,Chrome,112.0,Windows,10,undefined,undefined,2560 x 1440,2560 x 1440
S016,51,Mannelijk,Rechts,4,86,left,no,900,leftarrow,1217,true,focus,yes,1208757,Chrome,112.0,Windows,10,undefined,undefined,2560 x 1440,2560 x 1440
S016,51,Mannelijk,Rechts,4,87,right,no,900,undefined,null,false,focus,yes,1210794,Chrome,112.0,Windows,10,undefined,undefined,2560 x 1440,2560 x 1440
S016,51,Mannelijk,Rechts,4,88,right,no,900,undefined,null,false,focus,yes,1212823,Chrome,112.0,Windows,10,undefined,undefined,2560 x 1440,2560 x 1440
S016,51,Mannelijk,Rechts,4,89,right,no,900,rightarrow,1237,true,focus,yes,1214837,Chrome,112.0,Windows,10,undefined,undefined,2560 x 1440,2560 x 1440
S016,51,Mannelijk,Rechts,4,90,left,yes,900,undefined,null,true,focus,yes,1216865,Chrome,112.0,Windows,10,undefined,undefined,2560 x 1440,2560 x 1440
S016,51,Mannelijk,Rechts,4,91,right,no,950,rightarrow,1041,true,focus,yes,1218677,Chrome,112.0,Windows,10,undefined,undefined,2560 x 1440,2560 x 1440
S016,51,Mannelijk,Rechts,4,92,right,yes,950,rightarrow,1212,false,focus,yes,1220662,Chrome,112.0,Windows,10,undefined,undefined,2560 x 1440,2560 x 1440
S016,51,Mannelijk,Rechts,4,93,left,no,900,leftarrow,1210,true,focus,yes,1222647,Chrome,112.0,Windows,10,undefined,undefined,2560 x 1440,2560 x 1440
S016,51,Mannelijk,Rechts,4,94,left,no,900,undefined,null,false,focus,yes,1224687,Chrome,112.0,Windows,10,undefined,undefined,2560 x 1440,2560 x 1440
S016,51,Mannelijk,Rechts,4,95,left,no,900,leftarrow,1191,true,focus,yes,1226653,Chrome,112.0,Windows,10,undefined,undefined,2560 x 1440,2560 x 1440
S016,51,Mannelijk,Rechts,4,96,right,no,900,rightarrow,1183,true,focus,yes,1228616,Chrome,112.0,Windows,10,undefined,undefined,2560 x 1440,2560 x 1440
S016,51,Mannelijk,Rechts,4,97,right,no,900,undefined,null,false,focus,yes,1230651,Chrome,112.0,Windows,10,undefined,undefined,2560 x 1440,2560 x 1440
S016,51,Mannelijk,Rechts,4,98,left,no,900,leftarrow,1105,true,focus,yes,1232533,Chrome,112.0,Windows,10,undefined,undefined,2560 x 1440,2560 x 1440
S016,51,Mannelijk,Rechts,4,99,left,no,900,undefined,null,false,focus,yes,1234562,Chrome,112.0,Windows,10,undefined,undefined,2560 x 1440,2560 x 1440
S016,51,Mannelijk,Rechts,4,100,left,yes,900,leftarrow,1181,false,focus,yes,1236517,Chrome,112.0,Windows,10,undefined,undefined,2560 x 1440,2560 x 1440
S016,51,Mannelijk,Rechts,4,101,right,no,850,rightarrow,1206,true,focus,yes,1238493,Chrome,112.0,Windows,10,undefined,undefined,2560 x 1440,2560 x 1440
S016,51,Mannelijk,Rechts,4,102,right,yes,850,undefined,null,true,focus,yes,1240522,Chrome,112.0,Windows,10,undefined,undefined,2560 x 1440,2560 x 1440
S016,51,Mannelijk,Rechts,4,103,right,no,900,rightarrow,1211,true,focus,yes,1242509,Chrome,112.0,Windows,10,undefined,undefined,2560 x 1440,2560 x 1440
S016,51,Mannelijk,Rechts,4,104,left,no,900,leftarrow,1143,true,focus,yes,1244421,Chrome,112.0,Windows,10,undefined,undefined,2560 x 1440,2560 x 1440
S016,51,Mannelijk,Rechts,4,105,right,no,900,rightarrow,1251,true,focus,yes,1246448,Chrome,112.0,Windows,10,undefined,undefined,2560 x 1440,2560 x 1440
S016,51,Mannelijk,Rechts,4,106,left,yes,900,leftarrow,1189,false,focus,yes,1248413,Chrome,112.0,Windows,10,undefined,undefined,2560 x 1440,2560 x 1440
S016,51,Mannelijk,Rechts,4,107,left,no,850,undefined,null,false,focus,yes,1250450,Chrome,112.0,Windows,10,undefined,undefined,2560 x 1440,2560 x 1440
S016,51,Mannelijk,Rechts,4,108,right,no,850,undefined,null,false,focus,yes,1252482,Chrome,112.0,Windows,10,undefined,undefined,2560 x 1440,2560 x 1440
S016,51,Mannelijk,Rechts,4,109,left,no,850,leftarrow,1100,true,focus,yes,1254357,Chrome,112.0,Windows,10,undefined,undefined,2560 x 1440,2560 x 1440
S016,51,Mannelijk,Rechts,4,110,right,no,850,undefined,null,false,focus,yes,1256390,Chrome,112.0,Windows,10,undefined,undefined,2560 x 1440,2560 x 1440
S016,51,Mannelijk,Rechts,4,111,left,no,850,undefined,null,false,focus,yes,1258412,Chrome,112.0,Windows,10,undefined,undefined,2560 x 1440,2560 x 1440
S016,51,Mannelijk,Rechts,4,112,right,yes,850,rightarrow,1165,false,focus,yes,1260349,Chrome,112.0,Windows,10,undefined,undefined,2560 x 1440,2560 x 1440
S016,51,Mannelijk,Rechts,4,113,right,no,800,rightarrow,997,true,focus,yes,1262125,Chrome,112.0,Windows,10,undefined,undefined,2560 x 1440,2560 x 1440
S016,51,Mannelijk,Rechts,4,114,right,no,800,rightarrow,1042,true,focus,yes,1263948,Chrome,112.0,Windows,10,undefined,undefined,2560 x 1440,2560 x 1440
S016,51,Mannelijk,Rechts,4,115,right,yes,800,undefined,null,true,focus,yes,1265988,Chrome,112.0,Windows,10,undefined,undefined,2560 x 1440,2560 x 1440
S016,51,Mannelijk,Rechts,4,116,right,no,850,rightarrow,968,true,focus,yes,1267725,Chrome,112.0,Windows,10,undefined,undefined,2560 x 1440,2560 x 1440
S016,51,Mannelijk,Rechts,4,117,left,yes,850,leftarrow,957,false,focus,yes,1269455,Chrome,112.0,Windows,10,undefined,undefined,2560 x 1440,2560 x 1440
S016,51,Mannelijk,Rechts,4,118,left,no,800,leftarrow,1079,true,focus,yes,1271317,Chrome,112.0,Windows,10,undefined,undefined,2560 x 1440,2560 x 1440
S016,51,Mannelijk,Rechts,4,119,left,no,800,leftarrow,1155,true,focus,yes,1273246,Chrome,112.0,Windows,10,undefined,undefined,2560 x 1440,2560 x 1440
S016,51,Mannelijk,Rechts,4,120,left,no,800,leftarrow,1135,true,focus,yes,1275150,Chrome,112.0,Windows,10,undefined,undefined,2560 x 1440,2560 x 1440
S016,51,Mannelijk,Rechts,4,121,left,yes,800,leftarrow,985,false,focus,yes,1276909,Chrome,112.0,Windows,10,undefined,undefined,2560 x 1440,2560 x 1440
S016,51,Mannelijk,Rechts,4,122,right,yes,750,undefined,null,true,focus,yes,1278934,Chrome,112.0,Windows,10,undefined,undefined,2560 x 1440,2560 x 1440
S016,51,Mannelijk,Rechts,4,123,right,no,800,rightarrow,984,true,focus,yes,1280679,Chrome,112.0,Windows,10,undefined,undefined,2560 x 1440,2560 x 1440
S016,51,Mannelijk,Rechts,4,124,right,no,800,rightarrow,1215,true,focus,yes,1282669,Chrome,112.0,Windows,10,undefined,undefined,2560 x 1440,2560 x 1440
S016,51,Mannelijk,Rechts,4,125,left,no,800,leftarrow,1156,true,focus,yes,1284597,Chrome,112.0,Windows,10,undefined,undefined,2560 x 1440,2560 x 1440
S016,51,Mannelijk,Rechts,4,126,left,no,800,leftarrow,1247,true,focus,yes,1286612,Chrome,112.0,Windows,10,undefined,undefined,2560 x 1440,2560 x 1440
S016,51,Mannelijk,Rechts,4,127,right,no,800,rightarrow,1212,true,focus,yes,1288592,Chrome,112.0,Windows,10,undefined,undefined,2560 x 1440,2560 x 1440
S016,51,Mannelijk,Rechts,4,128,left,no,800,undefined,null,false,focus,yes,1290624,Chrome,112.0,Windows,10,undefined,undefined,2560 x 1440,2560 x 1440
S016,51,Mannelijk,Rechts,5,1,left,no,800,leftarrow,1104,true,focus,yes,1310933,Chrome,112.0,Windows,10,undefined,undefined,2560 x 1440,2560 x 1440
S016,51,Mannelijk,Rechts,5,2,left,no,800,leftarrow,901,true,focus,yes,1312605,Chrome,112.0,Windows,10,undefined,undefined,2560 x 1440,2560 x 1440
S016,51,Mannelijk,Rechts,5,3,left,no,800,leftarrow,823,true,focus,yes,1314208,Chrome,112.0,Windows,10,undefined,undefined,2560 x 1440,2560 x 1440
S016,51,Mannelijk,Rechts,5,4,right,no,800,rightarrow,967,true,focus,yes,1315949,Chrome,112.0,Windows,10,undefined,undefined,2560 x 1440,2560 x 1440
S016,51,Mannelijk,Rechts,5,5,right,no,800,rightarrow,819,true,focus,yes,1317544,Chrome,112.0,Windows,10,undefined,undefined,2560 x 1440,2560 x 1440
S016,51,Mannelijk,Rechts,5,6,right,no,800,rightarrow,760,true,focus,yes,1319077,Chrome,112.0,Windows,10,undefined,undefined,2560 x 1440,2560 x 1440
S016,51,Mannelijk,Rechts,5,7,right,yes,800,rightarrow,924,false,focus,yes,1320774,Chrome,112.0,Windows,10,undefined,undefined,2560 x 1440,2560 x 1440
S016,51,Mannelijk,Rechts,5,8,left,yes,750,undefined,null,true,focus,yes,1322813,Chrome,112.0,Windows,10,undefined,undefined,2560 x 1440,2560 x 1440
S016,51,Mannelijk,Rechts,5,9,right,no,800,rightarrow,1088,true,focus,yes,1324680,Chrome,112.0,Windows,10,undefined,undefined,2560 x 1440,2560 x 1440
S016,51,Mannelijk,Rechts,5,10,right,no,800,undefined,null,false,focus,yes,1326707,Chrome,112.0,Windows,10,undefined,undefined,2560 x 1440,2560 x 1440
S016,51,Mannelijk,Rechts,5,11,left,no,800,leftarrow,1068,true,focus,yes,1328549,Chrome,112.0,Windows,10,undefined,undefined,2560 x 1440,2560 x 1440
S016,51,Mannelijk,Rechts,5,12,left,no,800,leftarrow,1183,true,focus,yes,1330509,Chrome,112.0,Windows,10,undefined,undefined,2560 x 1440,2560 x 1440
S016,51,Mannelijk,Rechts,5,13,left,yes,800,undefined,null,true,focus,yes,1332522,Chrome,112.0,Windows,10,undefined,undefined,2560 x 1440,2560 x 1440
S016,51,Mannelijk,Rechts,5,14,left,no,850,leftarrow,1046,true,focus,yes,1334341,Chrome,112.0,Windows,10,undefined,undefined,2560 x 1440,2560 x 1440
S016,51,Mannelijk,Rechts,5,15,right,no,850,rightarrow,1241,true,focus,yes,1336349,Chrome,112.0,Windows,10,undefined,undefined,2560 x 1440,2560 x 1440
S016,51,Mannelijk,Rechts,5,16,right,yes,850,undefined,null,true,focus,yes,1338374,Chrome,112.0,Windows,10,undefined,undefined,2560 x 1440,2560 x 1440
S016,51,Mannelijk,Rechts,5,17,right,yes,900,rightarrow,1011,false,focus,yes,1340160,Chrome,112.0,Windows,10,undefined,undefined,2560 x 1440,2560 x 1440
S016,51,Mannelijk,Rechts,5,18,right,no,850,rightarrow,1046,true,focus,yes,1341981,Chrome,112.0,Windows,10,undefined,undefined,2560 x 1440,2560 x 1440
S016,51,Mannelijk,Rechts,5,19,left,no,850,leftarrow,1053,true,focus,yes,1343806,Chrome,112.0,Windows,10,undefined,undefined,2560 x 1440,2560 x 1440
S016,51,Mannelijk,Rechts,5,20,left,no,850,leftarrow,1018,true,focus,yes,1345597,Chrome,112.0,Windows,10,undefined,undefined,2560 x 1440,2560 x 1440
S016,51,Mannelijk,Rechts,5,21,left,yes,850,leftarrow,1099,false,focus,yes,1347469,Chrome,112.0,Windows,10,undefined,undefined,2560 x 1440,2560 x 1440
S016,51,Mannelijk,Rechts,5,22,right,no,800,rightarrow,1079,true,focus,yes,1349319,Chrome,112.0,Windows,10,undefined,undefined,2560 x 1440,2560 x 1440
S016,51,Mannelijk,Rechts,5,23,right,no,800,rightarrow,1149,true,focus,yes,1351237,Chrome,112.0,Windows,10,undefined,undefined,2560 x 1440,2560 x 1440
S016,51,Mannelijk,Rechts,5,24,left,no,800,leftarrow,1251,true,focus,yes,1353255,Chrome,112.0,Windows,10,undefined,undefined,2560 x 1440,2560 x 1440
S016,51,Mannelijk,Rechts,5,25,right,yes,800,rightarrow,1103,false,focus,yes,1355128,Chrome,112.0,Windows,10,undefined,undefined,2560 x 1440,2560 x 1440
S016,51,Mannelijk,Rechts,5,26,right,no,750,rightarrow,1085,true,focus,yes,1356989,Chrome,112.0,Windows,10,undefined,undefined,2560 x 1440,2560 x 1440
S016,51,Mannelijk,Rechts,5,27,right,no,750,rightarrow,1060,true,focus,yes,1358821,Chrome,112.0,Windows,10,undefined,undefined,2560 x 1440,2560 x 1440
S016,51,Mannelijk,Rechts,5,28,left,no,750,leftarrow,1209,true,focus,yes,1360791,Chrome,112.0,Windows,10,undefined,undefined,2560 x 1440,2560 x 1440
S016,51,Mannelijk,Rechts,5,29,left,no,750,undefined,null,false,focus,yes,1362823,Chrome,112.0,Windows,10,undefined,undefined,2560 x 1440,2560 x 1440
S016,51,Mannelijk,Rechts,5,30,right,no,750,rightarrow,1249,true,focus,yes,1364837,Chrome,112.0,Windows,10,undefined,undefined,2560 x 1440,2560 x 1440
S016,51,Mannelijk,Rechts,5,31,left,no,750,leftarrow,1248,true,focus,yes,1366855,Chrome,112.0,Windows,10,undefined,undefined,2560 x 1440,2560 x 1440
S016,51,Mannelijk,Rechts,5,32,left,yes,750,undefined,null,true,focus,yes,1368889,Chrome,112.0,Windows,10,undefined,undefined,2560 x 1440,2560 x 1440
S016,51,Mannelijk,Rechts,5,33,left,no,800,leftarrow,1096,true,focus,yes,1370757,Chrome,112.0,Windows,10,undefined,undefined,2560 x 1440,2560 x 1440
S016,51,Mannelijk,Rechts,5,34,right,no,800,rightarrow,1012,true,focus,yes,1372551,Chrome,112.0,Windows,10,undefined,undefined,2560 x 1440,2560 x 1440
S016,51,Mannelijk,Rechts,5,35,right,no,800,rightarrow,1088,true,focus,yes,1374413,Chrome,112.0,Windows,10,undefined,undefined,2560 x 1440,2560 x 1440
S016,51,Mannelijk,Rechts,5,36,left,yes,800,leftarrow,1113,false,focus,yes,1376300,Chrome,112.0,Windows,10,undefined,undefined,2560 x 1440,2560 x 1440
S016,51,Mannelijk,Rechts,5,37,left,no,750,leftarrow,1101,true,focus,yes,1378182,Chrome,112.0,Windows,10,undefined,undefined,2560 x 1440,2560 x 1440
S016,51,Mannelijk,Rechts,5,38,right,no,750,rightarrow,1128,true,focus,yes,1380078,Chrome,112.0,Windows,10,undefined,undefined,2560 x 1440,2560 x 1440
S016,51,Mannelijk,Rechts,5,39,left,no,750,leftarrow,1151,true,focus,yes,1382005,Chrome,112.0,Windows,10,undefined,undefined,2560 x 1440,2560 x 1440
S016,51,Mannelijk,Rechts,5,40,right,yes,750,undefined,null,true,focus,yes,1384032,Chrome,112.0,Windows,10,undefined,undefined,2560 x 1440,2560 x 1440
S016,51,Mannelijk,Rechts,5,41,left,yes,800,undefined,null,true,focus,yes,1386058,Chrome,112.0,Windows,10,undefined,undefined,2560 x 1440,2560 x 1440
S016,51,Mannelijk,Rechts,5,42,left,no,850,leftarrow,1120,true,focus,yes,1387957,Chrome,112.0,Windows,10,undefined,undefined,2560 x 1440,2560 x 1440
S016,51,Mannelijk,Rechts,5,43,right,no,850,undefined,null,false,focus,yes,1390000,Chrome,112.0,Windows,10,undefined,undefined,2560 x 1440,2560 x 1440
S016,51,Mannelijk,Rechts,5,44,left,no,850,leftarrow,1258,true,focus,yes,1392021,Chrome,112.0,Windows,10,undefined,undefined,2560 x 1440,2560 x 1440
S016,51,Mannelijk,Rechts,5,45,right,yes,850,undefined,null,true,focus,yes,1394060,Chrome,112.0,Windows,10,undefined,undefined,2560 x 1440,2560 x 1440
S016,51,Mannelijk,Rechts,5,46,right,no,900,rightarrow,1162,true,focus,yes,1396000,Chrome,112.0,Windows,10,undefined,undefined,2560 x 1440,2560 x 1440
S016,51,Mannelijk,Rechts,5,47,right,no,900,rightarrow,1167,true,focus,yes,1397941,Chrome,112.0,Windows,10,undefined,undefined,2560 x 1440,2560 x 1440
S016,51,Mannelijk,Rechts,5,48,left,no,900,undefined,null,false,focus,yes,1399964,Chrome,112.0,Windows,10,undefined,undefined,2560 x 1440,2560 x 1440
S016,51,Mannelijk,Rechts,5,49,left,yes,900,undefined,null,true,focus,yes,1401985,Chrome,112.0,Windows,10,undefined,undefined,2560 x 1440,2560 x 1440
S016,51,Mannelijk,Rechts,5,50,right,no,950,rightarrow,1140,true,focus,yes,1403901,Chrome,112.0,Windows,10,undefined,undefined,2560 x 1440,2560 x 1440
S016,51,Mannelijk,Rechts,5,51,right,no,950,rightarrow,988,true,focus,yes,1405662,Chrome,112.0,Windows,10,undefined,undefined,2560 x 1440,2560 x 1440
S016,51,Mannelijk,Rechts,5,52,left,no,950,leftarrow,1031,true,focus,yes,1407461,Chrome,112.0,Windows,10,undefined,undefined,2560 x 1440,2560 x 1440
S016,51,Mannelijk,Rechts,5,53,left,no,950,undefined,null,false,focus,yes,1409486,Chrome,112.0,Windows,10,undefined,undefined,2560 x 1440,2560 x 1440
S016,51,Mannelijk,Rechts,5,54,left,no,950,leftarrow,1084,true,focus,yes,1411341,Chrome,112.0,Windows,10,undefined,undefined,2560 x 1440,2560 x 1440
S016,51,Mannelijk,Rechts,5,55,right,yes,950,rightarrow,1031,false,focus,yes,1413143,Chrome,112.0,Windows,10,undefined,undefined,2560 x 1440,2560 x 1440
S016,51,Mannelijk,Rechts,5,56,right,no,900,rightarrow,1157,true,focus,yes,1415069,Chrome,112.0,Windows,10,undefined,undefined,2560 x 1440,2560 x 1440
S016,51,Mannelijk,Rechts,5,57,right,no,900,rightarrow,1186,true,focus,yes,1417036,Chrome,112.0,Windows,10,undefined,undefined,2560 x 1440,2560 x 1440
S016,51,Mannelijk,Rechts,5,58,left,no,900,leftarrow,1099,true,focus,yes,1418911,Chrome,112.0,Windows,10,undefined,undefined,2560 x 1440,2560 x 1440
S016,51,Mannelijk,Rechts,5,59,left,no,900,leftarrow,1208,true,focus,yes,1420895,Chrome,112.0,Windows,10,undefined,undefined,2560 x 1440,2560 x 1440
S016,51,Mannelijk,Rechts,5,60,right,no,900,undefined,null,false,focus,yes,1422926,Chrome,112.0,Windows,10,undefined,undefined,2560 x 1440,2560 x 1440
S016,51,Mannelijk,Rechts,5,61,left,no,900,leftarrow,1223,true,focus,yes,1424917,Chrome,112.0,Windows,10,undefined,undefined,2560 x 1440,2560 x 1440
S016,51,Mannelijk,Rechts,5,62,right,no,900,rightarrow,1261,true,focus,yes,1426942,Chrome,112.0,Windows,10,undefined,undefined,2560 x 1440,2560 x 1440
S016,51,Mannelijk,Rechts,5,63,left,yes,900,leftarrow,1167,false,focus,yes,1428884,Chrome,112.0,Windows,10,undefined,undefined,2560 x 1440,2560 x 1440
S016,51,Mannelijk,Rechts,5,64,right,yes,850,undefined,null,true,focus,yes,1430922,Chrome,112.0,Windows,10,undefined,undefined,2560 x 1440,2560 x 1440
S016,51,Mannelijk,Rechts,5,65,left,no,900,leftarrow,1117,true,focus,yes,1432813,Chrome,112.0,Windows,10,undefined,undefined,2560 x 1440,2560 x 1440
S016,51,Mannelijk,Rechts,5,66,right,no,900,rightarrow,1194,true,focus,yes,1434782,Chrome,112.0,Windows,10,undefined,undefined,2560 x 1440,2560 x 1440
S016,51,Mannelijk,Rechts,5,67,left,no,900,undefined,null,false,focus,yes,1436809,Chrome,112.0,Windows,10,undefined,undefined,2560 x 1440,2560 x 1440
S016,51,Mannelijk,Rechts,5,68,right,yes,900,undefined,null,true,focus,yes,1438830,Chrome,112.0,Windows,10,undefined,undefined,2560 x 1440,2560 x 1440
S016,51,Mannelijk,Rechts,5,69,left,no,950,leftarrow,1033,true,focus,yes,1440636,Chrome,112.0,Windows,10,undefined,undefined,2560 x 1440,2560 x 1440
S016,51,Mannelijk,Rechts,5,70,right,no,950,rightarrow,1194,true,focus,yes,1442605,Chrome,112.0,Windows,10,undefined,undefined,2560 x 1440,2560 x 1440
S016,51,Mannelijk,Rechts,5,71,right,no,950,rightarrow,1219,true,focus,yes,1444597,Chrome,112.0,Windows,10,undefined,undefined,2560 x 1440,2560 x 1440
S016,51,Mannelijk,Rechts,5,72,left,yes,950,leftarrow,1228,false,focus,yes,1446597,Chrome,112.0,Windows,10,undefined,undefined,2560 x 1440,2560 x 1440
S016,51,Mannelijk,Rechts,5,73,left,no,900,leftarrow,1036,true,focus,yes,1448405,Chrome,112.0,Windows,10,undefined,undefined,2560 x 1440,2560 x 1440
S016,51,Mannelijk,Rechts,5,74,left,no,900,leftarrow,1066,true,focus,yes,1450244,Chrome,112.0,Windows,10,undefined,undefined,2560 x 1440,2560 x 1440
S016,51,Mannelijk,Rechts,5,75,right,no,900,rightarrow,1223,true,focus,yes,1452245,Chrome,112.0,Windows,10,undefined,undefined,2560 x 1440,2560 x 1440
S016,51,Mannelijk,Rechts,5,76,left,yes,900,undefined,null,true,focus,yes,1454281,Chrome,112.0,Windows,10,undefined,undefined,2560 x 1440,2560 x 1440
S016,51,Mannelijk,Rechts,5,77,left,no,950,undefined,null,false,focus,yes,1456314,Chrome,112.0,Windows,10,undefined,undefined,2560 x 1440,2560 x 1440
S016,51,Mannelijk,Rechts,5,78,right,yes,950,rightarrow,1087,false,focus,yes,1458173,Chrome,112.0,Windows,10,undefined,undefined,2560 x 1440,2560 x 1440
S016,51,Mannelijk,Rechts,5,79,right,no,900,rightarrow,936,true,focus,yes,1459885,Chrome,112.0,Windows,10,undefined,undefined,2560 x 1440,2560 x 1440
S016,51,Mannelijk,Rechts,5,80,right,no,900,rightarrow,1001,true,focus,yes,1461660,Chrome,112.0,Windows,10,undefined,undefined,2560 x 1440,2560 x 1440
S016,51,Mannelijk,Rechts,5,81,left,no,900,undefined,null,false,focus,yes,1463684,Chrome,112.0,Windows,10,undefined,undefined,2560 x 1440,2560 x 1440
S016,51,Mannelijk,Rechts,5,82,left,no,900,undefined,null,false,focus,yes,1465722,Chrome,112.0,Windows,10,undefined,undefined,2560 x 1440,2560 x 1440
S016,51,Mannelijk,Rechts,5,83,left,no,900,undefined,null,false,focus,yes,1467746,Chrome,112.0,Windows,10,undefined,undefined,2560 x 1440,2560 x 1440
S016,51,Mannelijk,Rechts,5,84,right,no,900,undefined,null,false,focus,yes,1469786,Chrome,112.0,Windows,10,undefined,undefined,2560 x 1440,2560 x 1440
S016,51,Mannelijk,Rechts,5,85,left,yes,900,undefined,null,true,focus,yes,1471819,Chrome,112.0,Windows,10,undefined,undefined,2560 x 1440,2560 x 1440
S016,51,Mannelijk,Rechts,5,86,right,no,950,rightarrow,1030,true,focus,yes,1473628,Chrome,112.0,Windows,10,undefined,undefined,2560 x 1440,2560 x 1440
S016,51,Mannelijk,Rechts,5,87,right,no,950,rightarrow,1229,true,focus,yes,1475628,Chrome,112.0,Windows,10,undefined,undefined,2560 x 1440,2560 x 1440
S016,51,Mannelijk,Rechts,5,88,right,yes,950,rightarrow,1220,false,focus,yes,1477620,Chrome,112.0,Windows,10,undefined,undefined,2560 x 1440,2560 x 1440
S016,51,Mannelijk,Rechts,5,89,right,no,900,rightarrow,1170,true,focus,yes,1479565,Chrome,112.0,Windows,10,undefined,undefined,2560 x 1440,2560 x 1440
S016,51,Mannelijk,Rechts,5,90,right,yes,900,undefined,null,true,focus,yes,1481596,Chrome,112.0,Windows,10,undefined,undefined,2560 x 1440,2560 x 1440
S016,51,Mannelijk,Rechts,5,91,left,no,950,leftarrow,1183,true,focus,yes,1483558,Chrome,112.0,Windows,10,undefined,undefined,2560 x 1440,2560 x 1440
S016,51,Mannelijk,Rechts,5,92,left,no,950,leftarrow,1208,true,focus,yes,1485541,Chrome,112.0,Windows,10,undefined,undefined,2560 x 1440,2560 x 1440
S016,51,Mannelijk,Rechts,5,93,right,no,950,rightarrow,1190,true,focus,yes,1487517,Chrome,112.0,Windows,10,undefined,undefined,2560 x 1440,2560 x 1440
S016,51,Mannelijk,Rechts,5,94,left,yes,950,undefined,null,true,focus,yes,1489546,Chrome,112.0,Windows,10,undefined,undefined,2560 x 1440,2560 x 1440
S016,51,Mannelijk,Rechts,5,95,left,no,1000,leftarrow,1108,true,focus,yes,1491430,Chrome,112.0,Windows,10,undefined,undefined,2560 x 1440,2560 x 1440
S016,51,Mannelijk,Rechts,5,96,right,no,1000,rightarrow,1188,true,focus,yes,1493392,Chrome,112.0,Windows,10,undefined,undefined,2560 x 1440,2560 x 1440
S016,51,Mannelijk,Rechts,5,97,right,yes,1000,undefined,null,true,focus,yes,1495412,Chrome,112.0,Windows,10,undefined,undefined,2560 x 1440,2560 x 1440
S016,51,Mannelijk,Rechts,5,98,right,no,1050,undefined,null,false,focus,yes,1497445,Chrome,112.0,Windows,10,undefined,undefined,2560 x 1440,2560 x 1440
S016,51,Mannelijk,Rechts,5,99,left,yes,1050,leftarrow,1189,false,focus,yes,1499405,Chrome,112.0,Windows,10,undefined,undefined,2560 x 1440,2560 x 1440
S016,51,Mannelijk,Rechts,5,100,left,no,1000,leftarrow,1106,true,focus,yes,1501288,Chrome,112.0,Windows,10,undefined,undefined,2560 x 1440,2560 x 1440
S016,51,Mannelijk,Rechts,5,101,right,no,1000,undefined,null,false,focus,yes,1503321,Chrome,112.0,Windows,10,undefined,undefined,2560 x 1440,2560 x 1440
S016,51,Mannelijk,Rechts,5,102,left,no,1000,undefined,null,false,focus,yes,1505360,Chrome,112.0,Windows,10,undefined,undefined,2560 x 1440,2560 x 1440
S016,51,Mannelijk,Rechts,5,103,right,no,1000,rightarrow,1255,true,focus,yes,1507398,Chrome,112.0,Windows,10,undefined,undefined,2560 x 1440,2560 x 1440
S016,51,Mannelijk,Rechts,5,104,left,no,1000,undefined,null,false,focus,yes,1509421,Chrome,112.0,Windows,10,undefined,undefined,2560 x 1440,2560 x 1440
S016,51,Mannelijk,Rechts,5,105,right,no,1000,rightarrow,1132,true,focus,yes,1511319,Chrome,112.0,Windows,10,undefined,undefined,2560 x 1440,2560 x 1440
S016,51,Mannelijk,Rechts,5,106,left,no,1000,leftarrow,1107,true,focus,yes,1513205,Chrome,112.0,Windows,10,undefined,undefined,2560 x 1440,2560 x 1440
S016,51,Mannelijk,Rechts,5,107,right,no,1000,undefined,null,false,focus,yes,1515240,Chrome,112.0,Windows,10,undefined,undefined,2560 x 1440,2560 x 1440
S016,51,Mannelijk,Rechts,5,108,right,yes,1000,rightarrow,1119,false,focus,yes,1517134,Chrome,112.0,Windows,10,undefined,undefined,2560 x 1440,2560 x 1440
S016,51,Mannelijk,Rechts,5,109,right,no,950,rightarrow,1145,true,focus,yes,1519053,Chrome,112.0,Windows,10,undefined,undefined,2560 x 1440,2560 x 1440
S016,51,Mannelijk,Rechts,5,110,left,yes,950,leftarrow,1232,false,focus,yes,1521061,Chrome,112.0,Windows,10,undefined,undefined,2560 x 1440,2560 x 1440
S016,51,Mannelijk,Rechts,5,111,left,no,900,leftarrow,999,true,focus,yes,1522837,Chrome,112.0,Windows,10,undefined,undefined,2560 x 1440,2560 x 1440
S016,51,Mannelijk,Rechts,5,112,left,no,900,leftarrow,1117,true,focus,yes,1524724,Chrome,112.0,Windows,10,undefined,undefined,2560 x 1440,2560 x 1440
S016,51,Mannelijk,Rechts,5,113,left,no,900,undefined,null,false,focus,yes,1526748,Chrome,112.0,Windows,10,undefined,undefined,2560 x 1440,2560 x 1440
S016,51,Mannelijk,Rechts,5,114,left,yes,900,leftarrow,1040,false,focus,yes,1528565,Chrome,112.0,Windows,10,undefined,undefined,2560 x 1440,2560 x 1440
S016,51,Mannelijk,Rechts,5,115,right,no,850,rightarrow,1167,true,focus,yes,1530501,Chrome,112.0,Windows,10,undefined,undefined,2560 x 1440,2560 x 1440
S016,51,Mannelijk,Rechts,5,116,right,no,850,rightarrow,1035,true,focus,yes,1532309,Chrome,112.0,Windows,10,undefined,undefined,2560 x 1440,2560 x 1440
S016,51,Mannelijk,Rechts,5,117,left,no,850,leftarrow,1115,true,focus,yes,1534197,Chrome,112.0,Windows,10,undefined,undefined,2560 x 1440,2560 x 1440
S016,51,Mannelijk,Rechts,5,118,right,no,850,rightarrow,966,true,focus,yes,1535940,Chrome,112.0,Windows,10,undefined,undefined,2560 x 1440,2560 x 1440
S016,51,Mannelijk,Rechts,5,119,right,yes,850,undefined,null,true,focus,yes,1537966,Chrome,112.0,Windows,10,undefined,undefined,2560 x 1440,2560 x 1440
S016,51,Mannelijk,Rechts,5,120,left,no,900,leftarrow,1099,true,focus,yes,1539845,Chrome,112.0,Windows,10,undefined,undefined,2560 x 1440,2560 x 1440
S016,51,Mannelijk,Rechts,5,121,right,no,900,rightarrow,1125,true,focus,yes,1541741,Chrome,112.0,Windows,10,undefined,undefined,2560 x 1440,2560 x 1440
S016,51,Mannelijk,Rechts,5,122,left,no,900,undefined,null,false,focus,yes,1543759,Chrome,112.0,Windows,10,undefined,undefined,2560 x 1440,2560 x 1440
S016,51,Mannelijk,Rechts,5,123,left,no,900,leftarrow,1083,true,focus,yes,1545605,Chrome,112.0,Windows,10,undefined,undefined,2560 x 1440,2560 x 1440
S016,51,Mannelijk,Rechts,5,124,left,yes,900,leftarrow,1178,false,focus,yes,1547556,Chrome,112.0,Windows,10,undefined,undefined,2560 x 1440,2560 x 1440
S016,51,Mannelijk,Rechts,5,125,left,no,850,leftarrow,1139,true,focus,yes,1549471,Chrome,112.0,Windows,10,undefined,undefined,2560 x 1440,2560 x 1440
S016,51,Mannelijk,Rechts,5,126,right,yes,850,rightarrow,1166,false,focus,yes,1551406,Chrome,112.0,Windows,10,undefined,undefined,2560 x 1440,2560 x 1440
S016,51,Mannelijk,Rechts,5,127,right,no,800,undefined,null,false,focus,yes,1553445,Chrome,112.0,Windows,10,undefined,undefined,2560 x 1440,2560 x 1440
S016,51,Mannelijk,Rechts,5,128,right,no,800,rightarrow,1179,true,focus,yes,1555390,Chrome,112.0,Windows,10,undefined,undefined,2560 x 1440,2560 x 1440
S016,51,Mannelijk,Rechts,6,1,right,yes,800,rightarrow,896,false,focus,yes,1574365,Chrome,112.0,Windows,10,undefined,undefined,2560 x 1440,2560 x 1440
S016,51,Mannelijk,Rechts,6,2,right,no,750,rightarrow,988,true,focus,yes,1576133,Chrome,112.0,Windows,10,undefined,undefined,2560 x 1440,2560 x 1440
S016,51,Mannelijk,Rechts,6,3,left,no,750,leftarrow,1106,true,focus,yes,1578012,Chrome,112.0,Windows,10,undefined,undefined,2560 x 1440,2560 x 1440
S016,51,Mannelijk,Rechts,6,4,left,no,750,leftarrow,1221,true,focus,yes,1579999,Chrome,112.0,Windows,10,undefined,undefined,2560 x 1440,2560 x 1440
S016,51,Mannelijk,Rechts,6,5,right,no,750,rightarrow,1237,true,focus,yes,1582020,Chrome,112.0,Windows,10,undefined,undefined,2560 x 1440,2560 x 1440
S016,51,Mannelijk,Rechts,6,6,left,yes,750,undefined,null,true,focus,yes,1584044,Chrome,112.0,Windows,10,undefined,undefined,2560 x 1440,2560 x 1440
S016,51,Mannelijk,Rechts,6,7,left,no,800,leftarrow,1195,true,focus,yes,1586012,Chrome,112.0,Windows,10,undefined,undefined,2560 x 1440,2560 x 1440
S016,51,Mannelijk,Rechts,6,8,right,no,800,rightarrow,1026,true,focus,yes,1587814,Chrome,112.0,Windows,10,undefined,undefined,2560 x 1440,2560 x 1440
S016,51,Mannelijk,Rechts,6,9,right,no,800,rightarrow,1154,true,focus,yes,1589740,Chrome,112.0,Windows,10,undefined,undefined,2560 x 1440,2560 x 1440
S016,51,Mannelijk,Rechts,6,10,left,no,800,undefined,null,false,focus,yes,1591768,Chrome,112.0,Windows,10,undefined,undefined,2560 x 1440,2560 x 1440
S016,51,Mannelijk,Rechts,6,11,right,yes,800,undefined,null,true,focus,yes,1593798,Chrome,112.0,Windows,10,undefined,undefined,2560 x 1440,2560 x 1440
S016,51,Mannelijk,Rechts,6,12,left,no,850,leftarrow,1071,true,focus,yes,1595644,Chrome,112.0,Windows,10,undefined,undefined,2560 x 1440,2560 x 1440
S016,51,Mannelijk,Rechts,6,13,left,yes,850,undefined,null,true,focus,yes,1597680,Chrome,112.0,Windows,10,undefined,undefined,2560 x 1440,2560 x 1440
S016,51,Mannelijk,Rechts,6,14,left,no,900,undefined,null,false,focus,yes,1599725,Chrome,112.0,Windows,10,undefined,undefined,2560 x 1440,2560 x 1440
S016,51,Mannelijk,Rechts,6,15,right,no,900,rightarrow,1028,true,focus,yes,1601533,Chrome,112.0,Windows,10,undefined,undefined,2560 x 1440,2560 x 1440
S016,51,Mannelijk,Rechts,6,16,right,no,900,rightarrow,1222,true,focus,yes,1603524,Chrome,112.0,Windows,10,undefined,undefined,2560 x 1440,2560 x 1440
S016,51,Mannelijk,Rechts,6,17,left,no,900,leftarrow,1212,true,focus,yes,1605516,Chrome,112.0,Windows,10,undefined,undefined,2560 x 1440,2560 x 1440
S016,51,Mannelijk,Rechts,6,18,left,no,900,leftarrow,1241,true,focus,yes,1607525,Chrome,112.0,Windows,10,undefined,undefined,2560 x 1440,2560 x 1440
S016,51,Mannelijk,Rechts,6,19,left,yes,900,leftarrow,1153,false,focus,yes,1609453,Chrome,112.0,Windows,10,undefined,undefined,2560 x 1440,2560 x 1440
S016,51,Mannelijk,Rechts,6,20,left,no,850,leftarrow,1182,true,focus,yes,1611404,Chrome,112.0,Windows,10,undefined,undefined,2560 x 1440,2560 x 1440
S016,51,Mannelijk,Rechts,6,21,right,no,850,rightarrow,1194,true,focus,yes,1613373,Chrome,112.0,Windows,10,undefined,undefined,2560 x 1440,2560 x 1440
